subject,Dean Black
arm,right
label,1
hz,100.17702741230191
time,4.861394

timestamp_us,q0,q1,q2,q3,ax,ay,az,gx,gy,gz
54600276,0.669677734375,-0.40899658203125,0.59906005859375,-0.15911865234375,-5481,-6035,-445,0,-1,0
54610256,0.669677734375,-0.40899658203125,0.59906005859375,-0.1590576171875,-5477,-6050,-446,-1,-1,0
54620238,0.66973876953125,-0.40899658203125,0.59906005859375,-0.15899658203125,-5466,-6053,-445,-1,-1,0
54630228,0.6697998046875,-0.40887451171875,0.59912109375,-0.15887451171875,-5467,-6047,-456,0,-1,1
54640209,0.6697998046875,-0.4088134765625,0.59912109375,-0.15869140625,-5465,-6034,-460,-1,-1,1
54650190,0.669921875,-0.40869140625,0.59918212890625,-0.15850830078125,-5466,-6026,-458,-1,-1,1
54660181,0.66998291015625,-0.4085693359375,0.59918212890625,-0.1583251953125,-5483,-6022,-447,0,-1,1
54670168,0.67010498046875,-0.40850830078125,0.59918212890625,-0.158203125,-5496,-6010,-449,0,-1,1
54680137,0.670166015625,-0.40838623046875,0.5992431640625,-0.1580810546875,-5487,-5993,-451,0,-1,1
54690113,0.670166015625,-0.4083251953125,0.5992431640625,-0.15802001953125,-5491,-5988,-460,0,-1,0
54700096,0.67022705078125,-0.4083251953125,0.5992431640625,-0.157958984375,-5502,-5984,-465,0,-1,0
54710080,0.67022705078125,-0.4083251953125,0.5992431640625,-0.157958984375,-5500,-5986,-460,0,-1,0
54720065,0.6702880859375,-0.40826416015625,0.5992431640625,-0.157958984375,-5521,-5979,-447,0,-1,-1
54730045,0.6702880859375,-0.408203125,0.5992431640625,-0.15789794921875,-5515,-5975,-456,0,-1,0
54740026,0.67034912109375,-0.40814208984375,0.5992431640625,-0.1578369140625,-5519,-5978,-461,0,-1,0
54750008,0.67041015625,-0.4080810546875,0.59930419921875,-0.15771484375,-5529,-5979,-464,0,-1,1
54759991,0.6705322265625,-0.40789794921875,0.59930419921875,-0.15753173828125,-5543,-5980,-452,0,-1,1
54769982,0.67059326171875,-0.40777587890625,0.599365234375,-0.15728759765625,-5551,-5972,-461,0,-1,2
54779955,0.67071533203125,-0.4075927734375,0.59942626953125,-0.156982421875,-5549,-5958,-463,-1,-2,2
54789939,0.67083740234375,-0.407470703125,0.5994873046875,-0.15667724609375,-5540,-5948,-472,0,-2,2
54799921,0.6708984375,-0.4073486328125,0.59954833984375,-0.1563720703125,-5533,-5933,-478,-1,-2,2
54809900,0.6710205078125,-0.40728759765625,0.59954833984375,-0.1561279296875,-5529,-5918,-477,-1,-2,1
54819882,0.671142578125,-0.4072265625,0.5994873046875,-0.1558837890625,-5519,-5913,-471,-1,-2,1
54829866,0.67120361328125,-0.40728759765625,0.59942626953125,-0.15570068359375,-5513,-5910,-485,-1,-2,0
54839848,0.67120361328125,-0.4073486328125,0.59942626953125,-0.15545654296875,-5514,-5881,-488,-1,-2,0
54849829,0.67132568359375,-0.40740966796875,0.599365234375,-0.15521240234375,-5508,-5881,-481,-2,-2,0
54859810,0.67138671875,-0.407470703125,0.59930419921875,-0.15496826171875,-5511,-5877,-486,-2,-2,1
54869794,0.67138671875,-0.40753173828125,0.59930419921875,-0.1546630859375,-5508,-5877,-494,-2,-2,1
54879778,0.67144775390625,-0.4075927734375,0.59930419921875,-0.154296875,-5515,-5883,-475,-2,-2,1
54889764,0.67144775390625,-0.40771484375,0.59930419921875,-0.15399169921875,-5517,-5879,-465,-2,-2,1
54899744,0.6715087890625,-0.4078369140625,0.59930419921875,-0.1536865234375,-5517,-5869,-465,-3,-2,1
54909730,0.6715087890625,-0.40789794921875,0.59930419921875,-0.1533203125,-5529,-5873,-466,-3,-2,1
54919705,0.6715087890625,-0.40802001953125,0.59930419921875,-0.1529541015625,-5542,-5873,-462,-3,-2,1
54929689,0.6715087890625,-0.40814208984375,0.59930419921875,-0.152587890625,-5556,-5891,-459,-3,-2,1
54939669,0.67144775390625,-0.40826416015625,0.599365234375,-0.1522216796875,-5562,-5901,-457,-3,-2,1
54949652,0.67144775390625,-0.4083251953125,0.599365234375,-0.15191650390625,-5572,-5909,-458,-2,-2,1
54959634,0.67144775390625,-0.408447265625,0.59942626953125,-0.151611328125,-5570,-5920,-449,-2,-1,1
54969615,0.67144775390625,-0.40850830078125,0.5994873046875,-0.1512451171875,-5579,-5924,-444,-2,-1,1
54979598,0.6715087890625,-0.40850830078125,0.5994873046875,-0.15093994140625,-5591,-5938,-431,-2,-2,1
54989582,0.6715087890625,-0.4085693359375,0.5994873046875,-0.15057373046875,-5613,-5963,-433,-2,-2,1
54999564,0.671630859375,-0.40850830078125,0.59954833984375,-0.1502685546875,-5626,-5954,-432,-2,-2,1
55009546,0.67169189453125,-0.40850830078125,0.59954833984375,-0.14996337890625,-5642,-5948,-424,-2,-2,1
55019528,0.6717529296875,-0.40850830078125,0.5994873046875,-0.149658203125,-5653,-5943,-422,-2,-2,1
55029510,0.671875,-0.4085693359375,0.59942626953125,-0.1494140625,-5648,-5948,-429,-1,-3,1
55039492,0.67205810546875,-0.4085693359375,0.59930419921875,-0.14910888671875,-5650,-5961,-419,-1,-3,0
55049475,0.67218017578125,-0.4085693359375,0.59912109375,-0.14886474609375,-5650,-5963,-425,-1,-3,0
55059456,0.67236328125,-0.40863037109375,0.5989990234375,-0.148681640625,-5642,-5955,-412,-1,-3,0
55069443,0.67254638671875,-0.40869140625,0.59881591796875,-0.14849853515625,-5629,-5932,-409,-1,-3,0
55079429,0.6727294921875,-0.40869140625,0.5986328125,-0.14825439453125,-5625,-5932,-408,-1,-3,0
55089410,0.6729736328125,-0.40875244140625,0.598388671875,-0.1480712890625,-5608,-5921,-412,-1,-3,0
55099393,0.67315673828125,-0.4088134765625,0.59820556640625,-0.14788818359375,-5577,-5918,-415,-1,-4,0
55109371,0.67333984375,-0.40887451171875,0.59796142578125,-0.147705078125,-5567,-5919,-422,-1,-4,0
55119351,0.67352294921875,-0.408935546875,0.5977783203125,-0.1474609375,-5557,-5905,-420,-1,-3,0
55129335,0.6737060546875,-0.408935546875,0.59759521484375,-0.14727783203125,-5553,-5894,-411,-1,-3,0
55139317,0.6739501953125,-0.4090576171875,0.59735107421875,-0.1470947265625,-5525,-5891,-412,-1,-3,0
55149300,0.674072265625,-0.40911865234375,0.59716796875,-0.14697265625,-5520,-5888,-425,-1,-3,0
55159287,0.6741943359375,-0.4091796875,0.5970458984375,-0.14678955078125,-5505,-5866,-432,-1,-3,0
55169265,0.67425537109375,-0.40924072265625,0.596923828125,-0.14666748046875,-5481,-5855,-431,-1,-2,0
55179250,0.67431640625,-0.40936279296875,0.5968017578125,-0.14654541015625,-5464,-5829,-423,-1,-2,-1
55189234,0.67437744140625,-0.40948486328125,0.59674072265625,-0.14642333984375,-5454,-5815,-410,-1,-2,-1
55199215,0.67437744140625,-0.40960693359375,0.59661865234375,-0.14642333984375,-5443,-5813,-395,-1,-1,-1
55209200,0.67431640625,-0.4097900390625,0.59661865234375,-0.1463623046875,-5441,-5820,-397,-2,-1,-1
55219186,0.67425537109375,-0.40997314453125,0.5965576171875,-0.14630126953125,-5448,-5843,-402,-2,-1,-1
55229173,0.67413330078125,-0.41015625,0.59661865234375,-0.146240234375,-5452,-5873,-410,-2,0,-1
55239159,0.67401123046875,-0.4102783203125,0.5966796875,-0.14617919921875,-5470,-5891,-415,-2,0,0
55249132,0.67388916015625,-0.410400390625,0.59674072265625,-0.14605712890625,-5479,-5916,-417,-2,0,0
55259107,0.67376708984375,-0.410400390625,0.5968017578125,-0.14599609375,-5496,-5931,-419,-2,0,0
55269089,0.6737060546875,-0.41046142578125,0.59698486328125,-0.1458740234375,-5508,-5944,-419,-1,0,1
55279073,0.673583984375,-0.41046142578125,0.59710693359375,-0.14581298828125,-5525,-5946,-413,-1,1,1
55289055,0.6734619140625,-0.410400390625,0.59722900390625,-0.14569091796875,-5536,-5935,-417,-1,0,0
55299036,0.67340087890625,-0.410400390625,0.59735107421875,-0.14569091796875,-5518,-5920,-415,-1,1,0
55309021,0.6732177734375,-0.41046142578125,0.59747314453125,-0.145751953125,-5505,-5922,-415,-1,1,-1
55319000,0.673095703125,-0.4105224609375,0.59759521484375,-0.1458740234375,-5523,-5928,-426,-1,1,-1
55328991,0.67291259765625,-0.41058349609375,0.59765625,-0.14599609375,-5527,-5928,-423,0,1,-1
55338977,0.67279052734375,-0.41064453125,0.5977783203125,-0.146240234375,-5529,-5941,-424,0,1,-2
55348949,0.67266845703125,-0.41070556640625,0.5977783203125,-0.14642333984375,-5536,-5949,-428,0,1,-2
55358929,0.6724853515625,-0.4107666015625,0.597900390625,-0.14666748046875,-5540,-5955,-434,0,1,-2
55368912,0.67236328125,-0.4107666015625,0.59796142578125,-0.14697265625,-5555,-5971,-444,0,1,-2
55378895,0.6722412109375,-0.4107666015625,0.5980224609375,-0.147216796875,-5572,-5977,-464,1,1,-2
55388876,0.672119140625,-0.41082763671875,0.59808349609375,-0.1474609375,-5577,-5964,-475,1,1,-2
55398859,0.6719970703125,-0.4107666015625,0.59820556640625,-0.14776611328125,-5580,-5973,-475,1,1,-2
55408840,0.671875,-0.4107666015625,0.5982666015625,-0.14801025390625,-5577,-5958,-478,1,1,-2
55418823,0.6717529296875,-0.41070556640625,0.59832763671875,-0.14825439453125,-5579,-5947,-478,1,1,-2
55428806,0.67169189453125,-0.41070556640625,0.598388671875,-0.14849853515625,-5579,-5942,-484,0,1,-2
55438789,0.67156982421875,-0.41070556640625,0.59844970703125,-0.14874267578125,-5568,-5926,-482,0,1,-2
55448769,0.67144775390625,-0.41064453125,0.59857177734375,-0.14892578125,-5572,-5915,-480,0,1,-2
55458761,0.67132568359375,-0.41064453125,0.59869384765625,-0.14910888671875,-5565,-5909,-488,0,1,-1
55468742,0.6712646484375,-0.41058349609375,0.59881591796875,-0.14923095703125,-5555,-5894,-480,0,1,-1
55478726,0.671142578125,-0.41046142578125,0.59893798828125,-0.14935302734375,-5554,-5878,-457,0,1,-1
55488706,0.6710205078125,-0.410400390625,0.59906005859375,-0.1494140625,-5542,-5861,-465,0,1,0
55498686,0.6708984375,-0.4102783203125,0.59930419921875,-0.1494140625,-5552,-5826,-475,0,1,0
55508669,0.6707763671875,-0.41021728515625,0.5994873046875,-0.1494140625,-5560,-5820,-468,-1,1,0
55518648,0.670654296875,-0.41015625,0.5997314453125,-0.1494140625,-5557,-5830,-476,-1,1,0
55528630,0.67047119140625,-0.41009521484375,0.59991455078125,-0.1494140625,-5561,-5840,-473,-1,1,0
55538616,0.67034912109375,-0.41009521484375,0.60009765625,-0.1494140625,-5585,-5850,-479,-1,1,-1
55548595,0.67022705078125,-0.41015625,0.6002197265625,-0.1494140625,-5605,-5860,-481,-1,1,-1
55558575,0.6700439453125,-0.41021728515625,0.60028076171875,-0.14947509765625,-5610,-5882,-482,-1,1,-1
55568559,0.669921875,-0.41033935546875,0.600341796875,-0.1495361328125,-5631,-5892,-474,-1,1,-2
55578539,0.6697998046875,-0.41046142578125,0.60040283203125,-0.1495361328125,-5640,-5897,-487,-1,0,-2
55588523,0.66973876953125,-0.41058349609375,0.60040283203125,-0.1495361328125,-5640,-5908,-497,-1,0,-1
55598507,0.669677734375,-0.41064453125,0.60040283203125,-0.1495361328125,-5646,-5922,-495,-1,-1,-1
55608491,0.669677734375,-0.41070556640625,0.60040283203125,-0.1494140625,-5645,-5931,-499,-1,-1,0
55618471,0.669677734375,-0.4107666015625,0.60040283203125,-0.14935302734375,-5654,-5936,-496,-1,-1,-1
55628450,0.669677734375,-0.41082763671875,0.600341796875,-0.14923095703125,-5643,-5932,-497,-1,-1,-1
55638433,0.669677734375,-0.410888671875,0.600341796875,-0.149169921875,-5624,-5921,-497,-1,-1,0
55648423,0.669677734375,-0.41094970703125,0.600341796875,-0.14910888671875,-5612,-5921,-495,-1,-1,-1
55658407,0.66973876953125,-0.41094970703125,0.60028076171875,-0.14898681640625,-5616,-5923,-497,-1,-1,0
55668388,0.66973876953125,-0.41094970703125,0.60028076171875,-0.14892578125,-5614,-5920,-497,-1,-1,0
55678368,0.6697998046875,-0.410888671875,0.60028076171875,-0.14886474609375,-5605,-5926,-492,0,-1,0
55688349,0.66986083984375,-0.410888671875,0.6002197265625,-0.1488037109375,-5600,-5934,-490,-1,-1,0
55698333,0.66986083984375,-0.410888671875,0.60028076171875,-0.14874267578125,-5609,-5929,-501,0,-1,0
55708312,0.66986083984375,-0.41082763671875,0.60028076171875,-0.148681640625,-5600,-5915,-496,0,-1,0
55718298,0.669921875,-0.41070556640625,0.600341796875,-0.1485595703125,-5593,-5901,-497,0,-1,0
55728279,0.669921875,-0.41070556640625,0.60040283203125,-0.14849853515625,-5595,-5900,-498,-1,-1,0
55738258,0.669921875,-0.41064453125,0.60040283203125,-0.14837646484375,-5592,-5893,-515,-1,-1,0
55748237,0.669921875,-0.41064453125,0.6004638671875,-0.1483154296875,-5588,-5898,-521,-1,-1,0
55758229,0.669921875,-0.41058349609375,0.60052490234375,-0.148193359375,-5597,-5905,-512,-1,-1,1
55768211,0.669921875,-0.4105224609375,0.60064697265625,-0.14801025390625,-5596,-5903,-528,-1,-1,1
55778190,0.669921875,-0.410400390625,0.6007080078125,-0.14776611328125,-5587,-5907,-530,-1,-1,1
55788180,0.66998291015625,-0.4102783203125,0.600830078125,-0.14752197265625,-5590,-5901,-528,-1,-1,2
55798168,0.6700439453125,-0.41015625,0.6009521484375,-0.147216796875,-5592,-5894,-528,-1,-1,2
55808140,0.6700439453125,-0.41009521484375,0.6009521484375,-0.14703369140625,-5596,-5891,-527,-1,-1,1
55818117,0.67010498046875,-0.4100341796875,0.60101318359375,-0.1468505859375,-5592,-5883,-534,-1,-1,0
55828099,0.670166015625,-0.4100341796875,0.6009521484375,-0.146728515625,-5581,-5881,-537,-1,-2,0
55838081,0.67022705078125,-0.41015625,0.600830078125,-0.14666748046875,-5570,-5868,-544,-1,-2,-1
55848062,0.6702880859375,-0.4102783203125,0.6007080078125,-0.14666748046875,-5561,-5871,-553,-1,-2,-2
55858045,0.6702880859375,-0.41046142578125,0.6005859375,-0.146728515625,-5555,-5858,-553,-1,-2,-3
55868031,0.6702880859375,-0.41070556640625,0.600341796875,-0.1468505859375,-5550,-5849,-542,0,-2,-3
55878011,0.67034912109375,-0.41094970703125,0.60009765625,-0.14697265625,-5551,-5849,-521,-1,-2,-4
55887991,0.67034912109375,-0.41119384765625,0.599853515625,-0.14715576171875,-5548,-5847,-517,-1,-2,-3
55897979,0.67034912109375,-0.41143798828125,0.59967041015625,-0.14727783203125,-5536,-5849,-517,-1,-2,-3
55907955,0.67034912109375,-0.4117431640625,0.59942626953125,-0.1473388671875,-5538,-5856,-506,-1,-2,-3
55917937,0.67034912109375,-0.4119873046875,0.5992431640625,-0.1474609375,-5528,-5867,-500,-1,-2,-3
55927919,0.67041015625,-0.4122314453125,0.59906005859375,-0.14752197265625,-5527,-5871,-497,-1,-2,-3
55937903,0.67034912109375,-0.4124755859375,0.598876953125,-0.1475830078125,-5537,-5885,-497,-1,-1,-3
55947883,0.6702880859375,-0.41265869140625,0.59881591796875,-0.14764404296875,-5528,-5906,-500,-2,-1,-2
55957872,0.6702880859375,-0.412841796875,0.59869384765625,-0.147705078125,-5525,-5928,-496,-1,-1,-2
55967849,0.67022705078125,-0.4129638671875,0.59869384765625,-0.147705078125,-5526,-5969,-510,-1,-1,-1
55977839,0.670166015625,-0.4130859375,0.59869384765625,-0.147705078125,-5513,-5992,-520,-1,-1,0
55987821,0.67010498046875,-0.4130859375,0.59869384765625,-0.14764404296875,-5510,-6002,-522,-1,0,0
55997800,0.67010498046875,-0.41302490234375,0.59881591796875,-0.1475830078125,-5514,-6010,-521,-1,0,1
56007785,0.67010498046875,-0.412841796875,0.59893798828125,-0.1474609375,-5514,-5997,-512,0,0,2
56017764,0.67010498046875,-0.41265869140625,0.59912109375,-0.1473388671875,-5500,-5990,-489,0,0,2
56027758,0.67010498046875,-0.4124755859375,0.5992431640625,-0.147216796875,-5503,-5977,-491,0,0,2
56037738,0.67010498046875,-0.4122314453125,0.59942626953125,-0.14715576171875,-5505,-5953,-470,0,0,2
56050989,0.67010498046875,-0.41204833984375,0.599609375,-0.14703369140625,-5511,-5926,-463,0,1,2
56057700,0.66998291015625,-0.41192626953125,0.59979248046875,-0.14703369140625,-5491,-5893,-459,-1,1,1
56067682,0.669921875,-0.4117431640625,0.5999755859375,-0.1470947265625,-5490,-5867,-455,0,1,0
56077662,0.6697998046875,-0.41162109375,0.60015869140625,-0.1470947265625,-5497,-5851,-461,0,1,0
56087641,0.66973876953125,-0.4114990234375,0.60040283203125,-0.14715576171875,-5499,-5842,-456,0,2,1
56097630,0.6695556640625,-0.411376953125,0.60064697265625,-0.1470947265625,-5484,-5832,-466,-1,2,1
56107605,0.66943359375,-0.4112548828125,0.60089111328125,-0.14703369140625,-5493,-5822,-480,-1,2,2
56117587,0.66925048828125,-0.41107177734375,0.60125732421875,-0.14691162109375,-5495,-5819,-500,-1,2,2
56127569,0.6690673828125,-0.410888671875,0.6015625,-0.1468505859375,-5520,-5842,-512,-1,2,2
56137552,0.66888427734375,-0.4107666015625,0.6019287109375,-0.14678955078125,-5527,-5846,-531,-1,2,1
56147536,0.668701171875,-0.4105224609375,0.602294921875,-0.14666748046875,-5542,-5845,-541,-1,2,2
56157515,0.66845703125,-0.41033935546875,0.6026611328125,-0.1466064453125,-5555,-5849,-550,-1,2,2
56167498,0.66827392578125,-0.41015625,0.60302734375,-0.146484375,-5564,-5858,-558,-1,2,2
56177480,0.6680908203125,-0.40997314453125,0.6033935546875,-0.14642333984375,-5579,-5843,-560,-1,2,2
56187464,0.6678466796875,-0.40972900390625,0.60382080078125,-0.1463623046875,-5612,-5837,-580,-1,3,2
56197452,0.66766357421875,-0.40948486328125,0.604248046875,-0.146240234375,-5623,-5822,-589,-1,2,2
56207430,0.66754150390625,-0.4091796875,0.6046142578125,-0.1461181640625,-5644,-5812,-574,0,2,2
56217418,0.6673583984375,-0.408935546875,0.60498046875,-0.14605712890625,-5660,-5807,-560,0,2,2
56227401,0.667236328125,-0.40869140625,0.60528564453125,-0.14605712890625,-5702,-5820,-558,0,2,1
56237384,0.6671142578125,-0.40850830078125,0.60552978515625,-0.1461181640625,-5735,-5843,-559,0,2,0
56247362,0.6669921875,-0.40838623046875,0.60565185546875,-0.146240234375,-5778,-5897,-564,1,2,-1
56257344,0.66693115234375,-0.4083251953125,0.60577392578125,-0.14642333984375,-5824,-5940,-574,1,1,-1
56267323,0.66693115234375,-0.408203125,0.6058349609375,-0.14666748046875,-5871,-5962,-591,2,0,-1
56277305,0.66705322265625,-0.407958984375,0.6058349609375,-0.1468505859375,-5903,-5948,-597,2,0,-1
56287288,0.66717529296875,-0.40765380859375,0.6058349609375,-0.14697265625,-5944,-5902,-607,3,-1,-1
56297274,0.66741943359375,-0.4073486328125,0.60577392578125,-0.14697265625,-5962,-5842,-607,3,-2,0
56307253,0.667724609375,-0.40704345703125,0.60565185546875,-0.14697265625,-5992,-5762,-593,2,-3,-1
56317238,0.6680908203125,-0.40692138671875,0.6053466796875,-0.14703369140625,-6006,-5700,-573,2,-3,-3
56327216,0.66839599609375,-0.40692138671875,0.60491943359375,-0.1470947265625,-6017,-5654,-564,2,-4,-5
56337200,0.66876220703125,-0.40716552734375,0.6043701171875,-0.147216796875,-6030,-5628,-573,0,-6,-6
56347189,0.66912841796875,-0.4075927734375,0.60369873046875,-0.147216796875,-6028,-5606,-566,0,-7,-7
56357173,0.66949462890625,-0.4080810546875,0.6029052734375,-0.147216796875,-6040,-5570,-568,-1,-8,-7
56367151,0.66998291015625,-0.40869140625,0.60205078125,-0.14703369140625,-6032,-5539,-562,-2,-9,-7
56377122,0.67041015625,-0.40936279296875,0.60113525390625,-0.14666748046875,-6028,-5521,-562,-3,-10,-6
56387104,0.67095947265625,-0.41009521484375,0.6002197265625,-0.1461181640625,-6029,-5508,-550,-5,-11,-6
56397087,0.67144775390625,-0.41094970703125,0.5992431640625,-0.14532470703125,-6017,-5492,-539,-6,-12,-6
56407068,0.6719970703125,-0.411865234375,0.59820556640625,-0.1444091796875,-6002,-5474,-520,-7,-13,-5
56417050,0.67254638671875,-0.41290283203125,0.59716796875,-0.14324951171875,-5980,-5448,-499,-9,-14,-4
56427034,0.673095703125,-0.41400146484375,0.59613037109375,-0.1419677734375,-5951,-5430,-492,-10,-15,-4
56437014,0.673583984375,-0.4151611328125,0.5950927734375,-0.14044189453125,-5930,-5428,-478,-12,-16,-3
56446998,0.674072265625,-0.41644287109375,0.59405517578125,-0.13873291015625,-5932,-5442,-486,-13,-16,-3
56456984,0.67449951171875,-0.41790771484375,0.59295654296875,-0.136962890625,-5932,-5485,-497,-14,-17,-3
56466968,0.6749267578125,-0.41943359375,0.59185791015625,-0.13507080078125,-5942,-5537,-511,-15,-17,-3
56476944,0.67523193359375,-0.42108154296875,0.59075927734375,-0.1331787109375,-5959,-5603,-521,-16,-17,-3
56486927,0.67547607421875,-0.42279052734375,0.58966064453125,-0.13134765625,-5985,-5685,-531,-17,-17,-4
56496909,0.6756591796875,-0.42462158203125,0.5885009765625,-0.12945556640625,-6023,-5752,-549,-17,-16,-4
56506890,0.67578125,-0.42645263671875,0.58746337890625,-0.1275634765625,-6044,-5848,-572,-18,-16,-4
56516874,0.67584228515625,-0.42828369140625,0.58648681640625,-0.125732421875,-6070,-5952,-600,-17,-15,-3
56526863,0.6759033203125,-0.429931640625,0.58563232421875,-0.123779296875,-6087,-6063,-622,-17,-14,0
56536840,0.67584228515625,-0.43133544921875,0.5850830078125,-0.12164306640625,-6114,-6166,-646,-17,-13,3
56546822,0.67584228515625,-0.43243408203125,0.58477783203125,-0.11932373046875,-6163,-6266,-676,-17,-12,7
56556805,0.67584228515625,-0.43316650390625,0.584716796875,-0.11676025390625,-6240,-6377,-690,-16,-11,11
56566787,0.67584228515625,-0.43353271484375,0.58502197265625,-0.114013671875,-6328,-6444,-713,-15,-9,15
56576766,0.67578125,-0.43353271484375,0.58563232421875,-0.1109619140625,-6434,-6487,-727,-15,-8,19
56586758,0.67578125,-0.43304443359375,0.586669921875,-0.10760498046875,-6550,-6510,-746,-14,-6,24
56596740,0.67572021484375,-0.43212890625,0.58807373046875,-0.10394287109375,-6672,-6521,-761,-14,-5,29
56606717,0.67559814453125,-0.43072509765625,0.58990478515625,-0.099853515625,-6783,-6538,-788,-13,-3,36
56616699,0.675537109375,-0.4287109375,0.59222412109375,-0.0953369140625,-6909,-6518,-794,-13,-2,43
56626688,0.67547607421875,-0.4261474609375,0.59490966796875,-0.09039306640625,-7028,-6481,-783,-12,0,49
56636671,0.6754150390625,-0.42303466796875,0.5980224609375,-0.0849609375,-7168,-6423,-752,-12,1,55
56646652,0.67523193359375,-0.41943359375,0.60150146484375,-0.0791015625,-7315,-6334,-716,-12,2,60
56656636,0.67510986328125,-0.41546630859375,0.60516357421875,-0.0728759765625,-7450,-6244,-675,-12,3,65
56666619,0.6749267578125,-0.41107177734375,0.609130859375,-0.0662841796875,-7572,-6132,-651,-12,3,70
56676602,0.67474365234375,-0.40625,0.61328125,-0.0592041015625,-7682,-6011,-630,-12,3,76
56686584,0.674560546875,-0.4010009765625,0.61767578125,-0.0517578125,-7804,-5919,-639,-12,3,81
56696566,0.67425537109375,-0.3953857421875,0.62213134765625,-0.04388427734375,-7932,-5826,-653,-12,3,85
56706549,0.67401123046875,-0.38946533203125,0.62664794921875,-0.0357666015625,-8055,-5758,-686,-12,2,88
56716529,0.6737060546875,-0.38336181640625,0.631103515625,-0.02764892578125,-8199,-5713,-739,-11,1,89
56726513,0.67340087890625,-0.3773193359375,0.6353759765625,-0.01959228515625,-8336,-5694,-797,-10,1,88
56736497,0.673095703125,-0.37127685546875,0.63946533203125,-0.01171875,-8463,-5625,-850,-9,0,87
56746479,0.67279052734375,-0.36517333984375,0.64337158203125,-0.00390625,-8567,-5542,-898,-9,-1,87
56756457,0.67254638671875,-0.35894775390625,0.64715576171875,0.00390625,-8667,-5446,-944,-8,-2,88
56766443,0.67230224609375,-0.3524169921875,0.65087890625,0.011962890625,-8765,-5361,-995,-7,-3,91
56776429,0.67205810546875,-0.34552001953125,0.65460205078125,0.0201416015625,-8840,-5270,-1050,-6,-4,95
56786413,0.67181396484375,-0.33819580078125,0.65838623046875,0.0286865234375,-8904,-5164,-1112,-5,-5,100
56796395,0.67144775390625,-0.33038330078125,0.66217041015625,0.03753662109375,-8948,-5038,-1144,-5,-5,105
56806372,0.671142578125,-0.32208251953125,0.66607666015625,0.0467529296875,-8961,-4862,-1173,-4,-6,110
56816352,0.67071533203125,-0.3133544921875,0.66986083984375,0.0562744140625,-8962,-4669,-1181,-4,-7,114
56826335,0.67022705078125,-0.30426025390625,0.67364501953125,0.0660400390625,-8968,-4419,-1183,-4,-7,116
56836318,0.66961669921875,-0.2950439453125,0.67724609375,0.07598876953125,-8973,-4145,-1147,-4,-8,117
56846301,0.6689453125,-0.28582763671875,0.6806640625,0.08599853515625,-8986,-3844,-1121,-5,-9,116
56856287,0.66815185546875,-0.27667236328125,0.68389892578125,0.095947265625,-8983,-3551,-1098,-6,-9,114
56866263,0.66717529296875,-0.2679443359375,0.6868896484375,0.105712890625,-8976,-3309,-1106,-7,-9,111
56876250,0.66607666015625,-0.25958251953125,0.689697265625,0.11505126953125,-8939,-3085,-1123,-8,-8,106
56886236,0.664794921875,-0.25164794921875,0.6922607421875,0.1241455078125,-8901,-2892,-1146,-9,-7,103
56896218,0.663330078125,-0.24383544921875,0.69482421875,0.133056640625,-8859,-2686,-1170,-9,-6,102
56906200,0.66162109375,-0.2359619140625,0.69732666015625,0.14215087890625,-8834,-2470,-1180,-10,-6,105
56916189,0.65972900390625,-0.2276611328125,0.69989013671875,0.1517333984375,-8830,-2225,-1196,-11,-6,110
56926173,0.65753173828125,-0.21893310546875,0.7025146484375,0.1617431640625,-8819,-1953,-1175,-12,-5,116
56936155,0.655029296875,-0.209716796875,0.705078125,0.17236328125,-8831,-1674,-1144,-13,-5,122
56946132,0.65228271484375,-0.2000732421875,0.7076416015625,0.1834716796875,-8836,-1389,-1110,-14,-4,126
56956110,0.64923095703125,-0.19024658203125,0.7100830078125,0.19482421875,-8858,-1116,-1068,-16,-4,129
56966092,0.64599609375,-0.18035888671875,0.71240234375,0.20635986328125,-8864,-861,-1053,-17,-4,130
56976073,0.64251708984375,-0.17041015625,0.71453857421875,0.2178955078125,-8844,-622,-1038,-17,-4,130
56986056,0.638916015625,-0.1605224609375,0.71649169921875,0.2293701171875,-8827,-396,-1044,-18,-4,131
56996037,0.63507080078125,-0.15057373046875,0.71826171875,0.2408447265625,-8801,-175,-1065,-18,-4,131
57006021,0.63104248046875,-0.14068603515625,0.71990966796875,0.252197265625,-8771,33,-1069,-18,-4,131
57016003,0.626953125,-0.13067626953125,0.7213134765625,0.26348876953125,-8730,274,-1077,-18,-4,131
57025989,0.62274169921875,-0.1204833984375,0.7225341796875,0.2747802734375,-8662,563,-1055,-17,-5,132
57035975,0.6182861328125,-0.11016845703125,0.72357177734375,0.28619384765625,-8579,876,-1023,-18,-5,133
57045951,0.61376953125,-0.099609375,0.72430419921875,0.29766845703125,-8482,1197,-970,-18,-6,134
57055933,0.609130859375,-0.08905029296875,0.72479248046875,0.30914306640625,-8365,1503,-913,-19,-7,134
57065915,0.6044921875,-0.07867431640625,0.7249755859375,0.320556640625,-8235,1797,-852,-20,-7,132
57075897,0.59979248046875,-0.06842041015625,0.724853515625,0.331787109375,-8096,2072,-786,-21,-8,129
57085879,0.5950927734375,-0.05853271484375,0.72442626953125,0.34283447265625,-7943,2312,-730,-21,-8,126
57095861,0.5904541015625,-0.04913330078125,0.72381591796875,0.35345458984375,-7844,2489,-712,-22,-8,121
57105844,0.5859375,-0.04022216796875,0.7230224609375,0.3636474609375,-7754,2605,-700,-22,-8,117
57115828,0.58135986328125,-0.03143310546875,0.7220458984375,0.37359619140625,-7679,2721,-696,-23,-9,117
57125809,0.57666015625,-0.0225830078125,0.720947265625,0.383544921875,-7576,2855,-687,-22,-8,119
57135791,0.57159423828125,-0.01336669921875,0.71966552734375,0.39373779296875,-7440,3014,-657,-23,-8,123
57145778,0.56622314453125,-0.00360107421875,0.71826171875,0.40423583984375,-7304,3169,-618,-23,-9,129
57155763,0.5604248046875,0.00665283203125,0.71661376953125,0.41497802734375,-7143,3322,-568,-23,-9,134
57165746,0.55438232421875,0.01715087890625,0.7147216796875,0.42584228515625,-6963,3491,-505,-22,-9,136
57175727,0.54827880859375,0.02764892578125,0.712646484375,0.4366455078125,-6797,3650,-440,-22,-10,135
57185703,0.54217529296875,0.03790283203125,0.71038818359375,0.447021484375,-6638,3814,-378,-22,-9,131
57195689,0.53631591796875,0.04754638671875,0.7080078125,0.45684814453125,-6479,3949,-326,-22,-10,124
57205670,0.53076171875,0.056640625,0.70550537109375,0.466064453125,-6307,4082,-264,-21,-10,117
57215653,0.5255126953125,0.065185546875,0.702880859375,0.47479248046875,-6159,4211,-219,-21,-11,111
57225637,0.52056884765625,0.07330322265625,0.70013427734375,0.48297119140625,-6011,4320,-184,-21,-11,105
57235617,0.515869140625,0.08111572265625,0.6973876953125,0.49078369140625,-5840,4441,-156,-20,-12,102
57245600,0.51123046875,0.0887451171875,0.69451904296875,0.498291015625,-5672,4562,-104,-20,-13,100
57255583,0.50665283203125,0.096435546875,0.6915283203125,0.50567626953125,-5490,4689,-37,-19,-13,98
57265566,0.502197265625,0.10400390625,0.6883544921875,0.51287841796875,-5298,4832,48,-19,-14,97
57275547,0.497802734375,0.111572265625,0.68505859375,0.51995849609375,-5118,4969,132,-19,-15,95
57285536,0.49346923828125,0.11895751953125,0.681640625,0.52685546875,-4941,5093,202,-19,-15,93
57295513,0.4892578125,0.126220703125,0.67816162109375,0.5335693359375,-4764,5197,262,-19,-16,91
57305493,0.48516845703125,0.13330078125,0.674560546875,0.5400390625,-4604,5303,322,-19,-17,89
57315475,0.48126220703125,0.14019775390625,0.6708984375,0.54632568359375,-4448,5364,357,-19,-18,87
57325458,0.47747802734375,0.14697265625,0.667236328125,0.55230712890625,-4302,5421,388,-18,-18,84
57335443,0.4737548828125,0.1536865234375,0.66351318359375,0.55816650390625,-4172,5459,393,-18,-18,83
57345431,0.47003173828125,0.16033935546875,0.6597900390625,0.5638427734375,-4029,5486,416,-18,-19,83
57355414,0.4661865234375,0.167236328125,0.6558837890625,0.56951904296875,-3867,5555,440,-17,-19,85
57365395,0.46221923828125,0.17431640625,0.65191650390625,0.5751953125,-3712,5639,474,-17,-20,86
57375372,0.45806884765625,0.18145751953125,0.6478271484375,0.58087158203125,-3550,5735,535,-17,-20,87
57385353,0.453857421875,0.1885986328125,0.6436767578125,0.58648681640625,-3365,5846,592,-17,-20,87
57395335,0.44964599609375,0.19580078125,0.639404296875,0.59210205078125,-3175,5955,647,-17,-20,86
57405317,0.4453125,0.202880859375,0.635009765625,0.59765625,-2972,6063,706,-17,-20,86
57415300,0.4410400390625,0.20989990234375,0.630615234375,0.60302734375,-2774,6148,760,-17,-20,84
57425287,0.43682861328125,0.21673583984375,0.626220703125,0.60821533203125,-2573,6223,788,-17,-19,82
57435266,0.43280029296875,0.2232666015625,0.62188720703125,0.6131591796875,-2394,6252,819,-17,-19,78
57445250,0.42889404296875,0.22967529296875,0.61761474609375,0.617919921875,-2210,6270,840,-16,-19,76
57455237,0.42498779296875,0.23590087890625,0.6134033203125,0.62237548828125,-2021,6287,869,-15,-19,74
57465219,0.421142578125,0.2420654296875,0.609130859375,0.62677001953125,-1814,6294,920,-14,-19,73
57475201,0.41717529296875,0.2481689453125,0.60498046875,0.631103515625,-1607,6329,974,-14,-18,73
57485181,0.4130859375,0.25421142578125,0.600830078125,0.63531494140625,-1399,6388,1037,-13,-17,72
57495172,0.4090576171875,0.2601318359375,0.59674072265625,0.639404296875,-1177,6467,1115,-12,-16,70
57505154,0.405029296875,0.26580810546875,0.59271240234375,0.643310546875,-970,6547,1203,-12,-15,67
57515123,0.4012451171875,0.2711181640625,0.5888671875,0.64697265625,-766,6608,1261,-11,-14,63
57525105,0.3975830078125,0.2760009765625,0.5853271484375,0.650390625,-574,6635,1322,-10,-12,58
57535089,0.39404296875,0.28045654296875,0.58197021484375,0.65362548828125,-368,6650,1383,-9,-10,54
57545072,0.390625,0.28460693359375,0.57891845703125,0.6566162109375,-176,6656,1423,-8,-8,50
57555053,0.38714599609375,0.28857421875,0.57611083984375,0.659423828125,14,6687,1454,-6,-6,49
57565033,0.38348388671875,0.2923583984375,0.573486328125,0.66217041015625,180,6711,1470,-5,-5,48
57575014,0.3798828125,0.29583740234375,0.57122802734375,0.6646728515625,333,6732,1469,-4,-2,44
57585002,0.376220703125,0.29901123046875,0.5692138671875,0.66705322265625,476,6764,1478,-2,0,41
57594986,0.37261962890625,0.3017578125,0.567626953125,0.669189453125,617,6800,1482,-1,2,38
57604970,0.369140625,0.30413818359375,0.5662841796875,0.671142578125,771,6829,1514,1,5,33
57614944,0.36572265625,0.30609130859375,0.56524658203125,0.6729736328125,904,6859,1553,2,7,29
57624927,0.3624267578125,0.30767822265625,0.5645751953125,0.6746826171875,1040,6889,1605,3,10,26
57634909,0.35906982421875,0.3089599609375,0.5640869140625,0.67620849609375,1121,6907,1632,4,12,24
57644892,0.35565185546875,0.31011962890625,0.5638427734375,0.677734375,1179,6913,1654,5,13,24
57654874,0.35205078125,0.31121826171875,0.5635986328125,0.6793212890625,1214,6942,1689,6,14,26
57664858,0.3482666015625,0.31256103515625,0.563232421875,0.680908203125,1241,6978,1737,6,14,29
57674840,0.34423828125,0.31402587890625,0.5628662109375,0.68255615234375,1280,7039,1771,7,13,30
57684822,0.34051513671875,0.3155517578125,0.5625,0.68408203125,1287,7092,1810,7,11,28
57694804,0.33740234375,0.3167724609375,0.56231689453125,0.68524169921875,1302,7137,1880,8,9,21
57704787,0.33526611328125,0.3175048828125,0.56231689453125,0.6859130859375,1312,7207,1932,7,7,10
57714765,0.334228515625,0.3175048828125,0.56280517578125,0.68597412109375,1358,7278,1943,7,6,-3
57724750,0.33428955078125,0.3167724609375,0.56365966796875,0.68560791015625,1413,7327,1922,7,5,-15
57734733,0.335205078125,0.31536865234375,0.56488037109375,0.684814453125,1473,7350,1887,6,5,-24
57744707,0.336669921875,0.31341552734375,0.56634521484375,0.68377685546875,1520,7347,1832,6,6,-30
57754690,0.33837890625,0.31109619140625,0.56805419921875,0.6826171875,1530,7307,1773,5,7,-35
57764673,0.34033203125,0.30841064453125,0.56988525390625,0.6812744140625,1493,7249,1719,5,8,-38
57774655,0.34246826171875,0.30535888671875,0.572021484375,0.6798095703125,1418,7180,1649,6,9,-41
57784637,0.34478759765625,0.30194091796875,0.5743408203125,0.67822265625,1303,7110,1586,6,11,-44
57794621,0.34722900390625,0.29833984375,0.5767822265625,0.676513671875,1196,7040,1524,7,12,-46
57804602,0.34942626953125,0.294677734375,0.579345703125,0.67474365234375,1084,6983,1463,8,13,-44
57814585,0.351318359375,0.291259765625,0.58184814453125,0.673095703125,982,6940,1400,8,13,-40
57824565,0.35284423828125,0.2880859375,0.58428955078125,0.67156982421875,897,6911,1332,8,14,-36
57834547,0.35406494140625,0.28509521484375,0.5865478515625,0.67022705078125,816,6883,1283,8,14,-34
57844530,0.3553466796875,0.2821044921875,0.5888671875,0.6688232421875,727,6844,1232,7,14,-35
57854512,0.35693359375,0.27880859375,0.59124755859375,0.667236328125,621,6790,1191,8,14,-40
57864495,0.359130859375,0.2750244140625,0.5938720703125,0.665283203125,478,6742,1163,7,13,-47
57874479,0.362060546875,0.2706298828125,0.5966796875,0.6629638671875,338,6684,1125,7,12,-55
57884463,0.36572265625,0.26568603515625,0.5997314453125,0.66021728515625,198,6581,1100,7,12,-63
57894447,0.36993408203125,0.26025390625,0.6029052734375,0.6571044921875,57,6466,1076,7,10,-69
57904426,0.37457275390625,0.254638671875,0.60614013671875,0.65374755859375,-80,6353,1054,7,9,-73
57914417,0.3795166015625,0.248779296875,0.609375,0.65008544921875,-212,6262,1021,8,8,-76
57924399,0.38470458984375,0.242919921875,0.61260986328125,0.646240234375,-332,6169,972,8,7,-78
57934374,0.39013671875,0.23687744140625,0.6158447265625,0.64208984375,-474,6095,935,8,6,-81
57944357,0.39593505859375,0.23065185546875,0.619140625,0.63763427734375,-639,6026,892,9,4,-85
57954344,0.40216064453125,0.22412109375,0.62255859375,0.6326904296875,-834,5943,833,9,4,-90
57964322,0.408935546875,0.217041015625,0.62615966796875,0.62725830078125,-1065,5839,782,10,3,-97
57974305,0.41632080078125,0.20947265625,0.62982177734375,0.621337890625,-1292,5739,740,10,2,-104
57984288,0.424072265625,0.20147705078125,0.633544921875,0.61492919921875,-1495,5650,721,11,2,-109
57994268,0.43212890625,0.19317626953125,0.63720703125,0.608154296875,-1693,5599,705,11,0,-113
58004252,0.44036865234375,0.1846923828125,0.64080810546875,0.60107421875,-1883,5577,702,12,0,-117
58014233,0.44873046875,0.1759033203125,0.644287109375,0.5936279296875,-2066,5590,704,12,0,-119
58024224,0.4571533203125,0.16705322265625,0.647705078125,0.5860595703125,-2241,5620,723,12,0,-121
58034204,0.465576171875,0.157958984375,0.6510009765625,0.5782470703125,-2438,5679,740,12,1,-122
58044185,0.47393798828125,0.148681640625,0.6541748046875,0.57025146484375,-2699,5723,750,11,1,-124
58054175,0.482421875,0.1390380859375,0.65728759765625,0.56195068359375,-2960,5765,769,11,1,-127
58064157,0.490966796875,0.12896728515625,0.66021728515625,0.553466796875,-3239,5806,783,10,2,-131
58074134,0.49969482421875,0.1185302734375,0.6629638671875,0.544677734375,-3522,5801,795,9,2,-133
58084109,0.50836181640625,0.1077880859375,0.66552734375,0.53570556640625,-3806,5740,788,8,2,-136
58094092,0.5169677734375,0.0966796875,0.66790771484375,0.5264892578125,-4141,5647,731,7,3,-136
58104074,0.52532958984375,0.08551025390625,0.67022705078125,0.51715087890625,-4503,5530,668,6,4,-135
58114056,0.53338623046875,0.0743408203125,0.67236328125,0.5078125,-4879,5417,591,6,4,-132
58124045,0.541015625,0.0633544921875,0.6741943359375,0.4986572265625,-5192,5306,563,4,4,-128
58134022,0.54815673828125,0.05291748046875,0.6756591796875,0.489990234375,-5451,5229,524,3,4,-120
58144004,0.5546875,0.04302978515625,0.6767578125,0.4820556640625,-5678,5115,484,0,3,-112
58153989,0.560791015625,0.03369140625,0.677490234375,0.474609375,-5828,4953,439,-2,2,-105
58163973,0.56646728515625,0.02471923828125,0.677978515625,0.46771240234375,-5954,4757,379,-4,2,-99
58173950,0.572021484375,0.01580810546875,0.67822265625,0.46087646484375,-6117,4524,309,-5,1,-99
58183931,0.57769775390625,0.0064697265625,0.678466796875,0.45367431640625,-6322,4263,227,-5,2,-104
58193913,0.5836181640625,-0.003662109375,0.67864990234375,0.44580078125,-6588,3973,119,-5,2,-111
58203896,0.58984375,-0.0146484375,0.6788330078125,0.43701171875,-6870,3697,14,-5,3,-121
58213878,0.59637451171875,-0.0264892578125,0.6788330078125,0.42742919921875,-7127,3447,-81,-5,3,-130
58223862,0.60296630859375,-0.03875732421875,0.6787109375,0.4173583984375,-7308,3221,-146,-5,4,-135
58233843,0.60943603515625,-0.05096435546875,0.67828369140625,0.4072265625,-7397,3009,-175,-5,3,-134
58243828,0.6156005859375,-0.062744140625,0.67755126953125,0.39739990234375,-7486,2746,-203,-6,2,-128
58253808,0.621337890625,-0.0743408203125,0.67681884765625,0.3875732421875,-7596,2400,-265,-4,3,-125
58263789,0.6268310546875,-0.0858154296875,0.67608642578125,0.3775634765625,-7730,2023,-327,-3,4,-124
58273778,0.632080078125,-0.097412109375,0.6754150390625,0.3670654296875,-7913,1656,-385,0,7,-127
58283764,0.63720703125,-0.10931396484375,0.6748046875,0.3558349609375,-8076,1352,-435,2,9,-132
58293746,0.64202880859375,-0.1212158203125,0.67425537109375,0.3441162109375,-8240,1157,-451,4,12,-133
58303730,0.64642333984375,-0.13275146484375,0.6737060546875,0.33245849609375,-8384,1055,-416,6,13,-130
58313704,0.65032958984375,-0.1436767578125,0.673095703125,0.32135009765625,-8515,1005,-362,5,14,-124
58323686,0.65362548828125,-0.1539306640625,0.67254638671875,0.31085205078125,-8656,923,-384,5,15,-115
58333669,0.65643310546875,-0.16363525390625,0.672119140625,0.30084228515625,-8772,772,-378,4,16,-109
58343651,0.6588134765625,-0.17303466796875,0.67169189453125,0.29119873046875,-8881,591,-394,4,18,-104
58353632,0.66070556640625,-0.1822509765625,0.6715087890625,0.281494140625,-8990,367,-452,5,21,-103
58363615,0.66229248046875,-0.191650390625,0.67144775390625,0.271484375,-9118,154,-480,6,25,-104
58373601,0.66357421875,-0.20111083984375,0.6715087890625,0.26116943359375,-9268,-40,-491,7,28,-106
58383583,0.66448974609375,-0.21051025390625,0.67169189453125,0.250732421875,-9410,-182,-493,8,31,-106
58393565,0.66510009765625,-0.21978759765625,0.671875,0.24041748046875,-9581,-294,-499,7,32,-104
58403548,0.66552734375,-0.2286376953125,0.67205810546875,0.23040771484375,-9728,-366,-478,7,32,-101
58413528,0.66571044921875,-0.237060546875,0.672119140625,0.220947265625,-9801,-437,-485,6,31,-95
58423511,0.6656494140625,-0.24481201171875,0.6722412109375,0.21209716796875,-9815,-511,-514,6,30,-88
58433493,0.66534423828125,-0.25189208984375,0.6724853515625,0.20391845703125,-9764,-556,-537,6,29,-80
58443475,0.66485595703125,-0.25823974609375,0.67279052734375,0.1964111328125,-9646,-564,-532,6,29,-73
58453457,0.66412353515625,-0.26385498046875,0.67327880859375,0.18963623046875,-9493,-543,-524,6,29,-65
58463443,0.66314697265625,-0.26898193359375,0.6739501953125,0.1834716796875,-9337,-527,-498,5,30,-60
58473427,0.66204833984375,-0.27398681640625,0.674560546875,0.177490234375,-9245,-507,-472,4,30,-60
58483411,0.66107177734375,-0.2794189453125,0.6749267578125,0.1712646484375,-9197,-531,-452,2,29,-67
58493391,0.6602783203125,-0.28570556640625,0.67474365234375,0.1644287109375,-9213,-617,-460,1,28,-77
58503369,0.65972900390625,-0.2930908203125,0.67401123046875,0.1566162109375,-9343,-822,-526,0,27,-91
58513351,0.65948486328125,-0.30181884765625,0.67242431640625,0.14752197265625,-9534,-1141,-615,0,25,-106
58523332,0.65948486328125,-0.3115234375,0.670166015625,0.13739013671875,-9705,-1505,-718,1,24,-116
58533314,0.65960693359375,-0.321533203125,0.6673583984375,0.12677001953125,-9820,-1852,-820,1,22,-120
58543300,0.65966796875,-0.3311767578125,0.66448974609375,0.11627197265625,-9848,-2148,-888,2,21,-116
58553287,0.65966796875,-0.33990478515625,0.6617431640625,0.10650634765625,-9825,-2364,-913,3,19,-106
58563265,0.65948486328125,-0.347412109375,0.6593017578125,0.09808349609375,-9753,-2498,-917,2,18,-91
58573250,0.65911865234375,-0.3536376953125,0.6573486328125,0.0909423828125,-9675,-2590,-893,2,17,-76
58583233,0.65869140625,-0.3587646484375,0.65582275390625,0.08514404296875,-9623,-2654,-851,0,15,-63
58593216,0.658203125,-0.3631591796875,0.654541015625,0.080322265625,-9627,-2741,-848,-1,14,-55
58603200,0.6575927734375,-0.3671875,0.65338134765625,0.07598876953125,-9687,-2871,-885,-2,13,-51
58613185,0.656982421875,-0.37115478515625,0.65216064453125,0.0718994140625,-9746,-2996,-924,-3,12,-51
58623168,0.65643310546875,-0.37530517578125,0.65081787109375,0.06781005859375,-9783,-3125,-981,-3,11,-52
58633149,0.656005859375,-0.37957763671875,0.64923095703125,0.06365966796875,-9805,-3226,-1036,-4,9,-54
58643121,0.655517578125,-0.3839111328125,0.64752197265625,0.0594482421875,-9765,-3300,-1080,-4,9,-55
58653104,0.6551513671875,-0.38818359375,0.645751953125,0.05535888671875,-9690,-3321,-1077,-4,8,-54
58663086,0.65478515625,-0.39227294921875,0.64398193359375,0.051513671875,-9591,-3306,-1055,-4,7,-52
58673067,0.6544189453125,-0.39599609375,0.64227294921875,0.04815673828125,-9442,-3284,-1026,-5,6,-47
58683048,0.654052734375,-0.39935302734375,0.64080810546875,0.04534912109375,-9282,-3256,-1010,-6,5,-42
58693032,0.653564453125,-0.40228271484375,0.63958740234375,0.0430908203125,-9111,-3219,-988,-7,5,-35
58703014,0.65313720703125,-0.40478515625,0.63861083984375,0.04156494140625,-8962,-3187,-954,-8,4,-28
58712994,0.65264892578125,-0.40692138671875,0.6378173828125,0.04052734375,-8826,-3160,-932,-9,3,-24
58722984,0.65216064453125,-0.40887451171875,0.63702392578125,0.03985595703125,-8699,-3143,-895,-10,2,-22
58732960,0.65179443359375,-0.41082763671875,0.63623046875,0.039306640625,-8563,-3141,-855,-10,1,-22
58742940,0.6514892578125,-0.4129638671875,0.63519287109375,0.0386962890625,-8440,-3150,-822,-11,1,-24
58752922,0.65118408203125,-0.41534423828125,0.634033203125,0.0379638671875,-8318,-3179,-810,-11,0,-26
58762905,0.65093994140625,-0.41796875,0.632568359375,0.0369873046875,-8173,-3225,-799,-11,-1,-29
58772885,0.65081787109375,-0.4207763671875,0.63092041015625,0.03582763671875,-8018,-3291,-795,-11,-2,-31
58782872,0.6507568359375,-0.42364501953125,0.62908935546875,0.0345458984375,-7865,-3359,-801,-10,-3,-32
58792850,0.6507568359375,-0.426513671875,0.62725830078125,0.0333251953125,-7710,-3453,-808,-10,-4,-31
58802832,0.65093994140625,-0.42919921875,0.62530517578125,0.0322265625,-7563,-3536,-832,-10,-6,-29
58812814,0.651123046875,-0.431640625,0.6234130859375,0.03131103515625,-7451,-3632,-874,-9,-7,-26
58822796,0.65142822265625,-0.43402099609375,0.62152099609375,0.0303955078125,-7380,-3724,-924,-8,-8,-26
58832778,0.65179443359375,-0.43634033203125,0.6195068359375,0.0294189453125,-7339,-3838,-975,-7,-8,-27
58842766,0.65228271484375,-0.43890380859375,0.6173095703125,0.028076171875,-7325,-3976,-1028,-6,-9,-31
58852750,0.65289306640625,-0.4417724609375,0.61474609375,0.0262451171875,-7319,-4121,-1073,-5,-10,-36
58862732,0.65350341796875,-0.4449462890625,0.61181640625,0.02392578125,-7293,-4251,-1108,-4,-10,-42
58872707,0.65423583984375,-0.44830322265625,0.608642578125,0.021240234375,-7265,-4366,-1143,-3,-11,-45
58882690,0.65509033203125,-0.45172119140625,0.6053466796875,0.018310546875,-7214,-4497,-1172,-1,-11,-46
58892676,0.6558837890625,-0.455078125,0.60198974609375,0.01531982421875,-7108,-4680,-1230,0,-11,-46
58902656,0.65667724609375,-0.45831298828125,0.5987548828125,0.01202392578125,-7070,-4817,-1262,1,-9,-45
58912640,0.6573486328125,-0.4613037109375,0.59576416015625,0.0086669921875,-7055,-4960,-1285,3,-8,-44
58922622,0.6580810546875,-0.464111328125,0.59283447265625,0.0052490234375,-7040,-5105,-1288,5,-6,-43
58932606,0.65869140625,-0.4666748046875,0.59014892578125,0.001708984375,-7038,-5240,-1276,6,-4,-41
58942587,0.65924072265625,-0.4688720703125,0.5877685546875,-0.00189208984375,-7015,-5342,-1256,7,-2,-38
58952575,0.65966796875,-0.470703125,0.5858154296875,-0.00531005859375,-6964,-5411,-1225,8,0,-34
58962554,0.6600341796875,-0.47198486328125,0.5843505859375,-0.00848388671875,-6899,-5427,-1178,9,3,-28
58972538,0.6602783203125,-0.4727783203125,0.5833740234375,-0.0113525390625,-6821,-5408,-1142,10,5,-22
58982517,0.660400390625,-0.4730224609375,0.58294677734375,-0.0137939453125,-6763,-5347,-1090,11,7,-16
58992500,0.660400390625,-0.47283935546875,0.58306884765625,-0.0159912109375,-6712,-5266,-1015,11,10,-11
59002481,0.66021728515625,-0.472412109375,0.58355712890625,-0.01800537109375,-6681,-5190,-969,10,12,-8
59012464,0.659912109375,-0.47174072265625,0.58441162109375,-0.01971435546875,-6693,-5134,-933,10,14,-5
59022443,0.65948486328125,-0.47088623046875,0.5855712890625,-0.02117919921875,-6699,-5093,-921,9,14,-1
59032427,0.65899658203125,-0.4697265625,0.58697509765625,-0.0223388671875,-6703,-5073,-912,8,15,3
59042417,0.658447265625,-0.4683837890625,0.58868408203125,-0.02301025390625,-6692,-5052,-911,7,15,8
59052401,0.6578369140625,-0.4666748046875,0.59063720703125,-0.023193359375,-6685,-5009,-927,6,15,13
59062383,0.6572265625,-0.46484375,0.5927734375,-0.02301025390625,-6685,-4990,-945,5,14,16
59072357,0.6566162109375,-0.462890625,0.594970703125,-0.02264404296875,-6683,-4995,-973,5,13,18
59082344,0.65606689453125,-0.46099853515625,0.59710693359375,-0.02203369140625,-6679,-4987,-1011,5,12,18
59092325,0.65557861328125,-0.4591064453125,0.59906005859375,-0.02142333984375,-6691,-4994,-1044,4,11,17
59102307,0.6551513671875,-0.45745849609375,0.600830078125,-0.0208740234375,-6692,-5013,-1091,4,9,15
59112289,0.6549072265625,-0.45599365234375,0.602294921875,-0.0203857421875,-6713,-5028,-1140,4,7,13
59122272,0.65472412109375,-0.45477294921875,0.6033935546875,-0.0201416015625,-6724,-5053,-1165,4,5,9
59132254,0.6546630859375,-0.45379638671875,0.60418701171875,-0.02008056640625,-6718,-5061,-1195,5,3,6
59142234,0.65472412109375,-0.45306396484375,0.6046142578125,-0.02020263671875,-6713,-5070,-1225,5,2,2
59152228,0.6549072265625,-0.45263671875,0.604736328125,-0.0206298828125,-6684,-5070,-1242,5,0,-2
59162203,0.65521240234375,-0.452392578125,0.60455322265625,-0.02130126953125,-6644,-5077,-1241,5,-1,-4
59172181,0.6556396484375,-0.4522705078125,0.60418701171875,-0.02203369140625,-6588,-5071,-1247,5,-2,-6
59182173,0.6561279296875,-0.4522705078125,0.6036376953125,-0.0228271484375,-6517,-5056,-1239,6,-3,-7
59192156,0.6566162109375,-0.45220947265625,0.60308837890625,-0.02362060546875,-6447,-5030,-1233,6,-4,-7
59202125,0.65716552734375,-0.45220947265625,0.6025390625,-0.02435302734375,-6376,-4988,-1216,6,-4,-7
59212108,0.65771484375,-0.4521484375,0.60186767578125,-0.02508544921875,-6318,-4959,-1191,6,-4,-7
59222089,0.658203125,-0.45220947265625,0.60125732421875,-0.0260009765625,-6275,-4953,-1183,6,-3,-8
59232071,0.65863037109375,-0.45233154296875,0.60064697265625,-0.02703857421875,-6267,-4975,-1158,6,-2,-10
59242055,0.6590576171875,-0.45263671875,0.5999755859375,-0.02825927734375,-6283,-5017,-1145,6,-1,-11
59252045,0.65936279296875,-0.45281982421875,0.599365234375,-0.02960205078125,-6300,-5077,-1125,7,0,-11
59262021,0.65966796875,-0.452880859375,0.59893798828125,-0.0308837890625,-6322,-5117,-1107,7,1,-8
59272002,0.65997314453125,-0.45257568359375,0.5987548828125,-0.03192138671875,-6324,-5133,-1070,7,1,-5
59281989,0.6602783203125,-0.45196533203125,0.598876953125,-0.03271484375,-6328,-5108,-1040,8,2,-1
59291978,0.66058349609375,-0.4510498046875,0.5992431640625,-0.03314208984375,-6328,-5073,-997,7,3,3
59301952,0.66082763671875,-0.449951171875,0.59979248046875,-0.0333251953125,-6326,-5022,-959,7,3,6
59311936,0.6610107421875,-0.44873046875,0.6004638671875,-0.03338623046875,-6334,-4983,-924,7,4,7
59321915,0.6611328125,-0.44757080078125,0.60125732421875,-0.033447265625,-6334,-4955,-919,6,4,7
59331899,0.6611328125,-0.4464111328125,0.60198974609375,-0.03350830078125,-6354,-4926,-913,5,5,6
59341881,0.6611328125,-0.4454345703125,0.602783203125,-0.0335693359375,-6346,-4923,-926,5,5,6
59351863,0.66107177734375,-0.4444580078125,0.603515625,-0.03369140625,-6345,-4921,-934,5,5,5
59361845,0.66107177734375,-0.4434814453125,0.604248046875,-0.0338134765625,-6367,-4934,-953,5,4,6
59371829,0.6610107421875,-0.44256591796875,0.60504150390625,-0.0338134765625,-6378,-4953,-976,5,4,6
59381811,0.66094970703125,-0.44158935546875,0.60577392578125,-0.0338134765625,-6395,-4971,-995,5,4,7
59391792,0.6610107421875,-0.4405517578125,0.6064453125,-0.03369140625,-6402,-4973,-1014,4,3,7
59401778,0.6610107421875,-0.439697265625,0.6070556640625,-0.03363037109375,-6397,-4963,-1050,4,2,6
59411766,0.66107177734375,-0.4388427734375,0.60760498046875,-0.0335693359375,-6389,-4943,-1057,4,2,5
59421748,0.66119384765625,-0.43817138671875,0.60797119140625,-0.03369140625,-6378,-4935,-1068,4,1,3
59431732,0.66131591796875,-0.43768310546875,0.60821533203125,-0.03399658203125,-6375,-4945,-1086,4,1,0
59441712,0.66143798828125,-0.4373779296875,0.6082763671875,-0.03448486328125,-6384,-4957,-1102,4,1,-2
59451688,0.6614990234375,-0.437255859375,0.60821533203125,-0.03515625,-6378,-4969,-1113,4,1,-4
59461670,0.66168212890625,-0.43719482421875,0.6080322265625,-0.03594970703125,-6368,-4991,-1117,5,0,-5
