subject,Dean Black
arm,left
label,1
hz,100.17649569743963
time,4.971226

timestamp_us,q0,q1,q2,q3,ax,ay,az,gx,gy,gz
21289447,0.62164306640625,-0.39752197265625,-0.59747314453125,0.3138427734375,3849,-7072,-274,-1,-1,2
21299425,0.6214599609375,-0.397705078125,-0.59747314453125,0.31402587890625,3845,-7065,-268,-1,-2,1
21309415,0.62127685546875,-0.3978271484375,-0.5975341796875,0.31414794921875,3849,-7059,-262,-1,-2,0
21319400,0.62103271484375,-0.3978271484375,-0.59771728515625,0.31427001953125,3850,-7078,-266,-1,-3,-1
21329373,0.62078857421875,-0.39776611328125,-0.59796142578125,0.3143310546875,3848,-7086,-275,-1,-3,-1
21339354,0.62054443359375,-0.397705078125,-0.59820556640625,0.314453125,3856,-7096,-285,-1,-4,-1
21349344,0.62030029296875,-0.3975830078125,-0.5985107421875,0.3145751953125,3877,-7104,-294,-1,-4,-1
21359324,0.62005615234375,-0.39739990234375,-0.59881591796875,0.314697265625,3892,-7115,-295,0,-4,-2
21369304,0.61981201171875,-0.39715576171875,-0.59912109375,0.31488037109375,3899,-7115,-308,0,-5,-2
21379287,0.61956787109375,-0.3968505859375,-0.5994873046875,0.31500244140625,3915,-7113,-306,0,-5,-2
21389269,0.619384765625,-0.396484375,-0.599853515625,0.31512451171875,3937,-7112,-301,0,-5,-2
21399250,0.61920166015625,-0.3961181640625,-0.60028076171875,0.31524658203125,3956,-7114,-297,0,-5,-3
21409238,0.6190185546875,-0.39569091796875,-0.60064697265625,0.31536865234375,3977,-7096,-299,1,-5,-2
21419222,0.6187744140625,-0.39532470703125,-0.60101318359375,0.31561279296875,3982,-7093,-292,1,-5,-2
21429203,0.61859130859375,-0.3948974609375,-0.601318359375,0.31585693359375,3996,-7099,-300,1,-5,-2
21439184,0.618408203125,-0.39459228515625,-0.60162353515625,0.31610107421875,4011,-7099,-314,1,-5,-1
21449181,0.6181640625,-0.39422607421875,-0.6019287109375,0.31646728515625,4025,-7093,-325,2,-5,0
21459160,0.61798095703125,-0.39398193359375,-0.60211181640625,0.31683349609375,4021,-7104,-323,1,-4,0
21469135,0.61773681640625,-0.39373779296875,-0.602294921875,0.31719970703125,4017,-7093,-326,2,-4,0
21479113,0.6175537109375,-0.39349365234375,-0.60247802734375,0.31756591796875,4005,-7058,-323,2,-4,0
21489094,0.61737060546875,-0.39324951171875,-0.6026611328125,0.31793212890625,4013,-7040,-324,1,-4,0
21499076,0.6171875,-0.39300537109375,-0.60284423828125,0.3182373046875,4010,-7026,-326,1,-4,0
21509058,0.616943359375,-0.392822265625,-0.60296630859375,0.31854248046875,4014,-7021,-332,1,-4,0
21519045,0.61676025390625,-0.39263916015625,-0.60321044921875,0.31878662109375,4013,-7018,-335,1,-4,0
21529024,0.6165771484375,-0.39239501953125,-0.6033935546875,0.31903076171875,4026,-7033,-335,1,-4,0
21539006,0.61639404296875,-0.3922119140625,-0.603515625,0.31927490234375,4022,-7017,-339,1,-3,0
21548990,0.61627197265625,-0.39202880859375,-0.603759765625,0.3194580078125,4009,-7003,-341,1,-3,-1
21558974,0.61614990234375,-0.39178466796875,-0.60394287109375,0.319580078125,4015,-6984,-344,1,-3,-1
21568952,0.61602783203125,-0.39154052734375,-0.60418701171875,0.3197021484375,4015,-6976,-349,1,-3,-1
21578934,0.6158447265625,-0.391357421875,-0.6043701171875,0.31982421875,4018,-6978,-353,0,-3,-1
21588922,0.61566162109375,-0.3912353515625,-0.6046142578125,0.3199462890625,4021,-6991,-349,0,-3,0
21598902,0.61541748046875,-0.39117431640625,-0.60479736328125,0.320068359375,4023,-6987,-350,-1,-3,0
21608882,0.615234375,-0.39111328125,-0.60498046875,0.3201904296875,4028,-6992,-362,-1,-3,0
21618872,0.614990234375,-0.3909912109375,-0.605224609375,0.32025146484375,4035,-6992,-365,-1,-3,-1
21628846,0.61480712890625,-0.390869140625,-0.60546875,0.3203125,4031,-7003,-372,-1,-3,-1
21638828,0.6146240234375,-0.3907470703125,-0.60577392578125,0.3203125,4046,-7003,-383,-1,-3,-1
21648809,0.61444091796875,-0.39056396484375,-0.6060791015625,0.32025146484375,4059,-7010,-381,-1,-3,-2
21658792,0.6142578125,-0.39044189453125,-0.60638427734375,0.32025146484375,4087,-7021,-391,-1,-3,-2
21668778,0.61407470703125,-0.3902587890625,-0.606689453125,0.32025146484375,4096,-7032,-374,-1,-3,-2
21678762,0.614013671875,-0.3900146484375,-0.60693359375,0.3201904296875,4116,-7057,-379,-1,-3,-2
21688746,0.6138916015625,-0.38983154296875,-0.60723876953125,0.320068359375,4130,-7052,-380,-1,-3,-2
21698730,0.61383056640625,-0.3895263671875,-0.6075439453125,0.3199462890625,4143,-7058,-393,0,-3,-3
21708705,0.61383056640625,-0.38922119140625,-0.60784912109375,0.31976318359375,4160,-7084,-378,-1,-2,-4
21718691,0.6138916015625,-0.38885498046875,-0.608154296875,0.319580078125,4175,-7098,-371,0,-2,-4
21728669,0.61395263671875,-0.38848876953125,-0.60845947265625,0.3193359375,4176,-7096,-368,0,-2,-4
21738652,0.614013671875,-0.3880615234375,-0.60870361328125,0.319091796875,4171,-7092,-362,0,-2,-4
21748633,0.6141357421875,-0.38763427734375,-0.6090087890625,0.31884765625,4178,-7085,-354,0,-2,-5
21758616,0.61431884765625,-0.38720703125,-0.6092529296875,0.31866455078125,4193,-7084,-359,1,-2,-5
21768599,0.61444091796875,-0.38677978515625,-0.6094970703125,0.31842041015625,4188,-7058,-352,1,-1,-5
21778580,0.61468505859375,-0.38629150390625,-0.60968017578125,0.318115234375,4182,-7031,-351,1,-1,-5
21788567,0.61492919921875,-0.3858642578125,-0.60992431640625,0.3177490234375,4186,-6991,-346,0,0,-5
21798547,0.61517333984375,-0.38543701171875,-0.61016845703125,0.31732177734375,4188,-6960,-346,0,0,-6
21808536,0.61541748046875,-0.38507080078125,-0.6103515625,0.31695556640625,4177,-6937,-356,0,0,-5
21818512,0.6156005859375,-0.38470458984375,-0.610595703125,0.31658935546875,4181,-6929,-362,0,0,-5
21828494,0.6158447265625,-0.38446044921875,-0.6107177734375,0.31622314453125,4178,-6925,-360,-1,1,-4
21838476,0.615966796875,-0.38433837890625,-0.61077880859375,0.31591796875,4155,-6923,-372,-1,0,-3
21848457,0.61614990234375,-0.38421630859375,-0.61083984375,0.3155517578125,4138,-6928,-371,-1,1,-3
21858443,0.61627197265625,-0.38409423828125,-0.6109619140625,0.31524658203125,4124,-6923,-390,-1,0,-3
21868429,0.616455078125,-0.38397216796875,-0.611083984375,0.31494140625,4108,-6917,-404,-1,1,-4
21878411,0.6165771484375,-0.38385009765625,-0.6112060546875,0.3145751953125,4088,-6916,-419,-1,1,-4
21888393,0.61676025390625,-0.3836669921875,-0.611328125,0.31414794921875,4095,-6916,-426,-1,1,-4
21898369,0.61688232421875,-0.383544921875,-0.6114501953125,0.313720703125,4091,-6905,-437,-1,1,-5
21908352,0.61700439453125,-0.3834228515625,-0.61163330078125,0.3133544921875,4086,-6910,-434,-1,0,-4
21918334,0.61712646484375,-0.38330078125,-0.61175537109375,0.31298828125,4068,-6914,-439,-2,0,-4
21928316,0.6171875,-0.38323974609375,-0.6119384765625,0.3126220703125,4058,-6933,-446,-1,0,-4
21938299,0.61724853515625,-0.38311767578125,-0.61212158203125,0.31231689453125,4047,-6932,-448,-1,0,-4
21948287,0.61724853515625,-0.38299560546875,-0.6123046875,0.31207275390625,4048,-6945,-447,-1,-1,-4
21958261,0.61724853515625,-0.38287353515625,-0.61248779296875,0.311767578125,4060,-6967,-448,-1,-1,-4
21968250,0.61724853515625,-0.38275146484375,-0.61273193359375,0.3115234375,4079,-7000,-457,-1,-1,-4
21978232,0.61724853515625,-0.382568359375,-0.61297607421875,0.31134033203125,4111,-7009,-471,-1,-1,-4
21988217,0.61724853515625,-0.38232421875,-0.61328125,0.31103515625,4129,-7018,-487,-1,-2,-5
21998202,0.6173095703125,-0.3819580078125,-0.61358642578125,0.31072998046875,4141,-7012,-491,0,-2,-6
22008186,0.61737060546875,-0.3814697265625,-0.614013671875,0.31036376953125,4162,-7006,-486,0,-2,-7
22018168,0.6175537109375,-0.38092041015625,-0.61444091796875,0.3099365234375,4184,-7009,-466,0,-2,-8
22028152,0.61773681640625,-0.3802490234375,-0.6148681640625,0.3094482421875,4224,-7024,-467,0,-2,-8
22038119,0.617919921875,-0.37957763671875,-0.6153564453125,0.3089599609375,4290,-7045,-454,0,-2,-8
22048103,0.6181640625,-0.3787841796875,-0.6158447265625,0.30841064453125,4360,-7065,-436,1,-2,-10
22058084,0.6185302734375,-0.3778076171875,-0.61639404296875,0.307861328125,4448,-7088,-431,1,-2,-10
22068069,0.61895751953125,-0.376708984375,-0.61700439453125,0.30706787109375,4516,-7085,-420,1,-1,-13
22078051,0.61962890625,-0.37530517578125,-0.61773681640625,0.3060302734375,4572,-7050,-425,2,-1,-16
22088033,0.62042236328125,-0.3736572265625,-0.61859130859375,0.30474853515625,4613,-7014,-410,2,-1,-20
22098015,0.621337890625,-0.3717041015625,-0.61956787109375,0.30322265625,4638,-6954,-415,2,-1,-23
22108001,0.62237548828125,-0.36962890625,-0.62060546875,0.30145263671875,4648,-6874,-399,2,0,-25
22117988,0.62353515625,-0.3675537109375,-0.62164306640625,0.29949951171875,4667,-6807,-378,1,1,-26
22127969,0.62469482421875,-0.36541748046875,-0.6226806640625,0.29754638671875,4716,-6761,-367,1,1,-26
22137947,0.62579345703125,-0.3634033203125,-0.6236572265625,0.295654296875,4753,-6714,-360,1,1,-25
22147929,0.62689208984375,-0.3614501953125,-0.62451171875,0.2938232421875,4793,-6668,-347,1,1,-24
22157914,0.6279296875,-0.35968017578125,-0.62530517578125,0.29205322265625,4827,-6615,-341,1,2,-22
22167896,0.62896728515625,-0.3580322265625,-0.62603759765625,0.29034423828125,4871,-6523,-349,1,2,-20
22177877,0.62994384765625,-0.3565673828125,-0.62664794921875,0.2886962890625,4882,-6414,-365,0,3,-19
22187860,0.63092041015625,-0.35516357421875,-0.627197265625,0.2869873046875,4871,-6302,-365,-1,3,-18
22197842,0.6318359375,-0.35400390625,-0.627685546875,0.28546142578125,4853,-6212,-380,-1,4,-16
22207824,0.63262939453125,-0.35302734375,-0.6280517578125,0.283935546875,4838,-6132,-379,-1,4,-14
22217806,0.6334228515625,-0.35235595703125,-0.6282958984375,0.2825927734375,4818,-6091,-373,-2,5,-12
22227788,0.63409423828125,-0.35198974609375,-0.62841796875,0.28131103515625,4801,-6068,-405,-3,6,-9
22237768,0.6346435546875,-0.35186767578125,-0.62835693359375,0.2802734375,4757,-6059,-422,-4,6,-6
22247758,0.63507080078125,-0.35211181640625,-0.628173828125,0.27935791015625,4727,-6059,-428,-4,6,-3
22257745,0.6353759765625,-0.35272216796875,-0.62786865234375,0.27862548828125,4716,-6106,-458,-5,7,0
22267716,0.63555908203125,-0.35369873046875,-0.6273193359375,0.27825927734375,4702,-6168,-478,-5,7,4
22277699,0.63568115234375,-0.35498046875,-0.6265869140625,0.278076171875,4687,-6248,-506,-6,8,7
22287681,0.63568115234375,-0.3565673828125,-0.62567138671875,0.278076171875,4668,-6325,-536,-6,9,10
22297665,0.63555908203125,-0.3583984375,-0.6246337890625,0.27825927734375,4660,-6402,-546,-6,9,13
22307647,0.63543701171875,-0.3603515625,-0.62347412109375,0.27862548828125,4657,-6489,-570,-6,9,15
22317629,0.63525390625,-0.36248779296875,-0.62225341796875,0.279052734375,4647,-6567,-584,-6,10,16
22327612,0.63507080078125,-0.3646240234375,-0.6209716796875,0.27947998046875,4625,-6645,-597,-6,10,16
22337595,0.63494873046875,-0.36669921875,-0.6197509765625,0.27978515625,4614,-6724,-606,-6,10,14
22347575,0.6348876953125,-0.36859130859375,-0.61859130859375,0.27996826171875,4606,-6789,-594,-6,10,12
22357559,0.63494873046875,-0.37030029296875,-0.6175537109375,0.27996826171875,4606,-6838,-574,-6,10,9
22367541,0.6351318359375,-0.37176513671875,-0.6165771484375,0.2796630859375,4601,-6853,-553,-6,10,6
22377522,0.63543701171875,-0.37286376953125,-0.61590576171875,0.27911376953125,4618,-6861,-517,-7,9,2
22387505,0.63580322265625,-0.373779296875,-0.61529541015625,0.2783203125,4656,-6883,-496,-6,9,0
22397489,0.63623046875,-0.3743896484375,-0.61492919921875,0.27728271484375,4719,-6891,-460,-6,8,-3
22407469,0.63677978515625,-0.374755859375,-0.61468505859375,0.27606201171875,4779,-6911,-426,-6,8,-6
22417451,0.63739013671875,-0.37481689453125,-0.61468505859375,0.2745361328125,4857,-6932,-394,-6,7,-10
22427430,0.63818359375,-0.37451171875,-0.6148681640625,0.272705078125,4952,-6959,-371,-6,7,-15
22437423,0.63916015625,-0.373779296875,-0.6153564453125,0.2705078125,5027,-6960,-329,-6,7,-20
22447405,0.64031982421875,-0.37255859375,-0.61602783203125,0.26788330078125,5077,-6923,-281,-6,7,-26
22457386,0.6417236328125,-0.370849609375,-0.61688232421875,0.26483154296875,5136,-6871,-236,-5,7,-31
22467365,0.64324951171875,-0.36883544921875,-0.617919921875,0.26141357421875,5200,-6839,-208,-5,7,-35
22477348,0.6448974609375,-0.3665771484375,-0.61907958984375,0.2578125,5290,-6815,-192,-5,7,-37
22487332,0.64654541015625,-0.36431884765625,-0.62017822265625,0.2542724609375,5400,-6798,-204,-4,7,-36
22497313,0.6480712890625,-0.36212158203125,-0.6212158203125,0.25091552734375,5511,-6775,-230,-3,7,-34
22507295,0.6495361328125,-0.36004638671875,-0.62213134765625,0.247802734375,5609,-6752,-250,-2,7,-31
22517277,0.6510009765625,-0.35809326171875,-0.6229248046875,0.24493408203125,5681,-6707,-275,-2,7,-29
22527260,0.65234375,-0.35614013671875,-0.6236572265625,0.2421875,5720,-6634,-287,-1,7,-28
22537240,0.65374755859375,-0.354248046875,-0.62432861328125,0.23956298828125,5722,-6534,-281,-1,7,-28
22547234,0.6551513671875,-0.3521728515625,-0.625,0.2369384765625,5732,-6430,-280,0,7,-29
22557216,0.6566162109375,-0.3499755859375,-0.62567138671875,0.2342529296875,5712,-6292,-251,0,7,-30
22567199,0.65814208984375,-0.34765625,-0.62640380859375,0.2314453125,5703,-6169,-234,0,7,-31
22577186,0.65966796875,-0.34539794921875,-0.6270751953125,0.2286376953125,5706,-6099,-201,0,7,-31
22587169,0.6611328125,-0.3431396484375,-0.62774658203125,0.22589111328125,5735,-6074,-203,0,7,-30
22597150,0.66253662109375,-0.341064453125,-0.62835693359375,0.22332763671875,5766,-6068,-206,1,7,-28
22607121,0.663818359375,-0.3392333984375,-0.6287841796875,0.2210693359375,5853,-6147,-225,1,6,-25
22617105,0.6649169921875,-0.337646484375,-0.629150390625,0.2191162109375,5989,-6288,-273,1,6,-21
22627086,0.665771484375,-0.33636474609375,-0.6295166015625,0.217529296875,6124,-6413,-335,1,5,-17
22637069,0.66650390625,-0.335205078125,-0.62982177734375,0.2161865234375,6244,-6490,-373,1,3,-15
22647050,0.6671142578125,-0.333984375,-0.63031005859375,0.21478271484375,6324,-6543,-403,1,2,-17
22657033,0.667724609375,-0.3323974609375,-0.631103515625,0.21307373046875,6404,-6612,-411,0,1,-23
22667015,0.66839599609375,-0.33026123046875,-0.63226318359375,0.21075439453125,6491,-6641,-414,-1,0,-31
22676997,0.669189453125,-0.327392578125,-0.63397216796875,0.20751953125,6578,-6656,-407,-2,-2,-42
22686983,0.670166015625,-0.3236083984375,-0.63629150390625,0.20318603515625,6652,-6650,-406,-3,-2,-55
22696961,0.67132568359375,-0.31884765625,-0.63922119140625,0.19769287109375,6757,-6602,-409,-4,-3,-69
22706943,0.6727294921875,-0.3128662109375,-0.64276123046875,0.1907958984375,6884,-6487,-408,-5,-4,-84
22716925,0.67431640625,-0.3057861328125,-0.64691162109375,0.1826171875,7051,-6337,-410,-7,-5,-98
22726908,0.676025390625,-0.297607421875,-0.65155029296875,0.173095703125,7251,-6188,-411,-8,-5,-112
22736889,0.677734375,-0.2884521484375,-0.65655517578125,0.1624755859375,7447,-6038,-413,-9,-6,-125
22746873,0.679443359375,-0.2784423828125,-0.66180419921875,0.15093994140625,7675,-5900,-414,-10,-7,-134
22756855,0.6810302734375,-0.26788330078125,-0.66717529296875,0.13873291015625,7936,-5773,-430,-10,-7,-140
22766837,0.682373046875,-0.25701904296875,-0.672607421875,0.1260986328125,8208,-5635,-454,-12,-8,-144
22776818,0.68353271484375,-0.245849609375,-0.6778564453125,0.1134033203125,8465,-5483,-492,-11,-8,-145
22786802,0.684326171875,-0.234619140625,-0.6829833984375,0.1007080078125,8660,-5293,-536,-10,-9,-145
22796784,0.68487548828125,-0.22332763671875,-0.68792724609375,0.088134765625,8830,-5096,-583,-10,-9,-144
22806763,0.685302734375,-0.21197509765625,-0.692626953125,0.07574462890625,8975,-4866,-605,-9,-10,-143
22816755,0.6854248046875,-0.2005615234375,-0.69708251953125,0.0635986328125,9110,-4640,-624,-7,-10,-142
22826737,0.6854248046875,-0.189208984375,-0.70123291015625,0.05169677734375,9219,-4389,-628,-6,-10,-140
22836715,0.685302734375,-0.17779541015625,-0.705078125,0.0400390625,9313,-4132,-632,-5,-9,-138
22846697,0.68505859375,-0.16632080078125,-0.70867919921875,0.02862548828125,9395,-3865,-645,-3,-9,-138
22856679,0.6846923828125,-0.1546630859375,-0.7120361328125,0.01727294921875,9457,-3601,-643,-2,-8,-138
22866663,0.6842041015625,-0.142822265625,-0.715087890625,0.00604248046875,9497,-3319,-651,-1,-8,-139
22876648,0.6837158203125,-0.13067626953125,-0.71795654296875,-0.0052490234375,9540,-3029,-641,1,-7,-141
22886629,0.68310546875,-0.1181640625,-0.72052001953125,-0.0166015625,9570,-2718,-635,2,-6,-143
22896611,0.682373046875,-0.1053466796875,-0.72283935546875,-0.028076171875,9575,-2407,-615,3,-5,-146
22906591,0.68157958984375,-0.09222412109375,-0.724853515625,-0.03973388671875,9590,-2068,-604,4,-3,-148
22916574,0.68060302734375,-0.07891845703125,-0.7265625,-0.051513671875,9603,-1723,-585,4,-2,-149
22926557,0.6795654296875,-0.0654296875,-0.7279052734375,-0.06341552734375,9598,-1372,-582,4,-1,-150
22936546,0.67840576171875,-0.05181884765625,-0.72900390625,-0.075439453125,9575,-1011,-577,3,0,-152
22946525,0.67706298828125,-0.03802490234375,-0.729736328125,-0.087646484375,9523,-635,-554,3,1,-154
22956506,0.675537109375,-0.0240478515625,-0.7301025390625,-0.10015869140625,9428,-251,-531,2,2,-156
22966489,0.673828125,-0.00994873046875,-0.73016357421875,-0.1129150390625,9291,141,-516,0,3,-158
22976472,0.671875,0.00433349609375,-0.7298583984375,-0.12603759765625,9133,533,-501,-1,4,-161
22986452,0.6697998046875,0.0185546875,-0.7291259765625,-0.1395263671875,8980,925,-454,-3,4,-163
22996432,0.66741943359375,0.03271484375,-0.72802734375,-0.1531982421875,8816,1313,-411,-6,5,-163
23006422,0.6649169921875,0.04656982421875,-0.72650146484375,-0.16705322265625,8640,1675,-365,-9,6,-162
23016406,0.66229248046875,0.05987548828125,-0.724609375,-0.180908203125,8500,2018,-350,-12,6,-158
23026387,0.65948486328125,0.07257080078125,-0.72247314453125,-0.1944580078125,8375,2324,-338,-15,6,-153
23036364,0.65667724609375,0.0843505859375,-0.7200927734375,-0.20770263671875,8267,2597,-346,-17,7,-146
23046346,0.6539306640625,0.09527587890625,-0.71746826171875,-0.22039794921875,8182,2821,-364,-20,7,-140
23056329,0.651123046875,0.10552978515625,-0.71466064453125,-0.23272705078125,8097,3011,-380,-22,7,-135
23066313,0.64837646484375,0.115234375,-0.71160888671875,-0.24481201171875,8006,3185,-393,-23,8,-132
23076296,0.64556884765625,0.124755859375,-0.70831298828125,-0.25689697265625,7911,3347,-409,-25,9,-132
23086287,0.642578125,0.13421630859375,-0.70477294921875,-0.26898193359375,7811,3497,-414,-26,10,-134
23096263,0.6395263671875,0.143798828125,-0.70086669921875,-0.28125,7698,3628,-430,-26,11,-136
23106250,0.63623046875,0.153564453125,-0.69671630859375,-0.29364013671875,7555,3760,-452,-27,12,-139
23116235,0.63275146484375,0.16351318359375,-0.6922607421875,-0.30609130859375,7417,3896,-470,-27,12,-140
23126216,0.629150390625,0.17327880859375,-0.68756103515625,-0.31842041015625,7271,4015,-471,-28,13,-140
23136200,0.62554931640625,0.18280029296875,-0.6827392578125,-0.330322265625,7200,4118,-472,-27,13,-136
23146189,0.6219482421875,0.19195556640625,-0.677978515625,-0.34161376953125,7163,4222,-479,-26,13,-132
23156171,0.618408203125,0.20074462890625,-0.67315673828125,-0.35235595703125,7126,4340,-476,-24,14,-128
23166154,0.61474609375,0.2095947265625,-0.668212890625,-0.36285400390625,7043,4501,-456,-23,14,-129
23176125,0.61077880859375,0.21881103515625,-0.6629638671875,-0.37359619140625,6914,4675,-445,-23,15,-134
23186107,0.60626220703125,0.2286376953125,-0.65740966796875,-0.38470458984375,6704,4867,-413,-22,15,-141
23196088,0.601318359375,0.239013671875,-0.6513671875,-0.39630126953125,6447,5047,-356,-23,15,-149
23206074,0.5958251953125,0.25,-0.64483642578125,-0.4083251953125,6108,5212,-297,-23,16,-155
23216056,0.58984375,0.26129150390625,-0.6378173828125,-0.42071533203125,5702,5347,-228,-23,16,-160
23226037,0.58349609375,0.2725830078125,-0.6304931640625,-0.4332275390625,5231,5459,-142,-24,15,-160
23236021,0.57708740234375,0.2835693359375,-0.623046875,-0.44537353515625,4796,5532,-55,-24,14,-155
23246003,0.5709228515625,0.29364013671875,-0.61578369140625,-0.456787109375,4465,5583,4,-24,13,-144
23255989,0.56536865234375,0.3023681640625,-0.60906982421875,-0.46685791015625,4221,5592,39,-23,12,-128
23265974,0.56048583984375,0.30987548828125,-0.60296630859375,-0.4757080078125,4030,5635,78,-22,11,-113
23275950,0.55615234375,0.31640625,-0.5972900390625,-0.48358154296875,3859,5701,117,-21,10,-102
23285934,0.55206298828125,0.32244873046875,-0.591796875,-0.49090576171875,3665,5774,181,-20,10,-97
23295914,0.5479736328125,0.32843017578125,-0.5863037109375,-0.49810791015625,3428,5836,257,-20,10,-97
23305896,0.5435791015625,0.33465576171875,-0.58062744140625,-0.50537109375,3169,5875,325,-19,10,-100
23315879,0.5389404296875,0.34100341796875,-0.5748291015625,-0.5126953125,2953,5867,405,-18,10,-101
23325861,0.5343017578125,0.34722900390625,-0.56903076171875,-0.519775390625,2748,5828,460,-17,10,-99
23335844,0.52996826171875,0.35308837890625,-0.5635986328125,-0.52618408203125,2594,5782,479,-15,10,-90
23345828,0.526123046875,0.35833740234375,-0.55865478515625,-0.53167724609375,2495,5744,492,-13,11,-80
23355809,0.52294921875,0.363037109375,-0.55426025390625,-0.5362548828125,2434,5752,524,-11,12,-71
23365793,0.52008056640625,0.3675537109375,-0.550048828125,-0.54022216796875,2349,5808,558,-9,13,-67
23375778,0.5172119140625,0.37225341796875,-0.54583740234375,-0.5440673828125,2244,5889,600,-8,14,-68
23385763,0.51397705078125,0.37744140625,-0.54132080078125,-0.54803466796875,2106,5959,641,-6,16,-74
23395745,0.51019287109375,0.38330078125,-0.53643798828125,-0.55230712890625,1891,6041,689,-5,17,-81
23405728,0.50567626953125,0.389892578125,-0.53106689453125,-0.5570068359375,1633,6130,731,-4,18,-90
23415704,0.5006103515625,0.39703369140625,-0.5252685546875,-0.56201171875,1354,6233,781,-3,18,-96
23425688,0.49517822265625,0.404296875,-0.51922607421875,-0.56719970703125,1120,6339,833,-2,17,-98
23435665,0.48980712890625,0.411376953125,-0.51336669921875,-0.5721435546875,920,6448,904,-2,17,-95
23445649,0.48455810546875,0.4180908203125,-0.50762939453125,-0.57684326171875,697,6590,970,-2,15,-90
23455631,0.47943115234375,0.42437744140625,-0.5020751953125,-0.581298828125,466,6743,1041,-2,15,-87
23465614,0.474365234375,0.43035888671875,-0.49658203125,-0.58575439453125,221,6882,1114,-3,13,-85
23475597,0.46929931640625,0.4361572265625,-0.4910888671875,-0.59027099609375,-31,6984,1179,-4,12,-84
23485579,0.46405029296875,0.44171142578125,-0.4854736328125,-0.5948486328125,-259,7043,1247,-5,10,-84
23495562,0.45867919921875,0.447021484375,-0.4798583984375,-0.59954833984375,-516,7080,1318,-5,8,-84
23505543,0.45318603515625,0.4521484375,-0.4742431640625,-0.6043701171875,-745,7100,1377,-6,6,-84
23515526,0.44757080078125,0.45703125,-0.46875,-0.609130859375,-962,7100,1419,-6,4,-83
23525508,0.44183349609375,0.46160888671875,-0.46337890625,-0.614013671875,-1163,7095,1463,-5,1,-83
23535491,0.43585205078125,0.466064453125,-0.45806884765625,-0.618896484375,-1377,7111,1486,-5,-1,-83
23545467,0.4296875,0.47027587890625,-0.452880859375,-0.623779296875,-1588,7114,1510,-5,-3,-83
23555452,0.42315673828125,0.47430419921875,-0.44775390625,-0.62890625,-1769,7117,1552,-4,-6,-85
23565430,0.41632080078125,0.47821044921875,-0.44256591796875,-0.6341552734375,-1957,7113,1570,-4,-9,-86
23575423,0.40924072265625,0.48193359375,-0.43743896484375,-0.63946533203125,-2148,7120,1598,-4,-11,-86
23585405,0.40216064453125,0.48529052734375,-0.43267822265625,-0.6446533203125,-2307,7091,1612,-3,-13,-82
23595383,0.39532470703125,0.4881591796875,-0.4283447265625,-0.6495361328125,-2430,7054,1615,-2,-15,-76
23605359,0.38885498046875,0.490478515625,-0.42462158203125,-0.65411376953125,-2536,6994,1604,-1,-17,-69
23615346,0.38287353515625,0.4923095703125,-0.421630859375,-0.658203125,-2610,6949,1567,1,-19,-60
23625328,0.3773193359375,0.49365234375,-0.4193115234375,-0.66192626953125,-2674,6895,1526,2,-20,-53
23635309,0.3720703125,0.49462890625,-0.41754150390625,-0.665283203125,-2729,6831,1477,4,-22,-47
23645291,0.366943359375,0.49542236328125,-0.41607666015625,-0.66845703125,-2780,6764,1413,5,-22,-45
23655275,0.3616943359375,0.49615478515625,-0.41473388671875,-0.6715087890625,-2813,6723,1362,6,-23,-45
23665258,0.3563232421875,0.49700927734375,-0.4134521484375,-0.67462158203125,-2756,6707,1361,6,-23,-47
23675238,0.351318359375,0.49786376953125,-0.41217041015625,-0.6773681640625,-2556,6671,1461,7,-18,-45
23685226,0.3475341796875,0.49859619140625,-0.41107177734375,-0.679443359375,-2292,6626,1622,7,-10,-35
23695216,0.345458984375,0.4993896484375,-0.4102783203125,-0.68035888671875,-2131,6593,1691,6,0,-22
23705190,0.34478759765625,0.50042724609375,-0.40972900390625,-0.6802978515625,-2148,6612,1656,4,8,-11
23715181,0.34466552734375,0.50189208984375,-0.40911865234375,-0.67962646484375,-2298,6649,1553,3,13,-8
23725168,0.34454345703125,0.50372314453125,-0.4080810546875,-0.67901611328125,-2522,6693,1436,1,15,-11
23735139,0.34405517578125,0.505859375,-0.4066162109375,-0.6785888671875,-2724,6733,1360,0,15,-16
23745117,0.3431396484375,0.50811767578125,-0.40478515625,-0.67840576171875,-2882,6750,1276,0,15,-20
23755099,0.3419189453125,0.51043701171875,-0.40283203125,-0.67840576171875,-3022,6761,1219,0,13,-23
23765082,0.34027099609375,0.5128173828125,-0.40069580078125,-0.6787109375,-3139,6779,1151,0,11,-27
23775064,0.33819580078125,0.51519775390625,-0.3985595703125,-0.67919921875,-3251,6813,1095,1,9,-30
23785048,0.335693359375,0.51751708984375,-0.39642333984375,-0.679931640625,-3353,6857,1051,1,6,-33
23795030,0.3328857421875,0.519775390625,-0.39434814453125,-0.68084716796875,-3446,6907,1006,3,4,-34
23805012,0.32989501953125,0.52178955078125,-0.3924560546875,-0.681884765625,-3548,6969,976,3,1,-34
23814997,0.32666015625,0.523681640625,-0.3907470703125,-0.68292236328125,-3662,7034,972,5,-1,-34
23824980,0.323486328125,0.5252685546875,-0.38934326171875,-0.68402099609375,-3739,7097,978,6,-3,-31
23834957,0.3204345703125,0.526611328125,-0.3883056640625,-0.68499755859375,-3777,7140,987,6,-5,-28
23844940,0.31768798828125,0.5277099609375,-0.38751220703125,-0.68585205078125,-3793,7164,1000,7,-5,-24
23854921,0.31536865234375,0.52862548828125,-0.38720703125,-0.68646240234375,-3781,7185,1013,8,-5,-18
23864903,0.31365966796875,0.529296875,-0.38720703125,-0.6866455078125,-3755,7218,1036,8,-2,-13
23874892,0.31256103515625,0.52996826171875,-0.3875732421875,-0.6865234375,-3730,7230,1043,8,0,-7
23884872,0.31201171875,0.530517578125,-0.3880615234375,-0.68603515625,-3752,7239,1038,7,2,-2
23894851,0.31182861328125,0.53118896484375,-0.38861083984375,-0.68524169921875,-3779,7239,1020,7,5,1
23904831,0.3118896484375,0.53179931640625,-0.38916015625,-0.6844482421875,-3813,7252,1006,6,5,2
23914815,0.3118896484375,0.532470703125,-0.3895263671875,-0.6837158203125,-3879,7288,986,5,5,0
23924797,0.31158447265625,0.53326416015625,-0.38958740234375,-0.6832275390625,-3973,7325,966,4,4,-5
23934781,0.310791015625,0.53411865234375,-0.38916015625,-0.68316650390625,-4054,7385,961,2,3,-11
23944762,0.3094482421875,0.53509521484375,-0.38824462890625,-0.68353271484375,-4115,7408,944,1,1,-17
23954753,0.3076171875,0.53607177734375,-0.38702392578125,-0.68426513671875,-4147,7428,913,0,-2,-22
23964737,0.3056640625,0.53692626953125,-0.3856201171875,-0.68524169921875,-4154,7419,908,-2,-4,-23
23974711,0.3038330078125,0.53759765625,-0.38433837890625,-0.686279296875,-4142,7392,892,-2,-5,-21
23984690,0.30242919921875,0.53790283203125,-0.38336181640625,-0.68719482421875,-4122,7351,882,-3,-6,-15
23994673,0.3016357421875,0.53778076171875,-0.3828125,-0.68798828125,-4105,7326,893,-4,-6,-8
24004651,0.301513671875,0.53729248046875,-0.3826904296875,-0.68841552734375,-4083,7315,918,-4,-5,-1
24014636,0.3021240234375,0.5364990234375,-0.38299560546875,-0.68865966796875,-4068,7306,936,-5,-5,7
24027989,0.30316162109375,0.53546142578125,-0.38360595703125,-0.68865966796875,-4079,7300,959,-5,-4,12
24034600,0.304443359375,0.53436279296875,-0.38427734375,-0.68853759765625,-4093,7277,980,-6,-4,14
24044580,0.3057861328125,0.533203125,-0.38494873046875,-0.6884765625,-4107,7246,987,-5,-4,13
24054564,0.3067626953125,0.53216552734375,-0.385498046875,-0.68853759765625,-4113,7182,986,-5,-5,10
24064548,0.3074951171875,0.53125,-0.38592529296875,-0.688720703125,-4105,7119,993,-5,-6,7
24074529,0.3077392578125,0.53045654296875,-0.3861083984375,-0.6890869140625,-4095,7065,996,-4,-7,3
24084515,0.30755615234375,0.52984619140625,-0.3861083984375,-0.689697265625,-4075,7023,1013,-3,-8,-2
24094493,0.30712890625,0.52923583984375,-0.3861083984375,-0.6903076171875,-4042,6991,1040,-2,-8,-3
24104475,0.306640625,0.52862548828125,-0.38623046875,-0.69091796875,-4005,6976,1072,-1,-8,-2
24114468,0.3062744140625,0.52789306640625,-0.38653564453125,-0.69146728515625,-3982,6985,1107,0,-9,0
24124443,0.30609130859375,0.527099609375,-0.3870849609375,-0.69189453125,-3958,6987,1151,1,-9,3
24134431,0.30615234375,0.526123046875,-0.38787841796875,-0.69207763671875,-3929,6990,1173,2,-8,6
24144413,0.30633544921875,0.525146484375,-0.38897705078125,-0.692138671875,-3906,6995,1185,2,-8,8
24154395,0.3065185546875,0.52410888671875,-0.39019775390625,-0.69219970703125,-3904,7000,1196,3,-9,9
24164373,0.30657958984375,0.523193359375,-0.391357421875,-0.69219970703125,-3902,7018,1191,4,-8,7
24174355,0.306396484375,0.52239990234375,-0.39239501953125,-0.6922607421875,-3892,7040,1207,4,-8,4
24184337,0.3060302734375,0.52178955078125,-0.39324951171875,-0.69244384765625,-3859,7065,1220,4,-8,2
24194318,0.30560302734375,0.52105712890625,-0.39410400390625,-0.692626953125,-3826,7088,1239,4,-9,2
24204301,0.30535888671875,0.52032470703125,-0.3951416015625,-0.6927490234375,-3785,7103,1240,5,-9,4
24214287,0.30535888671875,0.51934814453125,-0.39642333984375,-0.6927490234375,-3753,7130,1241,4,-9,9
24224267,0.3057861328125,0.51806640625,-0.3980712890625,-0.69256591796875,-3716,7148,1227,4,-9,14
24234250,0.30657958984375,0.5166015625,-0.39996337890625,-0.69219970703125,-3696,7172,1232,5,-9,18
24244238,0.30755615234375,0.5150146484375,-0.4019775390625,-0.6917724609375,-3656,7210,1218,4,-10,19
24254220,0.30841064453125,0.5135498046875,-0.40399169921875,-0.69140625,-3645,7261,1206,4,-9,17
24264202,0.30889892578125,0.51220703125,-0.4056396484375,-0.691162109375,-3618,7330,1186,4,-10,12
24274182,0.30889892578125,0.5111083984375,-0.40692138671875,-0.69122314453125,-3583,7380,1178,4,-9,6
24284173,0.30853271484375,0.51031494140625,-0.4078369140625,-0.69140625,-3535,7434,1180,3,-9,0
24294155,0.307861328125,0.50970458984375,-0.40838623046875,-0.6917724609375,-3485,7475,1174,2,-9,-3
24304125,0.30718994140625,0.50921630859375,-0.408935546875,-0.692138671875,-3428,7490,1173,3,-8,-3
24314107,0.30670166015625,0.50860595703125,-0.40960693359375,-0.6925048828125,-3379,7507,1195,2,-8,-1
24324093,0.30657958984375,0.50787353515625,-0.41033935546875,-0.692626953125,-3353,7532,1206,2,-7,3
24334071,0.30682373046875,0.50701904296875,-0.41131591796875,-0.69256591796875,-3311,7556,1226,2,-6,6
24344055,0.30731201171875,0.50604248046875,-0.41241455078125,-0.6923828125,-3279,7591,1236,2,-6,9
24354038,0.30804443359375,0.50506591796875,-0.41357421875,-0.69207763671875,-3231,7602,1258,2,-5,10
24364021,0.30877685546875,0.50408935546875,-0.4146728515625,-0.69183349609375,-3201,7605,1255,1,-5,9
24374003,0.309326171875,0.5032958984375,-0.41552734375,-0.691650390625,-3169,7614,1261,1,-4,6
24383989,0.3095703125,0.5028076171875,-0.41607666015625,-0.6915283203125,-3130,7616,1261,0,-3,2
24393979,0.3095703125,0.50262451171875,-0.416259765625,-0.69158935546875,-3105,7598,1265,0,-2,-3
24403951,0.30926513671875,0.50262451171875,-0.41619873046875,-0.69171142578125,-3066,7577,1271,0,-1,-6
24413934,0.30889892578125,0.50286865234375,-0.41595458984375,-0.69189453125,-3056,7553,1275,0,0,-7
24423914,0.30859375,0.50323486328125,-0.41571044921875,-0.69189453125,-3048,7534,1277,0,2,-7
24433899,0.3084716796875,0.5035400390625,-0.41546630859375,-0.69183349609375,-3072,7524,1297,0,3,-5
24443882,0.30853271484375,0.50390625,-0.415283203125,-0.69171142578125,-3115,7521,1285,0,3,-4
24453863,0.30859375,0.50433349609375,-0.4151611328125,-0.69146728515625,-3183,7524,1284,0,4,-3
24463847,0.30865478515625,0.5047607421875,-0.4149169921875,-0.69122314453125,-3249,7523,1287,0,4,-3
24473829,0.3087158203125,0.5052490234375,-0.41473388671875,-0.69091796875,-3300,7511,1270,1,4,-3
24483811,0.30877685546875,0.5057373046875,-0.41461181640625,-0.69061279296875,-3362,7501,1244,1,4,-2
24493793,0.30889892578125,0.5062255859375,-0.41448974609375,-0.69036865234375,-3431,7485,1241,0,4,-1
24503780,0.30914306640625,0.50653076171875,-0.41448974609375,-0.69000244140625,-3493,7479,1225,1,3,1
24513766,0.3095703125,0.506591796875,-0.41461181640625,-0.68963623046875,-3547,7454,1226,0,3,4
24523747,0.31011962890625,0.506591796875,-0.4149169921875,-0.68927001953125,-3606,7437,1235,0,2,6
24533729,0.31072998046875,0.50640869140625,-0.41522216796875,-0.68890380859375,-3657,7399,1235,0,1,6
24543706,0.31134033203125,0.50616455078125,-0.41558837890625,-0.6885986328125,-3691,7349,1241,-1,0,7
24553686,0.3118896484375,0.505859375,-0.41583251953125,-0.68841552734375,-3728,7294,1250,-1,0,6
24563670,0.3123779296875,0.50555419921875,-0.41607666015625,-0.688232421875,-3736,7227,1259,-1,-1,6
24573647,0.31292724609375,0.50518798828125,-0.4163818359375,-0.6881103515625,-3733,7160,1246,-1,-1,7
24583631,0.3135986328125,0.504638671875,-0.41680908203125,-0.68798828125,-3741,7063,1255,-1,-2,9
24593613,0.314453125,0.50396728515625,-0.4173583984375,-0.687744140625,-3740,6965,1257,-1,-2,12
24603595,0.31549072265625,0.50299072265625,-0.41815185546875,-0.6875,-3730,6839,1252,-1,-3,16
24613577,0.31689453125,0.50177001953125,-0.419189453125,-0.68707275390625,-3720,6722,1260,-1,-4,20
24623561,0.318603515625,0.5003662109375,-0.42059326171875,-0.68646240234375,-3719,6624,1264,-1,-4,25
24633544,0.3206787109375,0.49859619140625,-0.42218017578125,-0.685791015625,-3722,6542,1287,-1,-5,30
24643528,0.322998046875,0.49664306640625,-0.42413330078125,-0.6849365234375,-3714,6492,1317,0,-5,33
24653509,0.3255615234375,0.4945068359375,-0.42626953125,-0.6839599609375,-3695,6456,1330,0,-5,36
24663492,0.3282470703125,0.4921875,-0.4285888671875,-0.682861328125,-3675,6419,1345,0,-6,39
24673474,0.33099365234375,0.48980712890625,-0.4310302734375,-0.6817626953125,-3649,6399,1351,1,-6,39
24683457,0.33380126953125,0.48724365234375,-0.43359375,-0.68060302734375,-3583,6337,1345,1,-7,42
24693443,0.3367919921875,0.484619140625,-0.43634033203125,-0.67919921875,-3498,6273,1330,2,-7,44
24703431,0.34002685546875,0.4818115234375,-0.4393310546875,-0.67767333984375,-3402,6231,1322,2,-7,48
24713415,0.34356689453125,0.478759765625,-0.442626953125,-0.67596435546875,-3311,6190,1330,3,-7,52
24723395,0.34747314453125,0.47540283203125,-0.4461669921875,-0.6739501953125,-3212,6176,1355,3,-7,57
24733371,0.351806640625,0.47174072265625,-0.4500732421875,-0.67169189453125,-3099,6171,1369,4,-7,62
24743354,0.35650634765625,0.46783447265625,-0.45428466796875,-0.6690673828125,-2983,6155,1396,5,-6,68
24753337,0.3616943359375,0.46368408203125,-0.4588623046875,-0.66607666015625,-2856,6122,1403,6,-6,74
24763319,0.36724853515625,0.459228515625,-0.46380615234375,-0.66265869140625,-2708,6061,1376,7,-5,79
24773303,0.37310791015625,0.45465087890625,-0.4691162109375,-0.6588134765625,-2537,5961,1344,9,-4,83
24783287,0.37921142578125,0.449951171875,-0.474609375,-0.6546630859375,-2356,5862,1314,10,-3,86
24793266,0.38525390625,0.44525146484375,-0.4801025390625,-0.6502685546875,-2198,5806,1305,11,-3,86
24803250,0.39129638671875,0.440673828125,-0.48553466796875,-0.645751953125,-2032,5760,1281,11,-1,86
24813239,0.39727783203125,0.4361572265625,-0.49090576171875,-0.64105224609375,-1849,5733,1259,12,-1,85
24823225,0.40338134765625,0.43170166015625,-0.49627685546875,-0.6361083984375,-1641,5719,1229,13,1,87
24833205,0.4097900390625,0.42706298828125,-0.50177001953125,-0.63079833984375,-1390,5706,1205,13,2,90
24843185,0.41650390625,0.42218017578125,-0.5074462890625,-0.6251220703125,-1102,5699,1171,14,3,94
24853175,0.423583984375,0.4171142578125,-0.51324462890625,-0.6190185546875,-775,5695,1116,14,5,96
24863158,0.4306640625,0.41192626953125,-0.51904296875,-0.6126708984375,-441,5686,1070,14,6,96
24873134,0.43768310546875,0.4068603515625,-0.52471923828125,-0.60626220703125,-127,5703,1012,14,6,94
24883111,0.44451904296875,0.40191650390625,-0.53009033203125,-0.599853515625,127,5735,940,14,7,91
24893095,0.45111083984375,0.397216796875,-0.53521728515625,-0.59344482421875,326,5799,873,14,8,89
24903076,0.45758056640625,0.3927001953125,-0.5401611328125,-0.5870361328125,501,5877,837,14,9,87
24913058,0.4639892578125,0.38818359375,-0.54498291015625,-0.58050537109375,627,5958,797,14,9,88
24923045,0.47039794921875,0.3836669921875,-0.54974365234375,-0.5738525390625,684,6055,763,15,10,90
24933023,0.47686767578125,0.3790283203125,-0.5545654296875,-0.56689453125,747,6163,726,15,10,92
24943006,0.48345947265625,0.37396240234375,-0.5595703125,-0.5596923828125,882,6280,696,15,9,97
24952990,0.4903564453125,0.36834716796875,-0.56494140625,-0.552001953125,1088,6403,670,16,8,104
24962976,0.4976806640625,0.36199951171875,-0.5706787109375,-0.543701171875,1309,6515,608,16,7,113
24972952,0.5054931640625,0.35479736328125,-0.5767822265625,-0.53472900390625,1489,6605,563,16,6,123
24982934,0.5135498046875,0.34698486328125,-0.58319091796875,-0.525146484375,1591,6664,513,16,5,130
24992919,0.521484375,0.33892822265625,-0.58953857421875,-0.515380859375,1658,6675,460,17,4,131
25002901,0.52911376953125,0.3309326171875,-0.59576416015625,-0.505615234375,1722,6672,399,17,3,129
25012886,0.53607177734375,0.32330322265625,-0.60174560546875,-0.49603271484375,1827,6685,342,18,2,123
25022872,0.54241943359375,0.31591796875,-0.607421875,-0.48687744140625,2022,6700,293,18,0,116
25032853,0.54833984375,0.3087158203125,-0.6129150390625,-0.4779052734375,2300,6731,253,17,-1,111
25042829,0.553955078125,0.30133056640625,-0.61834716796875,-0.46905517578125,2622,6767,208,16,-3,111
25052811,0.55963134765625,0.29351806640625,-0.6236572265625,-0.46014404296875,2885,6730,159,14,-3,113
25062795,0.56524658203125,0.285400390625,-0.62890625,-0.45123291015625,3026,6642,120,13,-5,115
25072778,0.570556640625,0.2772216796875,-0.6339111328125,-0.44244384765625,3091,6539,62,12,-6,113
25082767,0.575439453125,0.26910400390625,-0.6387939453125,-0.43402099609375,3144,6429,26,10,-8,110
25092747,0.5799560546875,0.26104736328125,-0.64349365234375,-0.4259033203125,3348,6351,-2,9,-10,106
25102730,0.58428955078125,0.25262451171875,-0.64825439453125,-0.41778564453125,3808,6265,-27,8,-12,107
25112707,0.58892822265625,0.2431640625,-0.6533203125,-0.408935546875,4352,6148,-96,7,-14,117
25122690,0.59405517578125,0.23223876953125,-0.65875244140625,-0.3990478515625,4917,6023,-169,6,-15,131
25132671,0.59979248046875,0.2198486328125,-0.6644287109375,-0.38787841796875,5440,5842,-269,5,-15,146
25142653,0.60595703125,0.20635986328125,-0.67010498046875,-0.37579345703125,5799,5604,-353,5,-14,156
25152635,0.6119384765625,0.19268798828125,-0.67559814453125,-0.36328125,5992,5346,-460,5,-14,158
25162620,0.61737060546875,0.17950439453125,-0.6807861328125,-0.3509521484375,6156,5106,-556,6,-14,151
25172601,0.62200927734375,0.167236328125,-0.685546875,-0.33929443359375,6335,4896,-626,8,-15,138
25182583,0.62579345703125,0.156005859375,-0.69000244140625,-0.32855224609375,6592,4755,-675,8,-17,126
25192565,0.62872314453125,0.14569091796875,-0.6942138671875,-0.318603515625,6883,4647,-719,8,-19,113
25202549,0.6309814453125,0.13616943359375,-0.6982421875,-0.30950927734375,7202,4584,-766,8,-20,104
25212536,0.63287353515625,0.126953125,-0.7020263671875,-0.30096435546875,7523,4512,-815,6,-21,99
25222513,0.634521484375,0.11773681640625,-0.70562744140625,-0.29266357421875,7841,4414,-859,4,-21,98
25232494,0.63623046875,0.10821533203125,-0.70904541015625,-0.28424072265625,8113,4269,-946,3,-21,101
25242477,0.63800048828125,0.0982666015625,-0.71240234375,-0.27532958984375,8298,4101,-1050,3,-20,106
25252460,0.6397705078125,0.08795166015625,-0.71563720703125,-0.26611328125,8445,3950,-1127,3,-20,110
25262446,0.6416015625,0.07745361328125,-0.71868896484375,-0.25665283203125,8609,3862,-1169,3,-19,113
25272425,0.64349365234375,0.0667724609375,-0.721435546875,-0.2470703125,8847,3796,-1129,3,-18,115
25282414,0.6455078125,0.05584716796875,-0.7237548828125,-0.23748779296875,9183,3718,-1071,1,-16,117
25292394,0.64764404296875,0.04443359375,-0.72576904296875,-0.2275390625,9551,3587,-1055,0,-14,122
25302371,0.6500244140625,0.03253173828125,-0.72747802734375,-0.21722412109375,9851,3390,-1061,-1,-12,127
25312354,0.65240478515625,0.020263671875,-0.72900390625,-0.20635986328125,10079,3110,-1100,0,-11,131
25322335,0.65472412109375,0.00799560546875,-0.73016357421875,-0.19525146484375,10195,2818,-1131,2,-10,131
25332318,0.6568603515625,-0.0037841796875,-0.73114013671875,-0.18426513671875,10211,2563,-1144,3,-9,127
25342304,0.65869140625,-0.0145263671875,-0.73193359375,-0.173828125,10159,2382,-1126,5,-8,117
25352287,0.66033935546875,-0.02386474609375,-0.73236083984375,-0.16448974609375,10038,2308,-1024,6,-7,104
25362269,0.6617431640625,-0.03173828125,-0.7325439453125,-0.15643310546875,9912,2286,-881,5,-5,90
25372250,0.66302490234375,-0.038330078125,-0.73248291015625,-0.149658203125,9884,2276,-746,5,-3,76
25382238,0.66424560546875,-0.044189453125,-0.73223876953125,-0.143798828125,9933,2213,-667,3,-2,69
25392218,0.66546630859375,-0.04974365234375,-0.73187255859375,-0.13824462890625,9994,2131,-601,3,-1,66
25402201,0.66668701171875,-0.05548095703125,-0.7313232421875,-0.1326904296875,10030,2034,-547,2,-1,68
25412183,0.66796875,-0.06158447265625,-0.730712890625,-0.12689208984375,10017,1920,-524,1,0,73
25422170,0.6693115234375,-0.06817626953125,-0.72991943359375,-0.12066650390625,9939,1810,-477,1,1,78
25432152,0.6707763671875,-0.07513427734375,-0.72900390625,-0.11419677734375,9768,1723,-431,0,1,83
25442131,0.67218017578125,-0.082275390625,-0.72784423828125,-0.107666015625,9549,1652,-357,-1,2,84
25452105,0.67364501953125,-0.089599609375,-0.72662353515625,-0.1011962890625,9365,1585,-308,-2,3,86
25462086,0.675048828125,-0.09722900390625,-0.72515869140625,-0.0947265625,9260,1479,-270,-4,3,88
25472068,0.67645263671875,-0.105224609375,-0.72357177734375,-0.088134765625,9269,1309,-236,-6,3,92
25482050,0.6778564453125,-0.1138916015625,-0.7218017578125,-0.0810546875,9357,1076,-231,-7,3,97
25492033,0.67919921875,-0.123291015625,-0.71978759765625,-0.07342529296875,9498,783,-257,-8,3,105
25502016,0.68048095703125,-0.1334228515625,-0.71759033203125,-0.065185546875,9650,478,-305,-8,4,112
25511996,0.681640625,-0.14398193359375,-0.71514892578125,-0.05645751953125,9798,144,-349,-8,4,115
25521984,0.68280029296875,-0.1544189453125,-0.7125244140625,-0.04779052734375,9889,-170,-362,-8,5,114
25531968,0.68389892578125,-0.164306640625,-0.70977783203125,-0.03961181640625,9913,-443,-367,-8,7,106
25541945,0.6849365234375,-0.17315673828125,-0.70703125,-0.032470703125,9911,-662,-363,-8,8,95
25551927,0.6859130859375,-0.1807861328125,-0.70440673828125,-0.0263671875,9919,-874,-350,-8,9,81
25561909,0.6868896484375,-0.18731689453125,-0.701904296875,-0.02142333984375,9943,-1094,-337,-8,10,68
25571891,0.68780517578125,-0.19281005859375,-0.6995849609375,-0.01751708984375,9960,-1278,-335,-8,10,57
25581873,0.688720703125,-0.19744873046875,-0.69744873046875,-0.014404296875,9935,-1433,-314,-8,10,47
25591856,0.68963623046875,-0.20135498046875,-0.69549560546875,-0.01202392578125,9862,-1533,-277,-7,10,40
25601838,0.6905517578125,-0.20465087890625,-0.69366455078125,-0.0101318359375,9717,-1589,-236,-7,11,34
25611822,0.6915283203125,-0.20745849609375,-0.69189453125,-0.00885009765625,9539,-1606,-189,-8,11,28
25621803,0.6925048828125,-0.2098388671875,-0.690185546875,-0.00799560546875,9365,-1576,-135,-8,12,24
25631786,0.69354248046875,-0.2120361328125,-0.68853759765625,-0.0074462890625,9182,-1555,-75,-9,12,21
25641764,0.6944580078125,-0.214111328125,-0.6868896484375,-0.00714111328125,9034,-1550,-49,-10,12,20
25651755,0.6954345703125,-0.21636962890625,-0.68524169921875,-0.0067138671875,8936,-1589,-35,-10,12,22
25661738,0.69622802734375,-0.218994140625,-0.68359375,-0.0059814453125,8846,-1654,-29,-10,11,26
25671713,0.6968994140625,-0.22216796875,-0.681884765625,-0.0047607421875,8740,-1737,-33,-11,10,31
25681698,0.69744873046875,-0.22576904296875,-0.68011474609375,-0.00299072265625,8635,-1831,-50,-10,8,37
25691680,0.6978759765625,-0.22979736328125,-0.6783447265625,-0.000732421875,8529,-1928,-61,-10,7,41
25701660,0.69818115234375,-0.23406982421875,-0.67657470703125,0.00189208984375,8410,-2018,-86,-10,6,44
25711643,0.6983642578125,-0.2384033203125,-0.67486572265625,0.004638671875,8295,-2119,-95,-10,5,44
25721629,0.698486328125,-0.2425537109375,-0.6732177734375,0.00726318359375,8190,-2235,-103,-9,4,42
25731609,0.69854736328125,-0.24639892578125,-0.6717529296875,0.009765625,8132,-2361,-112,-9,3,38
25741597,0.698486328125,-0.24993896484375,-0.67047119140625,0.01202392578125,8083,-2508,-132,-8,2,35
25751575,0.6983642578125,-0.25311279296875,-0.66937255859375,0.01416015625,8053,-2676,-155,-7,1,31
25761559,0.69818115234375,-0.255859375,-0.66845703125,0.01617431640625,7997,-2833,-173,-5,0,27
25771542,0.697998046875,-0.25830078125,-0.66766357421875,0.01812744140625,7938,-2972,-176,-4,-1,24
25781520,0.69775390625,-0.26031494140625,-0.6671142578125,0.0198974609375,7845,-3039,-175,-2,-3,21
25791503,0.6973876953125,-0.261962890625,-0.666748046875,0.02154541015625,7715,-3065,-173,-1,-4,18
25801489,0.697021484375,-0.26324462890625,-0.6666259765625,0.02313232421875,7591,-3066,-159,0,-6,16
25811471,0.696533203125,-0.2642822265625,-0.6666259765625,0.024658203125,7477,-3071,-150,1,-7,14
25821454,0.69586181640625,-0.26519775390625,-0.66693115234375,0.0262451171875,7374,-3060,-144,1,-10,13
25831433,0.69512939453125,-0.2659912109375,-0.6673583984375,0.02783203125,7312,-3042,-142,2,-11,12
25841423,0.69415283203125,-0.2666015625,-0.66796875,0.02947998046875,7289,-3039,-132,3,-14,12
25851407,0.69317626953125,-0.26715087890625,-0.668701171875,0.03118896484375,7281,-3047,-135,3,-15,11
25861390,0.69207763671875,-0.267578125,-0.6695556640625,0.032958984375,7308,-3060,-124,4,-16,10
25871365,0.69097900390625,-0.26776123046875,-0.6705322265625,0.0345458984375,7334,-3068,-108,4,-17,9
25881348,0.68988037109375,-0.26776123046875,-0.671630859375,0.03607177734375,7373,-3065,-111,5,-17,7
25891330,0.688720703125,-0.26763916015625,-0.67279052734375,0.03753662109375,7397,-3072,-101,5,-18,5
25901312,0.68756103515625,-0.267333984375,-0.67401123046875,0.03887939453125,7441,-3097,-97,5,-18,4
25911294,0.68646240234375,-0.26690673828125,-0.67523193359375,0.0401611328125,7491,-3127,-110,6,-18,3
25921277,0.68536376953125,-0.26641845703125,-0.676513671875,0.04150390625,7552,-3158,-132,6,-18,3
25931259,0.68426513671875,-0.26580810546875,-0.677734375,0.04278564453125,7633,-3184,-161,7,-17,3
25941238,0.6832275390625,-0.26513671875,-0.678955078125,0.044189453125,7720,-3237,-187,8,-17,2
25951230,0.68231201171875,-0.264404296875,-0.6800537109375,0.04559326171875,7784,-3286,-227,9,-16,3
25961213,0.681396484375,-0.26361083984375,-0.68115234375,0.04705810546875,7841,-3323,-271,10,-15,2
25971199,0.68060302734375,-0.2628173828125,-0.68212890625,0.04852294921875,7876,-3333,-327,10,-15,3
25981184,0.679931640625,-0.26202392578125,-0.68304443359375,0.05010986328125,7897,-3353,-375,11,-14,4
25991168,0.67926025390625,-0.26129150390625,-0.68389892578125,0.0517578125,7917,-3357,-424,11,-13,5
26001151,0.67864990234375,-0.2606201171875,-0.6845703125,0.053466796875,7929,-3380,-466,12,-12,6
26011121,0.67816162109375,-0.260009765625,-0.6851806640625,0.05523681640625,7927,-3394,-494,12,-11,6
26021104,0.677734375,-0.25933837890625,-0.68572998046875,0.0570068359375,7902,-3395,-553,12,-10,6
26031086,0.67730712890625,-0.2586669921875,-0.68621826171875,0.05865478515625,7871,-3377,-597,12,-9,5
26041069,0.677001953125,-0.2579345703125,-0.6866455078125,0.06024169921875,7842,-3361,-642,12,-8,5
26051049,0.6767578125,-0.2572021484375,-0.68707275390625,0.06170654296875,7821,-3345,-685,12,-7,4
26061033,0.676513671875,-0.25640869140625,-0.68743896484375,0.0631103515625,7787,-3324,-708,11,-7,4
26071015,0.6763916015625,-0.2557373046875,-0.687744140625,0.064453125,7767,-3314,-734,10,-6,4
26080998,0.67620849609375,-0.255126953125,-0.68798828125,0.0657958984375,7736,-3304,-757,11,-5,5
26090986,0.67608642578125,-0.25457763671875,-0.68817138671875,0.06707763671875,7713,-3294,-772,10,-5,5
26100970,0.67596435546875,-0.25408935546875,-0.6883544921875,0.068359375,7671,-3288,-776,9,-4,5
26110944,0.6759033203125,-0.25360107421875,-0.6884765625,0.06951904296875,7651,-3280,-783,9,-4,4
26120928,0.6759033203125,-0.2530517578125,-0.6885986328125,0.07049560546875,7628,-3281,-784,8,-3,3
26130909,0.6759033203125,-0.25250244140625,-0.688720703125,0.07135009765625,7611,-3251,-781,8,-3,2
26140893,0.6759033203125,-0.25189208984375,-0.6888427734375,0.07208251953125,7581,-3235,-764,7,-3,2
26150877,0.67596435546875,-0.25146484375,-0.68890380859375,0.0728759765625,7568,-3220,-757,7,-2,3
26160856,0.67596435546875,-0.2510986328125,-0.68890380859375,0.0736083984375,7590,-3213,-741,6,-2,4
26170837,0.676025390625,-0.2508544921875,-0.6888427734375,0.07440185546875,7625,-3217,-738,5,-2,5
26180820,0.67608642578125,-0.2508544921875,-0.688720703125,0.0751953125,7657,-3240,-730,5,-1,6
26190805,0.6761474609375,-0.25079345703125,-0.6885986328125,0.075927734375,7718,-3280,-706,4,-1,5
26200790,0.67626953125,-0.250732421875,-0.68841552734375,0.07647705078125,7766,-3319,-704,4,0,4
26210765,0.676513671875,-0.25042724609375,-0.68829345703125,0.07672119140625,7792,-3360,-687,3,1,0
26220758,0.6768798828125,-0.2498779296875,-0.6881103515625,0.07666015625,7783,-3381,-678,3,2,-4
26230734,0.67724609375,-0.2491455078125,-0.6881103515625,0.076171875,7748,-3371,-675,2,3,-7
26240711,0.677734375,-0.2481689453125,-0.68804931640625,0.07550048828125,7703,-3356,-671,2,3,-9
26250693,0.67822265625,-0.24725341796875,-0.68798828125,0.07470703125,7644,-3329,-666,2,4,-9
26260673,0.67864990234375,-0.24639892578125,-0.68792724609375,0.073974609375,7577,-3294,-648,1,4,-8
