subject,Dean Black
arm,left
label,3
hz,100.17752914030868
time,5.769757

timestamp_us,q0,q1,q2,q3,ax,ay,az,gx,gy,gz
128375492,0.62884521484375,-0.71343994140625,-0.27899169921875,0.133056640625,1304,-7940,-1396,-1,-2,-1
128385474,0.62884521484375,-0.71337890625,-0.2791748046875,0.13311767578125,1298,-7924,-1394,0,-2,-2
128395459,0.62884521484375,-0.71331787109375,-0.27935791015625,0.13311767578125,1295,-7910,-1398,0,-2,-2
128405442,0.6287841796875,-0.7132568359375,-0.27960205078125,0.13311767578125,1300,-7908,-1407,0,-2,-2
128415422,0.6287841796875,-0.71319580078125,-0.27984619140625,0.13311767578125,1306,-7916,-1413,0,-2,-2
128425412,0.62872314453125,-0.713134765625,-0.28009033203125,0.13311767578125,1326,-7918,-1432,0,-2,-2
128435382,0.62872314453125,-0.71307373046875,-0.2802734375,0.1331787109375,1344,-7924,-1437,0,-2,-1
128445366,0.628662109375,-0.7130126953125,-0.2803955078125,0.13323974609375,1347,-7916,-1450,-1,-2,-1
128455348,0.628662109375,-0.71295166015625,-0.28057861328125,0.13323974609375,1350,-7915,-1450,0,-2,-1
128465328,0.628662109375,-0.712890625,-0.28076171875,0.13330078125,1352,-7939,-1452,0,-2,-1
128475311,0.628662109375,-0.71282958984375,-0.2808837890625,0.13330078125,1362,-7979,-1464,0,-2,-1
128485293,0.628662109375,-0.7127685546875,-0.28106689453125,0.13336181640625,1389,-8054,-1490,0,-2,-1
128495288,0.62860107421875,-0.7127685546875,-0.28118896484375,0.1334228515625,1425,-8169,-1523,0,-2,0
128505261,0.62847900390625,-0.71282958984375,-0.28118896484375,0.1336669921875,1469,-8336,-1568,-1,-2,2
128515242,0.6282958984375,-0.71295166015625,-0.2811279296875,0.134033203125,1540,-8556,-1612,-1,-3,3
128525223,0.6280517578125,-0.71307373046875,-0.28118896484375,0.1343994140625,1647,-8798,-1659,-1,-3,3
128535208,0.62786865234375,-0.71307373046875,-0.281494140625,0.134521484375,1768,-9073,-1702,-2,-3,-1
128545189,0.62762451171875,-0.7130126953125,-0.28240966796875,0.134033203125,1930,-9348,-1734,-3,-3,-8
128555171,0.6275634765625,-0.71258544921875,-0.28424072265625,0.1326904296875,2124,-9616,-1777,-4,-3,-19
128565148,0.62762451171875,-0.7117919921875,-0.2872314453125,0.1302490234375,2333,-9874,-1831,-5,-3,-33
128575129,0.62786865234375,-0.71051025390625,-0.29156494140625,0.1265869140625,2556,-10138,-1878,-6,-3,-48
128585114,0.62823486328125,-0.70867919921875,-0.2972412109375,0.12164306640625,2782,-10361,-1936,-7,-3,-63
128595096,0.62872314453125,-0.706298828125,-0.3043212890625,0.11529541015625,3019,-10512,-1989,-8,-2,-80
128605078,0.62933349609375,-0.7032470703125,-0.312744140625,0.10760498046875,3271,-10602,-2054,-8,-2,-97
128615061,0.6300048828125,-0.69952392578125,-0.322509765625,0.09869384765625,3542,-10637,-2100,-9,-2,-112
128625047,0.63067626953125,-0.6951904296875,-0.33343505859375,0.088623046875,3826,-10606,-2136,-9,-1,-126
128635027,0.63128662109375,-0.690185546875,-0.34515380859375,0.07757568359375,4121,-10526,-2153,-10,-1,-136
128645011,0.6317138671875,-0.6846923828125,-0.3575439453125,0.0657958984375,4434,-10415,-2158,-10,-1,-144
128654993,0.6319580078125,-0.6788330078125,-0.37005615234375,0.0537109375,4727,-10297,-2166,-10,-1,-147
128664976,0.632080078125,-0.67266845703125,-0.382568359375,0.04168701171875,5008,-10188,-2181,-10,-1,-147
128674955,0.6319580078125,-0.66632080078125,-0.3946533203125,0.02984619140625,5270,-10047,-2186,-9,-1,-144
128684939,0.63177490234375,-0.65985107421875,-0.4063720703125,0.0184326171875,5508,-9889,-2213,-8,-2,-141
128694921,0.6314697265625,-0.6531982421875,-0.417724609375,0.00726318359375,5733,-9709,-2232,-6,-2,-139
128704905,0.6312255859375,-0.64630126953125,-0.4288330078125,-0.00360107421875,5960,-9494,-2226,-3,-1,-138
128714886,0.6309814453125,-0.6390380859375,-0.439697265625,-0.01434326171875,6164,-9277,-2209,-1,-1,-137
128724876,0.63079833984375,-0.63153076171875,-0.4501953125,-0.02484130859375,6355,-9066,-2177,1,0,-136
128734860,0.63079833984375,-0.62371826171875,-0.4603271484375,-0.03521728515625,6549,-8860,-2114,4,2,-134
128744843,0.630859375,-0.6156005859375,-0.4700927734375,-0.04541015625,6732,-8654,-2033,6,3,-133
128754823,0.63116455078125,-0.60711669921875,-0.47955322265625,-0.05560302734375,6909,-8429,-1955,8,5,-133
128764800,0.63153076171875,-0.5982666015625,-0.48883056640625,-0.06591796875,7063,-8186,-1874,10,8,-135
128774783,0.63201904296875,-0.5888671875,-0.49798583984375,-0.0765380859375,7217,-7923,-1776,12,11,-139
128784765,0.632568359375,-0.578857421875,-0.507080078125,-0.087646484375,7350,-7629,-1683,13,14,-144
128794747,0.63311767578125,-0.56829833984375,-0.51611328125,-0.09930419921875,7469,-7325,-1588,14,17,-149
128804729,0.6336669921875,-0.5572509765625,-0.52496337890625,-0.11138916015625,7574,-7019,-1488,15,21,-152
128814716,0.63421630859375,-0.5457763671875,-0.53350830078125,-0.12384033203125,7679,-6712,-1396,14,24,-155
128824695,0.6346435546875,-0.53399658203125,-0.541748046875,-0.13665771484375,7780,-6398,-1325,13,27,-156
128834679,0.6348876953125,-0.52203369140625,-0.549560546875,-0.14984130859375,7860,-6067,-1250,12,31,-157
128844665,0.63507080078125,-0.50994873046875,-0.55682373046875,-0.1632080078125,7891,-5734,-1198,10,34,-157
128854647,0.635009765625,-0.4979248046875,-0.56365966796875,-0.17669677734375,7863,-5389,-1155,8,36,-156
128864628,0.6346435546875,-0.4859619140625,-0.5699462890625,-0.19036865234375,7828,-5038,-1114,5,38,-155
128874617,0.63409423828125,-0.47418212890625,-0.57574462890625,-0.20404052734375,7778,-4685,-1084,2,40,-152
128884600,0.63323974609375,-0.4627685546875,-0.58099365234375,-0.2176513671875,7710,-4393,-1083,-1,41,-148
128894583,0.63214111328125,-0.451904296875,-0.5855712890625,-0.2308349609375,7637,-4136,-1098,-4,41,-142
128904552,0.63092041015625,-0.44158935546875,-0.589599609375,-0.24365234375,7586,-3908,-1105,-6,41,-136
128914536,0.62939453125,-0.4317626953125,-0.5931396484375,-0.25616455078125,7531,-3693,-1091,-9,40,-132
128924519,0.62762451171875,-0.4222412109375,-0.59637451171875,-0.26861572265625,7461,-3471,-1068,-11,40,-131
128934499,0.62548828125,-0.41259765625,-0.59954833984375,-0.28125,7420,-3233,-1045,-14,39,-134
128944482,0.622802734375,-0.40283203125,-0.60284423828125,-0.2940673828125,7367,-3020,-1036,-15,37,-137
128954463,0.61962890625,-0.39288330078125,-0.606201171875,-0.30712890625,7305,-2822,-1025,-17,36,-142
128964446,0.61590576171875,-0.3826904296875,-0.609619140625,-0.32025146484375,7237,-2653,-1012,-17,34,-144
128974428,0.6119384765625,-0.37261962890625,-0.613037109375,-0.33306884765625,7162,-2533,-1001,-17,32,-143
128984416,0.6077880859375,-0.36273193359375,-0.61627197265625,-0.3453369140625,7097,-2476,-1000,-16,30,-140
128994399,0.6036376953125,-0.35321044921875,-0.61932373046875,-0.3568115234375,7015,-2427,-1023,-14,27,-135
129004377,0.59942626953125,-0.3438720703125,-0.62237548828125,-0.36761474609375,6936,-2345,-1015,-12,25,-132
129014361,0.5950927734375,-0.33447265625,-0.62548828125,-0.3779296875,6846,-2210,-1012,-9,23,-130
129024343,0.590576171875,-0.32476806640625,-0.62872314453125,-0.387939453125,6761,-2052,-973,-7,21,-131
129034326,0.58587646484375,-0.31475830078125,-0.63201904296875,-0.3978271484375,6695,-1892,-893,-4,20,-133
129044308,0.5810546875,-0.3043212890625,-0.6353759765625,-0.40753173828125,6632,-1691,-797,-2,20,-135
129054301,0.57623291015625,-0.29351806640625,-0.63873291015625,-0.4169921875,6561,-1444,-710,1,20,-135
129064272,0.5714111328125,-0.28240966796875,-0.64202880859375,-0.4261474609375,6500,-1193,-621,4,21,-133
129074256,0.5667724609375,-0.27130126953125,-0.6451416015625,-0.434814453125,6411,-944,-543,7,21,-129
129084238,0.56231689453125,-0.2601318359375,-0.6480712890625,-0.44293212890625,6283,-676,-483,9,22,-125
129094221,0.5579833984375,-0.24908447265625,-0.65087890625,-0.4505615234375,6160,-392,-408,11,22,-121
129104207,0.5538330078125,-0.23797607421875,-0.6534423828125,-0.4578857421875,6042,-115,-341,12,23,-119
129114191,0.5496826171875,-0.22686767578125,-0.6558837890625,-0.4649658203125,5925,162,-263,13,23,-117
129124174,0.5455322265625,-0.21551513671875,-0.65814208984375,-0.47198486328125,5800,473,-175,14,24,-117
129134155,0.54144287109375,-0.2041015625,-0.66015625,-0.47894287109375,5685,781,-96,14,26,-116
129144132,0.53729248046875,-0.1925048828125,-0.66192626953125,-0.48590087890625,5567,1119,-28,13,27,-115
129154114,0.53314208984375,-0.180908203125,-0.6634521484375,-0.49285888671875,5446,1496,45,12,28,-114
129164096,0.5289306640625,-0.1693115234375,-0.6646728515625,-0.49981689453125,5320,1868,120,11,29,-113
129174077,0.52471923828125,-0.1578369140625,-0.66552734375,-0.50677490234375,5205,2197,178,9,30,-110
129184061,0.5206298828125,-0.1466064453125,-0.66607666015625,-0.51361083984375,5087,2474,236,7,30,-108
129194044,0.51654052734375,-0.13580322265625,-0.66632080078125,-0.52032470703125,4987,2723,262,4,30,-104
129204024,0.51263427734375,-0.1253662109375,-0.666259765625,-0.52691650390625,4897,2929,295,2,31,-100
129214007,0.50885009765625,-0.11541748046875,-0.66583251953125,-0.5333251953125,4815,3145,321,0,31,-96
129223990,0.50537109375,-0.10595703125,-0.66510009765625,-0.53955078125,4723,3332,352,-2,31,-91
129233969,0.501953125,-0.09686279296875,-0.6640625,-0.545654296875,4604,3528,395,-4,31,-87
129243954,0.49871826171875,-0.088134765625,-0.66278076171875,-0.5516357421875,4506,3739,427,-6,31,-83
129253935,0.49554443359375,-0.079833984375,-0.66131591796875,-0.5574951171875,4414,3957,469,-8,30,-79
129263918,0.4925537109375,-0.0721435546875,-0.65966796875,-0.56304931640625,4307,4153,491,-10,29,-73
129273898,0.4898681640625,-0.06500244140625,-0.657958984375,-0.56829833984375,4215,4325,525,-11,28,-67
129283882,0.48748779296875,-0.05859375,-0.6561279296875,-0.57318115234375,4123,4469,560,-11,26,-60
129293862,0.4852294921875,-0.0528564453125,-0.654296875,-0.57763671875,4038,4596,598,-12,24,-55
129303853,0.48309326171875,-0.0474853515625,-0.652587890625,-0.58184814453125,3985,4729,649,-12,22,-52
129313834,0.48089599609375,-0.04241943359375,-0.65081787109375,-0.58599853515625,3936,4861,712,-12,20,-51
129323817,0.478515625,-0.03741455078125,-0.649169921875,-0.59014892578125,3907,5003,810,-12,18,-51
129333794,0.475830078125,-0.03253173828125,-0.6475830078125,-0.59429931640625,3859,5131,898,-12,16,-53
129343776,0.47296142578125,-0.02764892578125,-0.64605712890625,-0.59844970703125,3800,5264,984,-12,14,-53
129353757,0.469970703125,-0.02288818359375,-0.6446533203125,-0.6025390625,3729,5398,1076,-11,12,-51
129363739,0.4669189453125,-0.01849365234375,-0.6434326171875,-0.60638427734375,3636,5525,1168,-10,9,-49
129373720,0.46392822265625,-0.014404296875,-0.64227294921875,-0.6099853515625,3538,5631,1255,-9,7,-46
129383703,0.4609375,-0.0107421875,-0.64141845703125,-0.61328125,3459,5732,1333,-8,4,-42
129393686,0.4578857421875,-0.00732421875,-0.64068603515625,-0.6163330078125,3401,5797,1414,-7,2,-41
129403664,0.45477294921875,-0.00396728515625,-0.64013671875,-0.6192626953125,3379,5784,1537,-4,1,-41
129413658,0.45184326171875,-0.00054931640625,-0.6397705078125,-0.62176513671875,3389,5651,1697,1,1,-39
129423641,0.4495849609375,0.0028076171875,-0.6396484375,-0.62347412109375,3394,5496,1855,8,3,-34
129433628,0.44818115234375,0.00616455078125,-0.63995361328125,-0.6241455078125,3376,5418,1978,16,6,-24
129443612,0.44775390625,0.00933837890625,-0.64068603515625,-0.62371826171875,3305,5511,2055,22,9,-13
129453597,0.4481201171875,0.01226806640625,-0.64166259765625,-0.62237548828125,3182,5731,2074,26,10,-2
129463577,0.44915771484375,0.01470947265625,-0.642822265625,-0.62042236328125,3038,6022,2047,27,11,7
129473545,0.45068359375,0.01654052734375,-0.64404296875,-0.61798095703125,2882,6308,1988,26,10,17
129483528,0.45263671875,0.0174560546875,-0.645263671875,-0.61517333984375,2727,6550,1924,24,8,26
129493508,0.45501708984375,0.017578125,-0.646484375,-0.61212158203125,2599,6741,1877,22,6,33
129503491,0.45782470703125,0.01678466796875,-0.647705078125,-0.60882568359375,2520,6881,1841,20,3,41
129513475,0.46099853515625,0.0150146484375,-0.64874267578125,-0.6053466796875,2447,6980,1823,17,1,50
129523457,0.46453857421875,0.01239013671875,-0.64971923828125,-0.60162353515625,2400,7027,1808,14,-1,56
129533434,0.46844482421875,0.0089111328125,-0.6505126953125,-0.5977783203125,2374,7044,1808,11,-3,63
129543419,0.47259521484375,0.0047607421875,-0.651123046875,-0.5938720703125,2350,7026,1803,8,-4,68
129553405,0.47686767578125,-6.103515625e-05,-0.65155029296875,-0.59002685546875,2334,6957,1802,4,-6,71
129563381,0.48114013671875,-0.0052490234375,-0.6517333984375,-0.5863037109375,2304,6866,1781,0,-7,73
129573366,0.48553466796875,-0.01080322265625,-0.651611328125,-0.582763671875,2292,6788,1795,-3,-7,75
129583346,0.48992919921875,-0.0167236328125,-0.6512451171875,-0.57928466796875,2288,6718,1788,-6,-7,77
129593330,0.4945068359375,-0.02301025390625,-0.65069580078125,-0.5758056640625,2310,6616,1774,-9,-7,80
129603311,0.49951171875,-0.0299072265625,-0.64990234375,-0.57208251953125,2344,6452,1758,-11,-7,86
129613294,0.50494384765625,-0.03765869140625,-0.64886474609375,-0.5679931640625,2396,6243,1733,-13,-8,94
129623276,0.51092529296875,-0.0462646484375,-0.64764404296875,-0.56341552734375,2449,6004,1679,-15,-8,103
129633258,0.51727294921875,-0.05560302734375,-0.64617919921875,-0.55841064453125,2524,5734,1612,-17,-9,109
129643242,0.52386474609375,-0.06549072265625,-0.64453125,-0.5531005859375,2613,5446,1538,-19,-8,113
129653223,0.53045654296875,-0.07568359375,-0.64263916015625,-0.54766845703125,2710,5168,1442,-21,-8,114
129663207,0.53704833984375,-0.08587646484375,-0.640625,-0.5421142578125,2821,4895,1339,-21,-8,113
129673193,0.5435791015625,-0.09625244140625,-0.638427734375,-0.536376953125,2941,4568,1222,-21,-7,115
129683175,0.55035400390625,-0.10699462890625,-0.6361083984375,-0.5301513671875,3020,4189,1099,-21,-7,120
129693159,0.5574951171875,-0.1182861328125,-0.63360595703125,-0.52325439453125,3094,3789,980,-20,-8,127
129703135,0.56494140625,-0.1302490234375,-0.63104248046875,-0.51544189453125,3193,3379,839,-18,-9,135
129713117,0.57269287109375,-0.142822265625,-0.62841796875,-0.5067138671875,3313,2995,715,-17,-10,142
129723099,0.58038330078125,-0.1556396484375,-0.6256103515625,-0.49755859375,3488,2640,615,-16,-11,144
129733081,0.5880126953125,-0.16845703125,-0.6226806640625,-0.488037109375,3725,2261,526,-15,-10,143
129743063,0.59552001953125,-0.18133544921875,-0.61962890625,-0.4781494140625,4012,1826,430,-14,-10,144
129753046,0.60321044921875,-0.1944580078125,-0.61627197265625,-0.467529296875,4345,1332,371,-12,-10,149
129763028,0.611328125,-0.20819091796875,-0.612548828125,-0.455810546875,4663,789,307,-9,-9,158
129773010,0.62005615234375,-0.22283935546875,-0.60833740234375,-0.4425048828125,4961,239,237,-7,-10,174
129782992,0.62933349609375,-0.23834228515625,-0.6036376953125,-0.427490234375,5259,-264,158,-3,-11,187
129792980,0.63873291015625,-0.25445556640625,-0.5985107421875,-0.4111328125,5591,-733,62,0,-12,197
129802959,0.64788818359375,-0.2706298828125,-0.5931396484375,-0.39398193359375,5971,-1184,-7,2,-13,199
129812942,0.65643310546875,-0.2862548828125,-0.58758544921875,-0.37664794921875,6330,-1614,-46,3,-14,194
129822924,0.66424560546875,-0.30108642578125,-0.58203125,-0.3597412109375,6687,-2009,-75,4,-14,184
129832906,0.671142578125,-0.31494140625,-0.5765380859375,-0.34356689453125,6984,-2356,-91,5,-14,172
129842888,0.67718505859375,-0.32757568359375,-0.57135009765625,-0.3282470703125,7205,-2612,-60,5,-14,159
129852872,0.68231201171875,-0.33892822265625,-0.56658935546875,-0.31402587890625,7376,-2786,-14,6,-15,145
129862858,0.68658447265625,-0.34918212890625,-0.562255859375,-0.301025390625,7534,-2925,28,5,-16,130
129872841,0.69000244140625,-0.35858154296875,-0.55841064453125,-0.2890625,7741,-3087,53,3,-17,119
129882823,0.6927490234375,-0.367431640625,-0.55487060546875,-0.27801513671875,7969,-3240,94,1,-18,110
129892799,0.69500732421875,-0.3758544921875,-0.5513916015625,-0.267822265625,8215,-3343,153,-3,-18,104
129902780,0.69683837890625,-0.38427734375,-0.54791259765625,-0.258056640625,8414,-3442,172,-6,-18,102
129912763,0.698486328125,-0.39288330078125,-0.54412841796875,-0.2484130859375,8505,-3493,188,-9,-17,105
129922743,0.69989013671875,-0.4019775390625,-0.53997802734375,-0.23870849609375,8478,-3494,205,-13,-18,109
129932725,0.70111083984375,-0.411376953125,-0.5355224609375,-0.22906494140625,8365,-3432,233,-16,-18,112
129942707,0.701904296875,-0.4208984375,-0.53094482421875,-0.2197265625,8251,-3370,267,-21,-19,111
129952691,0.7022705078125,-0.430419921875,-0.5263671875,-0.21099853515625,8155,-3351,277,-25,-19,106
129962679,0.70220947265625,-0.4398193359375,-0.5218505859375,-0.2030029296875,8123,-3445,283,-28,-18,100
129972660,0.701904296875,-0.4490966796875,-0.51715087890625,-0.195556640625,8114,-3664,291,-31,-16,97
129982643,0.7015380859375,-0.4586181640625,-0.511962890625,-0.18817138671875,8051,-3956,255,-33,-13,99
129992628,0.701171875,-0.4683837890625,-0.50634765625,-0.18060302734375,7886,-4210,204,-35,-12,103
130002616,0.70068359375,-0.478515625,-0.50030517578125,-0.17266845703125,7616,-4454,129,-36,-12,107
130012598,0.7000732421875,-0.48883056640625,-0.493896484375,-0.16436767578125,7309,-4738,20,-36,-12,110
130022579,0.69915771484375,-0.49932861328125,-0.48748779296875,-0.15570068359375,7067,-5072,-93,-37,-15,111
130032552,0.6978759765625,-0.509765625,-0.48114013671875,-0.14697265625,6899,-5390,-187,-37,-17,108
130042532,0.69622802734375,-0.51983642578125,-0.47515869140625,-0.13873291015625,6796,-5649,-234,-38,-18,102
130052516,0.69439697265625,-0.52923583984375,-0.4696044921875,-0.1312255859375,6771,-5903,-259,-38,-17,93
130062499,0.6925048828125,-0.53790283203125,-0.46435546875,-0.1246337890625,6740,-6149,-284,-37,-15,85
130072481,0.6905517578125,-0.5460205078125,-0.4593505859375,-0.1185302734375,6664,-6424,-324,-36,-13,79
130082462,0.688720703125,-0.55364990234375,-0.454345703125,-0.1126708984375,6541,-6696,-386,-33,-12,76
130092446,0.68707275390625,-0.56097412109375,-0.44940185546875,-0.10675048828125,6393,-6968,-452,-30,-11,75
130102428,0.68548583984375,-0.56805419921875,-0.44427490234375,-0.10040283203125,6249,-7290,-541,-27,-12,77
130112418,0.68402099609375,-0.57513427734375,-0.43890380859375,-0.0933837890625,6114,-7617,-643,-24,-13,82
130122400,0.68267822265625,-0.5821533203125,-0.43328857421875,-0.08563232421875,6008,-7873,-729,-21,-15,87
130132376,0.68133544921875,-0.58905029296875,-0.427490234375,-0.077392578125,5938,-8015,-766,-19,-16,91
130142359,0.68011474609375,-0.595703125,-0.42181396484375,-0.06890869140625,5876,-8072,-760,-17,-18,91
130152340,0.67889404296875,-0.60174560546875,-0.41632080078125,-0.0606689453125,5827,-8067,-729,-14,-18,88
130162320,0.677734375,-0.60736083984375,-0.4111328125,-0.052734375,5761,-8110,-719,-13,-17,84
130172304,0.6766357421875,-0.612548828125,-0.4061279296875,-0.04486083984375,5679,-8228,-730,-10,-18,82
130182286,0.6756591796875,-0.61749267578125,-0.40106201171875,-0.03680419921875,5549,-8454,-763,-8,-19,82
130192267,0.674560546875,-0.6224365234375,-0.39593505859375,-0.028076171875,5387,-8730,-867,-5,-21,85
130202250,0.67340087890625,-0.6273193359375,-0.39080810546875,-0.01861572265625,5227,-8992,-998,-3,-25,89
130212232,0.67205810546875,-0.632080078125,-0.3857421875,-0.0086669921875,5115,-9248,-1113,-1,-29,90
130222217,0.67059326171875,-0.636474609375,-0.381103515625,0.0015869140625,5071,-9465,-1193,1,-33,89
130232196,0.6689453125,-0.6405029296875,-0.37701416015625,0.01177978515625,5090,-9655,-1238,2,-36,85
130242186,0.66729736328125,-0.64385986328125,-0.373779296875,0.02154541015625,5153,-9815,-1265,3,-39,77
130252170,0.66552734375,-0.6466064453125,-0.37152099609375,0.03057861328125,5234,-9908,-1266,4,-41,67
130262147,0.663818359375,-0.64862060546875,-0.370361328125,0.0386962890625,5345,-9959,-1238,4,-43,55
130272127,0.66217041015625,-0.64990234375,-0.3702392578125,0.04583740234375,5476,-9953,-1187,5,-44,43
130282109,0.66058349609375,-0.6505126953125,-0.3712158203125,0.0518798828125,5646,-9897,-1110,5,-44,32
130292091,0.65911865234375,-0.65045166015625,-0.37310791015625,0.0570068359375,5845,-9790,-1009,5,-44,21
130302073,0.6578369140625,-0.64984130859375,-0.37579345703125,0.06103515625,6058,-9620,-889,4,-43,11
130312058,0.65667724609375,-0.6488037109375,-0.37921142578125,0.06390380859375,6294,-9399,-760,3,-41,1
130322035,0.6556396484375,-0.64727783203125,-0.3831787109375,0.06573486328125,6535,-9127,-649,2,-38,-7
130332017,0.65478515625,-0.6455078125,-0.38751220703125,0.06646728515625,6760,-8833,-546,1,-34,-14
130341997,0.654052734375,-0.6435546875,-0.39202880859375,0.0662841796875,6966,-8549,-468,-1,-30,-20
130351977,0.65338134765625,-0.64154052734375,-0.39654541015625,0.06536865234375,7133,-8311,-438,-2,-25,-22
130361965,0.65277099609375,-0.63970947265625,-0.4007568359375,0.06396484375,7258,-8109,-451,-4,-21,-22
130371941,0.65216064453125,-0.63800048828125,-0.4046630859375,0.06219482421875,7341,-7949,-477,-5,-17,-22
130381924,0.651611328125,-0.63653564453125,-0.408203125,0.06024169921875,7374,-7819,-539,-6,-14,-21
130391905,0.651123046875,-0.63525390625,-0.41131591796875,0.0579833984375,7372,-7739,-601,-7,-10,-21
130401888,0.650634765625,-0.6341552734375,-0.41412353515625,0.0555419921875,7341,-7748,-684,-8,-7,-20
130411872,0.65020751953125,-0.6331787109375,-0.41656494140625,0.05303955078125,7288,-7893,-798,-9,-4,-20
130421858,0.64984130859375,-0.63238525390625,-0.41864013671875,0.0506591796875,7225,-8166,-936,-8,-2,-18
130431838,0.6495361328125,-0.6317138671875,-0.4202880859375,0.048583984375,7157,-8493,-1080,-7,-2,-16
130441821,0.6492919921875,-0.631103515625,-0.421875,0.04669189453125,7067,-8849,-1251,-5,-1,-16
130451797,0.649169921875,-0.63018798828125,-0.42364501953125,0.04473876953125,6984,-9171,-1416,-3,-1,-21
130461779,0.649169921875,-0.62872314453125,-0.42608642578125,0.0421142578125,6924,-9408,-1565,-1,-1,-32
130471766,0.6492919921875,-0.62640380859375,-0.42962646484375,0.03863525390625,6876,-9593,-1686,0,-2,-47
130481747,0.64959716796875,-0.623046875,-0.4344482421875,0.03387451171875,6861,-9695,-1789,2,-2,-65
130491732,0.65008544921875,-0.6185302734375,-0.4405517578125,0.02783203125,6880,-9701,-1839,4,-1,-82
130501716,0.65069580078125,-0.61297607421875,-0.44775390625,0.0205078125,6931,-9630,-1857,5,-1,-98
130511697,0.6513671875,-0.6064453125,-0.45587158203125,0.01220703125,7007,-9510,-1843,6,-1,-110
130521683,0.652099609375,-0.5992431640625,-0.4644775390625,0.003173828125,7113,-9332,-1832,8,0,-118
130531660,0.65283203125,-0.59149169921875,-0.47314453125,-0.00616455078125,7237,-9127,-1805,9,2,-121
130541653,0.653564453125,-0.58355712890625,-0.48175048828125,-0.01556396484375,7342,-8885,-1790,10,2,-122
130551634,0.654296875,-0.575439453125,-0.49005126953125,-0.02490234375,7450,-8644,-1765,11,4,-120
130561614,0.65496826171875,-0.56744384765625,-0.49786376953125,-0.0340576171875,7549,-8416,-1754,11,6,-117
130571604,0.6556396484375,-0.5594482421875,-0.50531005859375,-0.0430908203125,7656,-8170,-1755,11,7,-115
130581587,0.65618896484375,-0.551513671875,-0.512451171875,-0.05218505859375,7754,-7911,-1741,10,9,-114
130591564,0.65667724609375,-0.54339599609375,-0.519287109375,-0.0615234375,7837,-7633,-1710,9,11,-115
130601538,0.6571044921875,-0.53515625,-0.526123046875,-0.07135009765625,7917,-7356,-1701,8,14,-120
130611521,0.65728759765625,-0.52655029296875,-0.532958984375,-0.0819091796875,7986,-7094,-1675,6,16,-125
130621503,0.6573486328125,-0.517578125,-0.539794921875,-0.09307861328125,8044,-6818,-1636,4,19,-131
130631485,0.6572265625,-0.50823974609375,-0.546630859375,-0.10498046875,8079,-6573,-1610,2,21,-137
130641467,0.6568603515625,-0.4986572265625,-0.55328369140625,-0.117431640625,8111,-6355,-1588,0,24,-141
130651451,0.65631103515625,-0.48895263671875,-0.5596923828125,-0.13018798828125,8129,-6196,-1570,-2,26,-144
130661434,0.65545654296875,-0.47918701171875,-0.56591796875,-0.143310546875,8147,-6023,-1570,-5,28,-146
130671419,0.6544189453125,-0.46923828125,-0.57183837890625,-0.15679931640625,8167,-5828,-1566,-7,30,-149
130681404,0.653076171875,-0.45916748046875,-0.57757568359375,-0.170654296875,8189,-5623,-1575,-9,32,-152
130691381,0.65142822265625,-0.4488525390625,-0.5831298828125,-0.18487548828125,8188,-5399,-1583,-11,33,-154
130701363,0.64947509765625,-0.43841552734375,-0.58843994140625,-0.19921875,8187,-5155,-1590,-12,35,-155
130711345,0.64739990234375,-0.42803955078125,-0.59332275390625,-0.213623046875,8148,-4920,-1594,-14,36,-154
130721327,0.6451416015625,-0.417724609375,-0.59783935546875,-0.22784423828125,8101,-4684,-1597,-15,37,-151
130731308,0.64276123046875,-0.40771484375,-0.601806640625,-0.24169921875,8031,-4456,-1584,-15,37,-147
130741291,0.640380859375,-0.39794921875,-0.6053466796875,-0.25518798828125,7960,-4234,-1551,-16,38,-143
130751276,0.63787841796875,-0.38836669921875,-0.6085205078125,-0.2684326171875,7888,-4024,-1501,-17,38,-140
130761257,0.63519287109375,-0.37884521484375,-0.61138916015625,-0.281494140625,7835,-3801,-1420,-18,38,-140
130771238,0.63226318359375,-0.36895751953125,-0.61419677734375,-0.2947998046875,7792,-3541,-1360,-18,38,-144
130781224,0.62890625,-0.35858154296875,-0.6170654296875,-0.3084716796875,7728,-3260,-1296,-19,38,-150
130791207,0.6251220703125,-0.34759521484375,-0.61993408203125,-0.3226318359375,7666,-2969,-1230,-19,39,-156
130801189,0.62091064453125,-0.3360595703125,-0.622802734375,-0.337158203125,7569,-2669,-1163,-20,39,-162
130811182,0.6163330078125,-0.3240966796875,-0.62554931640625,-0.35186767578125,7457,-2357,-1078,-20,40,-164
130821163,0.61151123046875,-0.3118896484375,-0.6280517578125,-0.36663818359375,7317,-2033,-980,-20,40,-165
130831141,0.60650634765625,-0.29962158203125,-0.63018798828125,-0.381103515625,7185,-1721,-873,-20,40,-163
130841121,0.60150146484375,-0.28753662109375,-0.6319580078125,-0.39520263671875,7053,-1416,-768,-20,40,-158
130851104,0.5965576171875,-0.27569580078125,-0.63330078125,-0.40875244140625,6935,-1120,-662,-20,40,-152
130861086,0.591796875,-0.26422119140625,-0.6341552734375,-0.42169189453125,6819,-840,-550,-20,41,-145
130871068,0.58734130859375,-0.25323486328125,-0.634521484375,-0.4339599609375,6726,-574,-433,-20,41,-137
130881051,0.58331298828125,-0.2427978515625,-0.63433837890625,-0.4454345703125,6622,-349,-302,-19,43,-127
130891032,0.57989501953125,-0.2330322265625,-0.63372802734375,-0.4559326171875,6478,-152,-186,-17,43,-115
130901016,0.57720947265625,-0.2239990234375,-0.632568359375,-0.46533203125,6313,47,-75,-15,44,-103
130910998,0.5751953125,-0.21563720703125,-0.631103515625,-0.4737548828125,6111,247,49,-13,45,-91
130920980,0.57379150390625,-0.20782470703125,-0.62933349609375,-0.481201171875,5888,444,173,-11,45,-81
130930965,0.57281494140625,-0.2003173828125,-0.62750244140625,-0.4879150390625,5679,630,269,-8,45,-73
130940945,0.57208251953125,-0.1929931640625,-0.6256103515625,-0.49407958984375,5516,799,360,-6,45,-70
130950926,0.5714111328125,-0.1854248046875,-0.623779296875,-0.5,5356,989,506,-3,45,-70
130960910,0.57061767578125,-0.177490234375,-0.6220703125,-0.50592041015625,5207,1189,637,0,45,-73
130970890,0.56951904296875,-0.1689453125,-0.6204833984375,-0.51202392578125,5040,1379,771,2,45,-78
130980872,0.5679931640625,-0.15966796875,-0.619140625,-0.518310546875,4862,1574,903,4,45,-84
130990861,0.5660400390625,-0.14990234375,-0.617919921875,-0.52471923828125,4689,1777,1012,6,44,-89
131000844,0.5635986328125,-0.1396484375,-0.61688232421875,-0.5313720703125,4484,1974,1112,8,43,-93
131010826,0.560791015625,-0.1290283203125,-0.6160888671875,-0.5379638671875,4272,2186,1200,9,41,-96
131020802,0.55755615234375,-0.11822509765625,-0.6153564453125,-0.54449462890625,4097,2417,1286,11,39,-97
131030786,0.55401611328125,-0.10748291015625,-0.61480712890625,-0.55096435546875,3927,2645,1371,11,36,-97
131040773,0.55035400390625,-0.09686279296875,-0.61431884765625,-0.55712890625,3792,2900,1487,12,33,-95
131050749,0.54644775390625,-0.0865478515625,-0.6138916015625,-0.5631103515625,3667,3177,1606,12,31,-93
131060731,0.54248046875,-0.07659912109375,-0.61346435546875,-0.56884765625,3573,3472,1707,11,28,-89
131070716,0.538330078125,-0.0670166015625,-0.613037109375,-0.57440185546875,3481,3766,1799,10,25,-87
131080695,0.5340576171875,-0.057861328125,-0.6126708984375,-0.57977294921875,3397,4051,1874,9,22,-85
131090679,0.529541015625,-0.04913330078125,-0.61224365234375,-0.5850830078125,3304,4331,1935,7,19,-82
131100665,0.52508544921875,-0.041015625,-0.61181640625,-0.59014892578125,3216,4586,1972,6,16,-77
131110649,0.520751953125,-0.03375244140625,-0.6114501953125,-0.59478759765625,3118,4786,1991,4,12,-69
131120630,0.516845703125,-0.027587890625,-0.61114501953125,-0.59893798828125,3052,4962,2005,2,9,-60
131130611,0.5133056640625,-0.02252197265625,-0.61083984375,-0.6024169921875,3018,5100,2023,1,5,-49
131140601,0.51019287109375,-0.01849365234375,-0.610595703125,-0.60546875,3020,5243,2047,-1,2,-41
131150579,0.50726318359375,-0.01513671875,-0.6103515625,-0.6082763671875,3040,5407,2075,-3,0,-37
131160548,0.504150390625,-0.01214599609375,-0.61004638671875,-0.6112060546875,3087,5589,2131,-5,-2,-37
131170528,0.50079345703125,-0.00921630859375,-0.60968017578125,-0.6143798828125,3129,5773,2166,-7,-4,-40
131180511,0.4970703125,-0.00634765625,-0.6092529296875,-0.61785888671875,3151,5931,2188,-9,-5,-43
131190495,0.4930419921875,-0.0035400390625,-0.6087646484375,-0.62152099609375,3142,6052,2205,-10,-6,-44
131200475,0.489013671875,-0.00103759765625,-0.6082763671875,-0.625244140625,3118,6131,2201,-12,-9,-42
131210458,0.48504638671875,0.00103759765625,-0.60784912109375,-0.62872314453125,3129,6164,2193,-12,-10,-39
131220440,0.48138427734375,0.00250244140625,-0.6075439453125,-0.6318359375,3197,6065,2208,-11,-11,-34
131230422,0.47857666015625,0.00341796875,-0.6072998046875,-0.6341552734375,3337,5805,2287,-7,-10,-24
131240414,0.4771728515625,0.00390625,-0.60736083984375,-0.63519287109375,3495,5552,2381,1,-6,-12
131250396,0.47723388671875,0.0042724609375,-0.60772705078125,-0.634765625,3583,5421,2455,10,-1,2
131260375,0.4783935546875,0.004638671875,-0.60845947265625,-0.6331787109375,3573,5498,2488,16,3,13
131270354,0.4801025390625,0.005126953125,-0.60931396484375,-0.63104248046875,3532,5716,2502,19,5,18
131280335,0.48193359375,0.00567626953125,-0.6102294921875,-0.6287841796875,3470,5972,2519,19,6,21
131290317,0.48382568359375,0.00616455078125,-0.61114501953125,-0.62646484375,3384,6205,2496,18,5,22
131300302,0.48565673828125,0.00628662109375,-0.6119384765625,-0.624267578125,3308,6401,2471,15,3,24
131310282,0.48736572265625,0.0062255859375,-0.61260986328125,-0.62225341796875,3247,6548,2460,13,2,24
131320262,0.489013671875,0.005859375,-0.61322021484375,-0.620361328125,3200,6664,2454,10,1,24
131330247,0.49053955078125,0.0052490234375,-0.6136474609375,-0.6187744140625,3152,6746,2461,7,-1,24
131340226,0.49212646484375,0.00421142578125,-0.61395263671875,-0.6171875,3096,6780,2452,5,-2,27
131350208,0.49383544921875,0.002685546875,-0.6141357421875,-0.6156005859375,3037,6775,2451,2,-4,31
131360196,0.495849609375,0.00042724609375,-0.61431884765625,-0.61383056640625,2966,6730,2425,1,-6,37
131370178,0.498291015625,-0.0025634765625,-0.614501953125,-0.61163330078125,2900,6642,2395,-1,-8,45
131380159,0.50115966796875,-0.00653076171875,-0.61468505859375,-0.60906982421875,2828,6508,2358,-2,-10,54
131390135,0.50445556640625,-0.01129150390625,-0.6148681640625,-0.6060791015625,2778,6368,2313,-4,-12,61
131400119,0.50799560546875,-0.01678466796875,-0.61505126953125,-0.602783203125,2732,6242,2267,-5,-14,67
131410100,0.51177978515625,-0.02276611328125,-0.61517333984375,-0.59930419921875,2720,6122,2244,-7,-15,71
131420085,0.51568603515625,-0.02923583984375,-0.61517333984375,-0.59564208984375,2737,5984,2225,-8,-17,75
131430068,0.51983642578125,-0.0361328125,-0.61505126953125,-0.591796875,2764,5858,2209,-10,-17,79
131440051,0.52435302734375,-0.04364013671875,-0.61480712890625,-0.58758544921875,2821,5717,2181,-11,-17,86
131450032,0.529296875,-0.05194091796875,-0.6143798828125,-0.5828857421875,2881,5552,2144,-12,-19,94
131460014,0.53466796875,-0.06103515625,-0.6138916015625,-0.57757568359375,2950,5359,2061,-13,-20,103
131469997,0.5404052734375,-0.07086181640625,-0.61328125,-0.57171630859375,3018,5145,1943,-15,-21,109
131479978,0.54608154296875,-0.08099365234375,-0.61260986328125,-0.565673828125,3066,4944,1798,-16,-22,110
131489965,0.55157470703125,-0.0911865234375,-0.61181640625,-0.5595703125,3113,4745,1647,-17,-22,108
131499944,0.556640625,-0.10107421875,-0.6109619140625,-0.5538330078125,3173,4552,1527,-18,-22,103
131509925,0.561279296875,-0.110595703125,-0.6099853515625,-0.54833984375,3236,4314,1430,-18,-21,98
131519909,0.56585693359375,-0.12005615234375,-0.60894775390625,-0.5428466796875,3313,4024,1341,-18,-21,97
131529891,0.570556640625,-0.1298828125,-0.6077880859375,-0.53692626953125,3436,3700,1240,-18,-21,102
131539873,0.57568359375,-0.140380859375,-0.6064453125,-0.5302734375,3587,3376,1136,-17,-22,111
131549854,0.581298828125,-0.151611328125,-0.60498046875,-0.522705078125,3756,3111,1037,-16,-23,119
131559844,0.5870361328125,-0.16314697265625,-0.6033935546875,-0.51458740234375,3956,2919,928,-16,-23,123
131569826,0.592529296875,-0.17462158203125,-0.6016845703125,-0.50640869140625,4200,2754,833,-16,-22,120
131579803,0.59771728515625,-0.18560791015625,-0.599853515625,-0.49853515625,4482,2509,764,-16,-21,114
131589788,0.60260009765625,-0.1962890625,-0.597900390625,-0.49078369140625,4789,2188,666,-16,-19,110
131599773,0.6075439453125,-0.20703125,-0.59576416015625,-0.4827880859375,5101,1764,588,-15,-18,111
131609751,0.613037109375,-0.2181396484375,-0.59326171875,-0.47406005859375,5409,1300,518,-13,-16,120
131619734,0.61920166015625,-0.2301025390625,-0.59027099609375,-0.46392822265625,5706,840,442,-11,-16,134
131629717,0.6260986328125,-0.24285888671875,-0.58685302734375,-0.452392578125,6040,443,379,-8,-16,148
131639699,0.63348388671875,-0.25634765625,-0.58294677734375,-0.439453125,6392,70,322,-6,-16,159
131649682,0.64105224609375,-0.2701416015625,-0.57867431640625,-0.42572021484375,6772,-286,304,-4,-16,165
131659660,0.64849853515625,-0.2838134765625,-0.5740966796875,-0.4114990234375,7155,-663,300,-3,-15,166
131669653,0.65570068359375,-0.29730224609375,-0.5692138671875,-0.39703369140625,7484,-1066,279,-2,-15,165
131679632,0.66259765625,-0.31036376953125,-0.564208984375,-0.382568359375,7727,-1407,275,-1,-14,162
131689613,0.6689453125,-0.32281494140625,-0.55908203125,-0.368408203125,7845,-1639,292,-1,-14,157
131699607,0.6746826171875,-0.33441162109375,-0.55413818359375,-0.3548583984375,7865,-1798,306,0,-14,147
131709588,0.6796875,-0.3450927734375,-0.5494384765625,-0.3421630859375,7895,-1978,324,-1,-14,136
131719569,0.68408203125,-0.35504150390625,-0.54498291015625,-0.3302001953125,7962,-2236,358,-1,-14,126
131729539,0.68792724609375,-0.3643798828125,-0.54071044921875,-0.31878662109375,8065,-2557,378,-1,-14,119
131739520,0.69146728515625,-0.3734130859375,-0.536376953125,-0.30780029296875,8173,-2884,410,-1,-14,114
131749502,0.69482421875,-0.38214111328125,-0.53204345703125,-0.2969970703125,8218,-3152,444,-2,-13,112
131759485,0.69793701171875,-0.390625,-0.527587890625,-0.286376953125,8197,-3346,446,-2,-13,111
131769467,0.7008056640625,-0.3990478515625,-0.52301025390625,-0.27587890625,8116,-3504,447,-3,-13,110
131779450,0.703369140625,-0.40740966796875,-0.5184326171875,-0.2655029296875,8009,-3643,446,-5,-14,110
131789433,0.70562744140625,-0.415771484375,-0.51385498046875,-0.2552490234375,7936,-3795,436,-6,-15,108
131799418,0.70751953125,-0.4241943359375,-0.50927734375,-0.2452392578125,7924,-3966,443,-9,-16,107
131809407,0.7091064453125,-0.43255615234375,-0.504638671875,-0.23541259765625,7944,-4072,464,-11,-16,105
131819382,0.71038818359375,-0.44073486328125,-0.49993896484375,-0.2261962890625,7931,-4141,507,-14,-15,101
131829362,0.71142578125,-0.4486083984375,-0.4952392578125,-0.2176513671875,7898,-4243,513,-16,-13,96
131839346,0.71221923828125,-0.4564208984375,-0.49041748046875,-0.20965576171875,7800,-4367,516,-18,-11,93
131849327,0.712890625,-0.46405029296875,-0.4854736328125,-0.20196533203125,7676,-4541,505,-20,-9,91
131859309,0.7135009765625,-0.47174072265625,-0.480224609375,-0.19427490234375,7518,-4798,469,-20,-9,92
131869291,0.7139892578125,-0.47979736328125,-0.4747314453125,-0.1861572265625,7389,-5112,416,-21,-9,96
131879273,0.71441650390625,-0.48809814453125,-0.46893310546875,-0.177490234375,7267,-5392,360,-22,-10,101
131889257,0.71466064453125,-0.4967041015625,-0.46282958984375,-0.16845703125,7166,-5622,319,-23,-12,106
131899239,0.7147216796875,-0.50531005859375,-0.45660400390625,-0.1591796875,7074,-5812,301,-23,-12,107
131909220,0.71466064453125,-0.5137939453125,-0.45037841796875,-0.15008544921875,6949,-5984,287,-23,-12,105
131919207,0.71435546875,-0.52203369140625,-0.44415283203125,-0.1412353515625,6777,-6169,247,-24,-12,102
131929191,0.71380615234375,-0.530029296875,-0.4381103515625,-0.132568359375,6563,-6360,201,-24,-13,98
131939175,0.71307373046875,-0.53778076171875,-0.432373046875,-0.12408447265625,6345,-6554,133,-24,-14,94
131949155,0.71209716796875,-0.54534912109375,-0.4268798828125,-0.11566162109375,6170,-6808,62,-23,-16,92
131959133,0.71087646484375,-0.55267333984375,-0.42156982421875,-0.1070556640625,6032,-7046,15,-22,-19,91
131969117,0.70947265625,-0.559814453125,-0.41656494140625,-0.0985107421875,5936,-7181,-32,-22,-21,90
131979097,0.70794677734375,-0.56658935546875,-0.411865234375,-0.09014892578125,5873,-7296,-34,-21,-21,86
131989080,0.70635986328125,-0.57305908203125,-0.40740966796875,-0.08209228515625,5814,-7430,-44,-21,-22,82
131999062,0.70458984375,-0.57916259765625,-0.40325927734375,-0.07440185546875,5750,-7572,-65,-20,-23,78
132009042,0.70281982421875,-0.5849609375,-0.39935302734375,-0.0667724609375,5677,-7723,-96,-19,-23,76
132019025,0.70086669921875,-0.59063720703125,-0.39556884765625,-0.05908203125,5577,-7870,-139,-18,-25,75
132029008,0.69891357421875,-0.5960693359375,-0.39190673828125,-0.05126953125,5477,-7988,-199,-17,-26,75
132038990,0.69683837890625,-0.6014404296875,-0.388427734375,-0.043212890625,5373,-8029,-254,-16,-28,76
132048973,0.69476318359375,-0.60650634765625,-0.385009765625,-0.0350341796875,5281,-8004,-284,-14,-30,76
132058956,0.69268798828125,-0.611328125,-0.38177490234375,-0.02691650390625,5208,-7903,-304,-13,-31,75
132068937,0.69061279296875,-0.61578369140625,-0.37884521484375,-0.0189208984375,5155,-7784,-324,-12,-32,72
132078922,0.68853759765625,-0.619873046875,-0.37615966796875,-0.01129150390625,5121,-7695,-328,-10,-31,68
132088902,0.6865234375,-0.62371826171875,-0.3736572265625,-0.00390625,5107,-7676,-344,-10,-31,67
132102418,0.6845703125,-0.62738037109375,-0.37115478515625,0.00347900390625,5097,-7775,-367,-9,-30,66
132108872,0.68255615234375,-0.631103515625,-0.368408203125,0.01104736328125,5111,-8020,-420,-9,-30,70
132118853,0.6805419921875,-0.63494873046875,-0.3651123046875,0.01934814453125,5118,-8406,-529,-7,-31,77
132128836,0.67840576171875,-0.6390380859375,-0.361328125,0.02825927734375,5114,-8791,-635,-7,-32,83
132138819,0.67620849609375,-0.64324951171875,-0.35723876953125,0.03765869140625,5104,-9091,-737,-6,-32,87
132148795,0.67388916015625,-0.647216796875,-0.353271484375,0.04693603515625,5082,-9299,-805,-6,-33,84
132158778,0.67156982421875,-0.65069580078125,-0.3499755859375,0.05560302734375,5082,-9411,-859,-5,-34,76
132168761,0.66937255859375,-0.653564453125,-0.34759521484375,0.063232421875,5084,-9446,-890,-5,-33,63
132178743,0.667236328125,-0.65570068359375,-0.346435546875,0.0694580078125,5112,-9409,-900,-5,-33,48
132188724,0.665283203125,-0.6571044921875,-0.3465576171875,0.07415771484375,5174,-9328,-884,-6,-32,31
132198707,0.66357421875,-0.65771484375,-0.3480224609375,0.07733154296875,5260,-9211,-857,-6,-30,15
132208684,0.662109375,-0.65765380859375,-0.35052490234375,0.07904052734375,5378,-9099,-805,-6,-29,1
132218664,0.66082763671875,-0.6571044921875,-0.35382080078125,0.07965087890625,5545,-9023,-784,-6,-27,-9
132228654,0.65972900390625,-0.65625,-0.357421875,0.07958984375,5725,-8961,-775,-6,-25,-14
132238638,0.65869140625,-0.65533447265625,-0.36114501953125,0.0791015625,5923,-8915,-782,-6,-23,-15
132248615,0.65777587890625,-0.65435791015625,-0.36468505859375,0.07843017578125,6105,-8862,-774,-6,-21,-14
132258606,0.65692138671875,-0.653564453125,-0.36785888671875,0.0777587890625,6275,-8831,-775,-6,-19,-11
132268590,0.65606689453125,-0.6529541015625,-0.3704833984375,0.07720947265625,6408,-8873,-785,-6,-16,-7
132278565,0.6552734375,-0.652587890625,-0.37261962890625,0.07684326171875,6545,-8946,-796,-7,-14,-3
132288542,0.65447998046875,-0.65240478515625,-0.3743896484375,0.0765380859375,6649,-9041,-836,-7,-13,-1
132298524,0.65374755859375,-0.65228271484375,-0.37603759765625,0.07611083984375,6736,-9187,-906,-7,-11,-2
132308506,0.653076171875,-0.6519775390625,-0.37786865234375,0.07525634765625,6823,-9330,-983,-7,-10,-7
132318489,0.65252685546875,-0.6512451171875,-0.38037109375,0.073486328125,6907,-9429,-1072,-7,-8,-18
132328474,0.65216064453125,-0.64990234375,-0.38385009765625,0.070556640625,7003,-9502,-1157,-7,-7,-32
132338453,0.65203857421875,-0.6478271484375,-0.38836669921875,0.06622314453125,7079,-9600,-1217,-7,-5,-48
132348435,0.652099609375,-0.64495849609375,-0.3939208984375,0.06060791015625,7178,-9679,-1248,-6,-3,-64
132358418,0.65234375,-0.64129638671875,-0.40032958984375,0.05377197265625,7271,-9745,-1253,-6,-1,-77
132368409,0.65283203125,-0.63702392578125,-0.40740966796875,0.04595947265625,7357,-9798,-1242,-5,1,-88
132378382,0.6534423828125,-0.632080078125,-0.41485595703125,0.037353515625,7411,-9831,-1242,-4,3,-97
132388363,0.654052734375,-0.626708984375,-0.4227294921875,0.0281982421875,7455,-9840,-1264,-2,4,-105
132398347,0.65472412109375,-0.62078857421875,-0.4307861328125,0.0186767578125,7474,-9825,-1317,-1,5,-111
132408333,0.65545654296875,-0.61444091796875,-0.4390869140625,0.0086669921875,7497,-9766,-1357,0,7,-117
132418313,0.65618896484375,-0.60760498046875,-0.447509765625,-0.00177001953125,7525,-9641,-1398,2,8,-122
132428301,0.6568603515625,-0.600341796875,-0.4560546875,-0.012451171875,7571,-9472,-1420,3,9,-126
132438281,0.657470703125,-0.5927734375,-0.46453857421875,-0.02337646484375,7626,-9290,-1432,4,11,-128
132448262,0.65814208984375,-0.58502197265625,-0.47271728515625,-0.0343017578125,7693,-9114,-1422,5,12,-128
132458241,0.6588134765625,-0.57708740234375,-0.48052978515625,-0.04510498046875,7757,-8942,-1421,5,14,-127
132468224,0.659423828125,-0.56915283203125,-0.48797607421875,-0.055908203125,7785,-8804,-1421,6,17,-125
132478208,0.66009521484375,-0.56121826171875,-0.494873046875,-0.06658935546875,7797,-8655,-1420,6,19,-124
132488196,0.66070556640625,-0.55316162109375,-0.50146484375,-0.0772705078125,7776,-8527,-1400,6,21,-125
132498177,0.661376953125,-0.5450439453125,-0.50775146484375,-0.08807373046875,7719,-8385,-1392,6,23,-125
132508159,0.66192626953125,-0.5367431640625,-0.5137939453125,-0.0989990234375,7638,-8211,-1377,6,25,-127
132518136,0.6624755859375,-0.52813720703125,-0.51971435546875,-0.11016845703125,7543,-7969,-1338,6,27,-129
132528119,0.66290283203125,-0.51934814453125,-0.52545166015625,-0.1214599609375,7450,-7722,-1314,6,29,-131
132538099,0.66326904296875,-0.51031494140625,-0.53106689453125,-0.1328125,7377,-7462,-1288,7,30,-131
132548082,0.66351318359375,-0.501220703125,-0.53643798828125,-0.14410400390625,7315,-7248,-1290,7,30,-131
132558065,0.66363525390625,-0.4920654296875,-0.54168701171875,-0.15521240234375,7289,-7026,-1309,8,31,-131
132568047,0.66357421875,-0.48260498046875,-0.546875,-0.16650390625,7274,-6805,-1353,8,32,-134
132578030,0.66326904296875,-0.47283935546875,-0.5521240234375,-0.17803955078125,7250,-6580,-1402,8,32,-138
132588012,0.66259765625,-0.46270751953125,-0.55755615234375,-0.18988037109375,7220,-6346,-1482,8,32,-143
132597996,0.66156005859375,-0.4521484375,-0.5631103515625,-0.20196533203125,7203,-6101,-1548,8,32,-147
132607977,0.66033935546875,-0.44134521484375,-0.568603515625,-0.21429443359375,7203,-5824,-1557,7,32,-149
132617965,0.6588134765625,-0.430419921875,-0.57391357421875,-0.22662353515625,7196,-5530,-1535,6,32,-149
132627940,0.65716552734375,-0.4195556640625,-0.57891845703125,-0.23883056640625,7216,-5230,-1474,5,32,-146
132637922,0.65533447265625,-0.40869140625,-0.5836181640625,-0.2508544921875,7220,-4891,-1386,5,32,-144
132647908,0.6533203125,-0.3978271484375,-0.58807373046875,-0.26287841796875,7200,-4534,-1310,3,32,-145
132657890,0.65093994140625,-0.38671875,-0.59246826171875,-0.275146484375,7161,-4145,-1240,2,33,-147
132667873,0.648193359375,-0.375244140625,-0.59686279296875,-0.287841796875,7112,-3755,-1168,0,33,-152
132677853,0.64501953125,-0.3634033203125,-0.6011962890625,-0.3009033203125,7056,-3376,-1100,-1,33,-156
132687844,0.64141845703125,-0.35125732421875,-0.6053466796875,-0.31427001953125,7016,-3027,-1019,-2,33,-159
132697825,0.63763427734375,-0.3389892578125,-0.6092529296875,-0.32763671875,6988,-2701,-910,-3,34,-158
132707803,0.6337890625,-0.326904296875,-0.6126708984375,-0.34075927734375,6926,-2401,-787,-4,34,-155
132717785,0.62994384765625,-0.31512451171875,-0.61566162109375,-0.35345458984375,6846,-2102,-658,-5,35,-149
132727766,0.626220703125,-0.3037109375,-0.6180419921875,-0.3656005859375,6708,-1813,-539,-5,35,-142
132737748,0.62261962890625,-0.29254150390625,-0.62005615234375,-0.3773193359375,6544,-1530,-445,-5,36,-137
132747732,0.6190185546875,-0.28155517578125,-0.62176513671875,-0.38861083984375,6353,-1258,-370,-5,36,-134
132757716,0.6153564453125,-0.2706298828125,-0.62322998046875,-0.399658203125,6169,-998,-285,-5,36,-132
132767697,0.61175537109375,-0.2596435546875,-0.62445068359375,-0.41046142578125,5984,-757,-200,-4,37,-130
132777679,0.60809326171875,-0.2486572265625,-0.62542724609375,-0.42095947265625,5814,-531,-111,-3,37,-128
132787666,0.60467529296875,-0.23773193359375,-0.62615966796875,-0.43109130859375,5633,-353,-10,-2,38,-124
132797652,0.601318359375,-0.226806640625,-0.626708984375,-0.4407958984375,5443,-136,100,0,38,-120
132807632,0.59814453125,-0.2159423828125,-0.626953125,-0.4500732421875,5236,76,220,1,39,-117
132817612,0.5950927734375,-0.2049560546875,-0.6270751953125,-0.458984375,5005,312,325,3,40,-114
132827604,0.59197998046875,-0.1939697265625,-0.6270751953125,-0.46771240234375,4781,553,419,4,39,-113
132837585,0.5888671875,-0.182861328125,-0.6270751953125,-0.47607421875,4572,800,501,6,39,-111
132847564,0.585693359375,-0.171875,-0.62701416015625,-0.48406982421875,4387,1049,566,7,38,-107
132857538,0.58270263671875,-0.16119384765625,-0.6268310546875,-0.49151611328125,4235,1288,630,8,37,-102
132867522,0.5799560546875,-0.15087890625,-0.62652587890625,-0.4984130859375,4090,1523,716,9,37,-95
132877503,0.5775146484375,-0.14111328125,-0.6260986328125,-0.504638671875,3978,1766,814,9,35,-86
132887486,0.5753173828125,-0.13189697265625,-0.62548828125,-0.51025390625,3872,2045,925,10,34,-79
132897474,0.5732421875,-0.123046875,-0.62493896484375,-0.51556396484375,3776,2356,1030,10,32,-75
132907450,0.571044921875,-0.1143798828125,-0.624267578125,-0.52069091796875,3708,2674,1125,9,31,-74
132917433,0.568603515625,-0.1058349609375,-0.6236572265625,-0.52593994140625,3649,2981,1214,8,30,-74
132927418,0.56591796875,-0.097412109375,-0.6229248046875,-0.53125,3593,3283,1292,6,27,-74
132937403,0.56298828125,-0.089111328125,-0.62225341796875,-0.53662109375,3549,3564,1367,5,26,-74
132947380,0.55999755859375,-0.08123779296875,-0.6214599609375,-0.54193115234375,3517,3803,1442,3,24,-71
132957361,0.55706787109375,-0.073974609375,-0.62060546875,-0.546875,3487,4007,1514,2,21,-65
132967344,0.554443359375,-0.06744384765625,-0.6197509765625,-0.5513916015625,3479,4188,1593,1,19,-58
132977328,0.552001953125,-0.0616455078125,-0.61883544921875,-0.55548095703125,3488,4400,1673,-1,17,-52
132987307,0.549560546875,-0.05633544921875,-0.617919921875,-0.5594482421875,3501,4645,1757,-2,15,-49
132997289,0.5469970703125,-0.05126953125,-0.61700439453125,-0.56353759765625,3516,4881,1834,-4,12,-49
133007271,0.54400634765625,-0.0462646484375,-0.6160888671875,-0.5677490234375,3540,5095,1880,-6,11,-52
133017253,0.540771484375,-0.0413818359375,-0.61517333984375,-0.572265625,3577,5252,1917,-8,9,-53
133027235,0.537353515625,-0.03680419921875,-0.6142578125,-0.57672119140625,3632,5370,1956,-9,6,-53
133037217,0.53387451171875,-0.0325927734375,-0.61334228515625,-0.5811767578125,3711,5478,1993,-10,5,-51
133047196,0.5303955078125,-0.02880859375,-0.61236572265625,-0.5855712890625,3786,5588,2038,-11,3,-49
133057188,0.52691650390625,-0.02532958984375,-0.61138916015625,-0.58984375,3853,5715,2081,-13,2,-48
133067167,0.52337646484375,-0.02197265625,-0.61041259765625,-0.59417724609375,3907,5859,2120,-14,1,-48
133077145,0.5196533203125,-0.01885986328125,-0.60943603515625,-0.5985107421875,3942,5974,2148,-14,-1,-47
133087123,0.5159912109375,-0.0159912109375,-0.6085205078125,-0.60272216796875,3963,6049,2162,-15,-2,-45
133097106,0.51251220703125,-0.0135498046875,-0.60760498046875,-0.60662841796875,3974,6056,2203,-14,-3,-40
133107087,0.50958251953125,-0.0118408203125,-0.60687255859375,-0.60986328125,4008,5977,2233,-12,-5,-32
133117071,0.507568359375,-0.0108642578125,-0.60638427734375,-0.61199951171875,4051,5815,2284,-8,-5,-19
133127058,0.5067138671875,-0.0106201171875,-0.60626220703125,-0.6129150390625,4093,5629,2356,-1,-4,-5
133137043,0.507080078125,-0.01092529296875,-0.60638427734375,-0.61248779296875,4118,5520,2454,5,-3,8
133147019,0.50823974609375,-0.011474609375,-0.6068115234375,-0.611083984375,4116,5518,2536,10,-2,17
133157006,0.50982666015625,-0.01202392578125,-0.607421875,-0.609130859375,4095,5591,2607,13,0,21
133166988,0.51141357421875,-0.01239013671875,-0.60809326171875,-0.60711669921875,4050,5722,2662,14,-1,21
133176967,0.5128173828125,-0.0125732421875,-0.60882568359375,-0.60516357421875,3994,5876,2690,14,-1,19
133186950,0.51397705078125,-0.0126953125,-0.609619140625,-0.6033935546875,3936,6013,2677,13,-2,18
133196928,0.514892578125,-0.01287841796875,-0.61041259765625,-0.601806640625,3856,6122,2650,11,-4,18
133206912,0.5157470703125,-0.0133056640625,-0.6112060546875,-0.60028076171875,3763,6198,2618,10,-5,19
133216894,0.5166015625,-0.01409912109375,-0.61199951171875,-0.59869384765625,3663,6273,2584,8,-7,22
133226876,0.517578125,-0.01531982421875,-0.61273193359375,-0.5970458984375,3574,6343,2582,7,-8,25
133236855,0.51861572265625,-0.01690673828125,-0.6134033203125,-0.59539794921875,3492,6410,2585,5,-10,28
133246846,0.51971435546875,-0.01873779296875,-0.614013671875,-0.59375,3405,6458,2589,3,-11,29
133256829,0.520751953125,-0.02081298828125,-0.61456298828125,-0.59222412109375,3292,6484,2581,1,-11,30
133266805,0.52197265625,-0.023193359375,-0.614990234375,-0.59063720703125,3220,6441,2551,0,-12,34
133276787,0.5235595703125,-0.0262451171875,-0.61541748046875,-0.58868408203125,3145,6298,2511,-1,-13,41
133286773,0.52587890625,-0.03033447265625,-0.61572265625,-0.5860595703125,3066,6087,2451,-2,-15,53
133296750,0.529052734375,-0.03564453125,-0.6160888671875,-0.58251953125,3010,5848,2370,-2,-16,67
133306734,0.53314208984375,-0.04217529296875,-0.6163330078125,-0.57806396484375,2970,5608,2276,-3,-18,82
133316717,0.53790283203125,-0.0499267578125,-0.6165771484375,-0.57269287109375,2969,5385,2190,-4,-19,93
133326701,0.54315185546875,-0.05841064453125,-0.61676025390625,-0.5667724609375,2965,5214,2112,-5,-20,101
133336683,0.54852294921875,-0.06732177734375,-0.61676025390625,-0.560546875,3011,5040,2054,-6,-21,104
133346661,0.55389404296875,-0.07647705078125,-0.6165771484375,-0.55426025390625,3086,4865,1977,-8,-21,105
133356653,0.55914306640625,-0.08587646484375,-0.61627197265625,-0.54791259765625,3160,4671,1903,-9,-21,105
133366636,0.56427001953125,-0.0953369140625,-0.61578369140625,-0.5416259765625,3241,4480,1816,-11,-21,104
133376615,0.56927490234375,-0.10479736328125,-0.61517333984375,-0.5352783203125,3293,4269,1726,-12,-21,104
133386607,0.57415771484375,-0.1143798828125,-0.6143798828125,-0.52899169921875,3339,4048,1608,-13,-21,103
133396590,0.578857421875,-0.12396240234375,-0.61346435546875,-0.52276611328125,3390,3813,1483,-14,-21,103
133406566,0.58343505859375,-0.13360595703125,-0.6124267578125,-0.5164794921875,3444,3563,1350,-15,-20,101
133416541,0.58795166015625,-0.14337158203125,-0.6112060546875,-0.5101318359375,3509,3271,1206,-16,-20,102
133426524,0.59259033203125,-0.15338134765625,-0.60986328125,-0.50341796875,3591,2977,1082,-16,-20,106
133436506,0.59759521484375,-0.16400146484375,-0.60821533203125,-0.49609375,3689,2661,971,-16,-20,113
133446487,0.60302734375,-0.17529296875,-0.60626220703125,-0.4879150390625,3790,2363,871,-16,-20,123
133456474,0.60906982421875,-0.1873779296875,-0.60400390625,-0.47869873046875,3924,2082,783,-15,-20,134
133466454,0.615478515625,-0.20013427734375,-0.60137939453125,-0.46856689453125,4077,1790,706,-15,-20,144
133476435,0.62225341796875,-0.2135009765625,-0.5982666015625,-0.45751953125,4279,1479,648,-14,-19,151
133486419,0.62921142578125,-0.2274169921875,-0.59478759765625,-0.4456787109375,4541,1077,588,-14,-19,158
133496406,0.636474609375,-0.24188232421875,-0.59075927734375,-0.43292236328125,4856,608,506,-13,-18,166
133506381,0.64410400390625,-0.25701904296875,-0.58612060546875,-0.41900634765625,5162,101,430,-12,-17,176
133516363,0.65203857421875,-0.27276611328125,-0.580810546875,-0.4039306640625,5418,-387,340,-11,-17,186
133526346,0.6600341796875,-0.288818359375,-0.57501220703125,-0.38775634765625,5634,-849,251,-9,-16,194
133536330,0.6678466796875,-0.30487060546875,-0.56878662109375,-0.37091064453125,5817,-1284,177,-7,-17,197
133546310,0.67529296875,-0.32049560546875,-0.56219482421875,-0.3538818359375,6038,-1705,135,-6,-16,194
133556294,0.68206787109375,-0.335693359375,-0.5555419921875,-0.3369140625,6326,-2176,119,-5,-17,189
133566278,0.68829345703125,-0.3502197265625,-0.54876708984375,-0.32025146484375,6630,-2697,120,-5,-16,181
133576260,0.69390869140625,-0.36407470703125,-0.54180908203125,-0.303955078125,6927,-3215,93,-5,-15,175
133586242,0.6990966796875,-0.37725830078125,-0.53485107421875,-0.28802490234375,7158,-3700,45,-4,-14,169
133596224,0.70379638671875,-0.38983154296875,-0.52777099609375,-0.2724609375,7283,-4111,12,-3,-12,163
133606207,0.70794677734375,-0.4017333984375,-0.520751953125,-0.25738525390625,7317,-4416,-39,-3,-12,156
133616195,0.7115478515625,-0.4127197265625,-0.51409912109375,-0.24310302734375,7329,-4615,-86,-3,-12,146
133626177,0.7144775390625,-0.4227294921875,-0.50799560546875,-0.2298583984375,7383,-4782,-121,-3,-12,134
133636159,0.716796875,-0.4320068359375,-0.502197265625,-0.2176513671875,7534,-4990,-128,-4,-12,124
133646140,0.71881103515625,-0.440673828125,-0.49658203125,-0.20623779296875,7734,-5189,-105,-5,-11,118
133656120,0.720703125,-0.4488525390625,-0.4908447265625,-0.1954345703125,7925,-5366,-51,-5,-8,114
133666102,0.72259521484375,-0.45697021484375,-0.4847412109375,-0.18475341796875,8049,-5555,-2,-6,-5,116
133676084,0.72454833984375,-0.46514892578125,-0.47802734375,-0.17388916015625,8052,-5690,66,-7,-2,121
133686067,0.72650146484375,-0.4735107421875,-0.47064208984375,-0.16278076171875,7961,-5790,126,-8,-1,127
133696049,0.7283935546875,-0.482177734375,-0.46270751953125,-0.15130615234375,7796,-5858,177,-10,1,132
133706030,0.73004150390625,-0.49102783203125,-0.45428466796875,-0.1397705078125,7601,-5915,250,-12,1,135
133716012,0.73150634765625,-0.5,-0.44549560546875,-0.128173828125,7431,-6041,285,-15,2,137
133725995,0.732666015625,-0.50921630859375,-0.43634033203125,-0.1165771484375,7274,-6217,326,-17,4,139
133735977,0.73358154296875,-0.51837158203125,-0.4267578125,-0.10504150390625,7089,-6448,350,-18,5,140
133745959,0.734375,-0.5274658203125,-0.416748046875,-0.09368896484375,6850,-6641,347,-19,8,139
133755941,0.73504638671875,-0.53631591796875,-0.406494140625,-0.0826416015625,6551,-6831,332,-20,10,138
133765923,0.7354736328125,-0.544921875,-0.3961181640625,-0.07183837890625,6192,-7076,285,-19,12,134
133775906,0.73577880859375,-0.55328369140625,-0.3856201171875,-0.06109619140625,5818,-7370,236,-18,13,133
133785888,0.73583984375,-0.56158447265625,-0.375,-0.05023193359375,5473,-7735,198,-18,12,133
133795872,0.73565673828125,-0.56976318359375,-0.36419677734375,-0.0390625,5190,-8142,142,-18,10,136
133805859,0.73516845703125,-0.5780029296875,-0.3531494140625,-0.02740478515625,4947,-8542,114,-18,9,139
133815842,0.73443603515625,-0.5860595703125,-0.3419189453125,-0.01556396484375,4710,-8872,121,-18,8,140
133825826,0.7333984375,-0.5938720703125,-0.330810546875,-0.00396728515625,4509,-9145,131,-19,7,138
133835801,0.732177734375,-0.6011962890625,-0.320068359375,0.00714111328125,4308,-9328,152,-19,7,131
133845784,0.73077392578125,-0.60797119140625,-0.3099365234375,0.01727294921875,4087,-9401,169,-19,8,121
133855764,0.729248046875,-0.6141357421875,-0.3006591796875,0.0262451171875,3869,-9427,193,-20,8,108
133865746,0.7275390625,-0.61968994140625,-0.2923583984375,0.0340576171875,3652,-9411,199,-20,7,96
133875730,0.7257080078125,-0.6248779296875,-0.28497314453125,0.04083251953125,3449,-9407,209,-21,6,85
133885716,0.7237548828125,-0.62969970703125,-0.2783203125,0.04705810546875,3269,-9434,216,-22,4,78
133895694,0.72161865234375,-0.6343994140625,-0.2720947265625,0.052978515625,3112,-9475,225,-23,3,76
133905679,0.71929931640625,-0.6390380859375,-0.2659912109375,0.0589599609375,2992,-9577,225,-24,1,76
133915665,0.716796875,-0.64373779296875,-0.25994873046875,0.065185546875,2942,-9683,214,-24,-1,78
133925645,0.714111328125,-0.6484375,-0.25396728515625,0.071533203125,2890,-9784,226,-25,-2,80
133935628,0.7113037109375,-0.65301513671875,-0.248046875,0.0780029296875,2858,-9896,213,-26,-4,80
133945616,0.7083740234375,-0.6575927734375,-0.24237060546875,0.0843505859375,2793,-10017,212,-26,-5,78
133955598,0.705322265625,-0.66192626953125,-0.237060546875,0.0904541015625,2724,-10093,208,-26,-6,74
133965582,0.7022705078125,-0.666015625,-0.23236083984375,0.0960693359375,2639,-10138,202,-27,-7,67
133975550,0.69921875,-0.66986083984375,-0.22845458984375,0.10107421875,2557,-10120,206,-27,-8,59
133985532,0.6962890625,-0.67327880859375,-0.225341796875,0.105224609375,2509,-10039,213,-27,-9,49
133995515,0.69342041015625,-0.67645263671875,-0.22320556640625,0.108642578125,2483,-9906,223,-27,-10,39
134005497,0.690673828125,-0.67926025390625,-0.221923828125,0.1112060546875,2474,-9743,223,-27,-11,30
134015478,0.68804931640625,-0.68170166015625,-0.22149658203125,0.11297607421875,2496,-9581,214,-27,-11,22
134025460,0.685546875,-0.6839599609375,-0.2216796875,0.1142578125,2525,-9445,222,-27,-12,15
134035443,0.68316650390625,-0.68597412109375,-0.2222900390625,0.1151123046875,2549,-9347,216,-26,-12,11
134045423,0.680908203125,-0.6878662109375,-0.22308349609375,0.1158447265625,2568,-9286,227,-26,-12,10
134055411,0.67864990234375,-0.689697265625,-0.2237548828125,0.1168212890625,2568,-9247,223,-25,-13,12
134065389,0.67645263671875,-0.69146728515625,-0.2242431640625,0.1180419921875,2558,-9219,211,-23,-13,15
134075371,0.67431640625,-0.6932373046875,-0.22442626953125,0.11968994140625,2530,-9182,189,-22,-14,19
134085353,0.6722412109375,-0.6949462890625,-0.224365234375,0.1217041015625,2478,-9124,160,-21,-14,21
134095335,0.670166015625,-0.69659423828125,-0.22412109375,0.1240234375,2400,-9053,130,-19,-15,23
134105318,0.668212890625,-0.6981201171875,-0.22393798828125,0.12646484375,2310,-8988,91,-17,-16,22
134115301,0.66644287109375,-0.69940185546875,-0.22381591796875,0.12884521484375,2222,-8905,42,-15,-17,20
134125286,0.66473388671875,-0.70050048828125,-0.22406005859375,0.13116455078125,2151,-8864,0,-14,-18,17
134135266,0.663330078125,-0.7012939453125,-0.22454833984375,0.13330078125,2095,-8817,-38,-12,-18,14
134145249,0.66204833984375,-0.701904296875,-0.225341796875,0.13519287109375,2066,-8780,-50,-10,-18,11
