subject,Dean Black
arm,right
label,3
hz,100.17710907445812
time,5.919516

timestamp_us,q0,q1,q2,q3,ax,ay,az,gx,gy,gz
30433064,0.6669921875,-0.42230224609375,0.61370849609375,0.0081787109375,-6671,-4490,-911,-1,0,0
30443049,0.66693115234375,-0.4222412109375,0.61383056640625,0.0081787109375,-6677,-4490,-916,0,1,0
30453035,0.6668701171875,-0.4222412109375,0.61395263671875,0.00811767578125,-6679,-4493,-898,0,1,0
30463012,0.666748046875,-0.42218017578125,0.61407470703125,0.00811767578125,-6708,-4493,-904,0,1,0
30472992,0.6666259765625,-0.42205810546875,0.6142578125,0.008056640625,-6730,-4498,-905,0,1,0
30482979,0.66656494140625,-0.4219970703125,0.6143798828125,0.0079345703125,-6762,-4497,-912,0,1,0
30492957,0.66656494140625,-0.421875,0.614501953125,0.00787353515625,-6796,-4509,-905,0,1,0
30502939,0.66656494140625,-0.42181396484375,0.61456298828125,0.00775146484375,-6828,-4537,-905,1,0,-1
30512925,0.66656494140625,-0.42169189453125,0.6146240234375,0.007568359375,-6879,-4556,-908,1,0,0
30522903,0.6666259765625,-0.4215087890625,0.61468505859375,0.0074462890625,-6919,-4594,-922,1,0,0
30532887,0.66668701171875,-0.4212646484375,0.61474609375,0.00732421875,-6975,-4617,-925,2,-1,0
30542872,0.6668701171875,-0.42095947265625,0.61480712890625,0.00726318359375,-7068,-4656,-948,3,-1,1
30552849,0.66705322265625,-0.4205322265625,0.6148681640625,0.0072021484375,-7195,-4710,-976,3,-1,1
30562830,0.6673583984375,-0.4200439453125,0.61492919921875,0.0072021484375,-7328,-4798,-1006,3,-2,2
30572809,0.66766357421875,-0.41925048828125,0.61505126953125,0.0074462890625,-7498,-4896,-1041,4,-3,5
30582792,0.66815185546875,-0.41815185546875,0.6153564453125,0.00799560546875,-7683,-4989,-1090,5,-4,10
30592778,0.66864013671875,-0.41656494140625,0.6158447265625,0.00897216796875,-7860,-5026,-1120,6,-5,14
30602763,0.66925048828125,-0.4146728515625,0.616455078125,0.01031494140625,-8066,-5005,-1121,6,-5,18
30612745,0.6697998046875,-0.41259765625,0.6171875,0.011962890625,-8261,-4905,-1115,5,-5,19
30622728,0.6702880859375,-0.41046142578125,0.6180419921875,0.013916015625,-8456,-4763,-1087,4,-5,20
30632704,0.67071533203125,-0.408203125,0.6190185546875,0.0162353515625,-8653,-4593,-1060,1,-5,23
30642688,0.67095947265625,-0.40576171875,0.62030029296875,0.0191650390625,-8844,-4401,-1002,-2,-4,28
30652668,0.67095947265625,-0.40277099609375,0.6220703125,0.023193359375,-9027,-4222,-956,-5,-4,39
30662650,0.6707763671875,-0.39886474609375,0.62457275390625,0.0286865234375,-9233,-4053,-904,-8,-3,55
30672631,0.6702880859375,-0.393798828125,0.6279296875,0.03594970703125,-9445,-3922,-877,-11,-3,75
30682618,0.66943359375,-0.3873291015625,0.63226318359375,0.045166015625,-9646,-3774,-859,-14,-3,97
30692599,0.66815185546875,-0.37933349609375,0.63751220703125,0.0562744140625,-9867,-3619,-878,-17,-2,117
30702583,0.66650390625,-0.3701171875,0.6434326171875,0.0689697265625,-10114,-3457,-912,-19,-2,133
30712564,0.66436767578125,-0.36004638671875,0.649658203125,0.08251953125,-10373,-3313,-952,-20,-1,142
30722546,0.6619873046875,-0.34979248046875,0.65582275390625,0.09625244140625,-10653,-3183,-1013,-20,-1,143
30732529,0.659423828125,-0.33978271484375,0.66156005859375,0.10943603515625,-10905,-3095,-1074,-19,-1,138
30742517,0.65673828125,-0.330322265625,0.6668701171875,0.121826171875,-11114,-3015,-1151,-18,0,129
30752498,0.65411376953125,-0.32147216796875,0.6715087890625,0.1331787109375,-11268,-2953,-1221,-16,-1,121
30762479,0.65167236328125,-0.31304931640625,0.67578125,0.14361572265625,-11372,-2890,-1311,-14,-2,114
30772462,0.6492919921875,-0.3048095703125,0.6796875,0.15325927734375,-11441,-2813,-1387,-10,-2,109
30782445,0.6470947265625,-0.29656982421875,0.68328857421875,0.16241455078125,-11461,-2734,-1440,-7,-4,108
30792432,0.64495849609375,-0.28790283203125,0.68682861328125,0.1712646484375,-11422,-2614,-1481,-4,-4,110
30802416,0.64288330078125,-0.27862548828125,0.6903076171875,0.18023681640625,-11359,-2451,-1501,-1,-6,115
30812402,0.640625,-0.26837158203125,0.69390869140625,0.189697265625,-11272,-2234,-1488,1,-7,124
30822376,0.63824462890625,-0.257080078125,0.69757080078125,0.1998291015625,-11165,-1941,-1439,2,-9,134
30832358,0.63555908203125,-0.24462890625,0.70123291015625,0.210693359375,-11050,-1576,-1357,2,-10,144
30842344,0.632568359375,-0.23126220703125,0.704833984375,0.22235107421875,-10920,-1151,-1251,2,-11,152
30852323,0.62933349609375,-0.2174072265625,0.708251953125,0.23455810546875,-10767,-680,-1126,1,-12,156
30862305,0.6258544921875,-0.20343017578125,0.71124267578125,0.2469482421875,-10598,-242,-1022,-1,-13,156
30872287,0.6221923828125,-0.18994140625,0.71380615234375,0.2591552734375,-10418,161,-943,-4,-13,151
30882268,0.61859130859375,-0.17724609375,0.7158203125,0.2708740234375,-10225,535,-866,-6,-14,143
30892251,0.614990234375,-0.165283203125,0.71746826171875,0.2822265625,-9988,883,-821,-9,-13,136
30902237,0.6112060546875,-0.15380859375,0.71868896484375,0.29351806640625,-9787,1165,-762,-12,-13,134
30912219,0.6072998046875,-0.14263916015625,0.7196044921875,0.3048095703125,-9621,1364,-713,-14,-13,134
30922202,0.60321044921875,-0.1317138671875,0.72027587890625,0.31610107421875,-9451,1509,-667,-17,-13,135
30932182,0.59881591796875,-0.12066650390625,0.720703125,0.32763671875,-9292,1612,-638,-18,-13,138
30942174,0.5941162109375,-0.109619140625,0.720947265625,0.33929443359375,-9121,1665,-621,-19,-12,141
30952156,0.58905029296875,-0.09844970703125,0.72113037109375,0.35101318359375,-8929,1728,-624,-20,-11,144
30962133,0.58355712890625,-0.0870361328125,0.72125244140625,0.36279296875,-8718,1781,-614,-19,-9,146
30972109,0.57757568359375,-0.07550048828125,0.72137451171875,0.3743896484375,-8499,1849,-635,-18,-7,148
30982092,0.5712890625,-0.06390380859375,0.72149658203125,0.3858642578125,-8292,1948,-641,-17,-5,149
30992074,0.5645751953125,-0.05230712890625,0.72161865234375,0.39703369140625,-8079,2095,-637,-16,-3,148
31002056,0.5576171875,-0.040771484375,0.7216796875,0.407958984375,-7874,2257,-646,-15,-2,147
31012038,0.55047607421875,-0.029296875,0.72174072265625,0.41845703125,-7652,2447,-627,-13,-1,145
31022025,0.543212890625,-0.01800537109375,0.72161865234375,0.4287109375,-7453,2613,-622,-12,0,143
31032005,0.535888671875,-0.00689697265625,0.72137451171875,0.4384765625,-7246,2772,-585,-11,1,140
31041989,0.528564453125,0.00396728515625,0.7210693359375,0.4478759765625,-7027,2931,-579,-10,2,137
31051976,0.5211181640625,0.01470947265625,0.720703125,0.4569091796875,-6794,3087,-557,-9,2,135
31061952,0.5135498046875,0.0255126953125,0.72015380859375,0.4656982421875,-6583,3239,-552,-8,2,136
31071934,0.50579833984375,0.036376953125,0.71954345703125,0.47430419921875,-6386,3370,-555,-7,2,136
31081916,0.497802734375,0.0474853515625,0.71881103515625,0.4827880859375,-6171,3540,-559,-6,2,139
31091898,0.4893798828125,0.05902099609375,0.7178955078125,0.49139404296875,-5956,3725,-561,-5,2,143
31101882,0.48065185546875,0.07098388671875,0.71673583984375,0.50018310546875,-5726,3952,-557,-6,2,147
31111863,0.4715576171875,0.083251953125,0.71514892578125,0.50909423828125,-5487,4208,-502,-7,1,150
31121846,0.4622802734375,0.09564208984375,0.71307373046875,0.5181884765625,-5222,4481,-452,-9,0,150
31131832,0.45306396484375,0.1077880859375,0.710693359375,0.52716064453125,-4969,4750,-415,-11,-1,148
31141812,0.44415283203125,0.119384765625,0.7078857421875,0.53594970703125,-4710,4990,-366,-14,-1,142
31151793,0.4356689453125,0.13018798828125,0.7047119140625,0.54449462890625,-4447,5207,-314,-17,-2,134
31161778,0.4278564453125,0.1400146484375,0.70135498046875,0.5526123046875,-4220,5369,-278,-19,-3,124
31171764,0.42059326171875,0.14898681640625,0.69775390625,0.56024169921875,-4017,5448,-281,-22,-3,115
31181745,0.41387939453125,0.15716552734375,0.69403076171875,0.567626953125,-3843,5517,-284,-25,-4,109
31191727,0.40740966796875,0.1650390625,0.6900634765625,0.57489013671875,-3677,5567,-300,-26,-5,107
31201706,0.401123046875,0.1727294921875,0.685791015625,0.58209228515625,-3534,5624,-300,-28,-6,107
31211689,0.39471435546875,0.18048095703125,0.68121337890625,0.5894775390625,-3357,5672,-280,-30,-7,108
31221669,0.38836669921875,0.18841552734375,0.67626953125,0.59686279296875,-3170,5745,-255,-32,-9,109
31231653,0.38201904296875,0.19635009765625,0.67095947265625,0.60430908203125,-2964,5808,-215,-34,-10,110
31241635,0.37579345703125,0.2042236328125,0.6654052734375,0.61175537109375,-2744,5868,-159,-35,-11,107
31251617,0.36981201171875,0.2119140625,0.6595458984375,0.6190185546875,-2507,5928,-109,-37,-13,105
31261598,0.364013671875,0.21942138671875,0.65362548828125,0.6260986328125,-2252,5984,-70,-37,-14,101
31271581,0.358642578125,0.22650146484375,0.64764404296875,0.63287353515625,-2037,6010,-31,-37,-14,95
31281563,0.35394287109375,0.2330322265625,0.6417236328125,0.63909912109375,-1870,5983,16,-37,-15,87
31291545,0.3499755859375,0.23870849609375,0.63616943359375,0.64471435546875,-1751,5928,49,-36,-16,77
31301529,0.3468017578125,0.24383544921875,0.630859375,0.64971923828125,-1667,5852,79,-34,-17,68
31311512,0.34417724609375,0.24859619140625,0.6258544921875,0.6541748046875,-1603,5777,103,-32,-18,63
31321493,0.3416748046875,0.25347900390625,0.62091064453125,0.6583251953125,-1511,5740,151,-30,-20,63
31331479,0.33892822265625,0.2589111328125,0.6158447265625,0.662353515625,-1384,5714,195,-28,-22,68
31341461,0.335693359375,0.264892578125,0.6107177734375,0.66632080078125,-1240,5716,246,-25,-24,73
31351443,0.3321533203125,0.271484375,0.60546875,0.67022705078125,-1073,5729,300,-23,-25,76
31361431,0.32861328125,0.2781982421875,0.600341796875,0.67388916015625,-895,5764,349,-21,-26,75
31371413,0.32537841796875,0.28485107421875,0.5953369140625,0.6771240234375,-703,5799,414,-19,-28,70
31381398,0.32257080078125,0.2911376953125,0.5906982421875,0.6798095703125,-498,5857,488,-16,-28,62
31391373,0.3203125,0.29705810546875,0.58636474609375,0.68206787109375,-284,5932,581,-14,-29,56
31401355,0.31842041015625,0.302734375,0.582275390625,0.6839599609375,-65,6011,656,-12,-29,51
31411337,0.3167724609375,0.3082275390625,0.57843017578125,0.685546875,134,6097,730,-11,-30,47
31421321,0.31524658203125,0.3135986328125,0.57470703125,0.68695068359375,332,6171,798,-9,-30,44
31431302,0.313720703125,0.3189697265625,0.571044921875,0.68817138671875,556,6263,854,-9,-30,44
31441287,0.31201171875,0.324462890625,0.56744384765625,0.689453125,804,6374,917,-8,-29,45
31451268,0.30999755859375,0.33001708984375,0.56365966796875,0.6907958984375,1067,6476,993,-8,-28,47
31461251,0.3077392578125,0.3355712890625,0.55975341796875,0.6922607421875,1327,6594,1065,-8,-27,49
31471238,0.3052978515625,0.34100341796875,0.5557861328125,0.69384765625,1574,6717,1161,-9,-25,48
31481221,0.30303955078125,0.3460693359375,0.55194091796875,0.6954345703125,1778,6854,1233,-10,-23,44
31491201,0.30108642578125,0.35052490234375,0.5482177734375,0.69696044921875,1968,6983,1325,-11,-21,38
31501189,0.29962158203125,0.3543701171875,0.544677734375,0.698486328125,2153,7112,1405,-13,-19,33
31511172,0.2984619140625,0.357666015625,0.54119873046875,0.70001220703125,2300,7165,1468,-14,-17,28
31521154,0.2974853515625,0.36053466796875,0.53778076171875,0.7015380859375,2434,7195,1529,-16,-15,26
31531124,0.29656982421875,0.363037109375,0.53436279296875,0.7032470703125,2548,7189,1578,-17,-13,25
31541107,0.29559326171875,0.3653564453125,0.53094482421875,0.705078125,2645,7145,1597,-18,-11,24
31551090,0.29461669921875,0.36749267578125,0.527587890625,0.7069091796875,2716,7082,1616,-18,-10,23
31561071,0.29388427734375,0.3692626953125,0.52447509765625,0.70855712890625,2782,6993,1622,-18,-9,18
31571053,0.293701171875,0.3704833984375,0.52178955078125,0.7099609375,2841,6907,1634,-17,-8,10
31581030,0.294189453125,0.37115478515625,0.5196533203125,0.71099853515625,2926,6806,1657,-15,-8,0
31591014,0.29559326171875,0.37115478515625,0.5181884765625,0.71148681640625,3023,6698,1659,-14,-7,-12
31600994,0.2978515625,0.37042236328125,0.5174560546875,0.71148681640625,3108,6590,1672,-11,-7,-25
31610983,0.30096435546875,0.36895751953125,0.5174560546875,0.7109375,3180,6465,1665,-9,-6,-36
31620958,0.30474853515625,0.36700439453125,0.51812744140625,0.7098388671875,3237,6348,1664,-6,-5,-45
31630940,0.30889892578125,0.36456298828125,0.519287109375,0.70843505859375,3266,6263,1677,-4,-4,-52
31640922,0.31341552734375,0.36181640625,0.5208740234375,0.70672607421875,3245,6196,1673,-2,-3,-56
31650907,0.31805419921875,0.3587646484375,0.52288818359375,0.7047119140625,3196,6142,1672,1,-2,-60
31660885,0.32293701171875,0.35540771484375,0.5252685546875,0.702392578125,3115,6072,1655,2,-1,-65
31670872,0.32806396484375,0.3516845703125,0.528076171875,0.69976806640625,3030,5991,1624,4,0,-70
31680852,0.33343505859375,0.34759521484375,0.53118896484375,0.6968994140625,2949,5919,1611,6,1,-74
31690834,0.33880615234375,0.34332275390625,0.5345458984375,0.69384765625,2881,5837,1571,7,2,-76
31700818,0.34429931640625,0.3387451171875,0.53814697265625,0.690673828125,2784,5775,1557,8,4,-79
31710801,0.34991455078125,0.3338623046875,0.54193115234375,0.68719482421875,2652,5730,1520,9,6,-83
31720784,0.355712890625,0.32843017578125,0.54608154296875,0.68353271484375,2484,5688,1487,9,8,-87
31730762,0.36187744140625,0.3223876953125,0.55059814453125,0.6795654296875,2296,5669,1453,9,10,-94
31740754,0.368408203125,0.31573486328125,0.55535888671875,0.67529296875,2087,5670,1406,9,12,-99
31750734,0.3751220703125,0.30853271484375,0.560302734375,0.67083740234375,1874,5649,1350,9,13,-103
31760711,0.3818359375,0.30096435546875,0.5653076171875,0.666259765625,1658,5625,1303,8,15,-104
31770692,0.388427734375,0.29315185546875,0.5703125,0.66168212890625,1426,5601,1252,8,17,-104
31780674,0.39495849609375,0.28509521484375,0.57525634765625,0.65704345703125,1125,5567,1199,7,19,-105
31790658,0.4017333984375,0.27642822265625,0.58038330078125,0.652099609375,789,5508,1131,6,20,-109
31800641,0.408935546875,0.26702880859375,0.585693359375,0.646728515625,430,5449,1066,6,21,-117
31810622,0.41680908203125,0.25677490234375,0.59130859375,0.6407470703125,41,5388,983,6,22,-126
31820605,0.42510986328125,0.2457275390625,0.59722900390625,0.6341552734375,-346,5338,905,7,23,-133
31830588,0.4334716796875,0.234375,0.60308837890625,0.627197265625,-732,5315,841,7,24,-134
31840570,0.4415283203125,0.22320556640625,0.608642578125,0.6202392578125,-1102,5296,778,7,23,-129
31850551,0.448974609375,0.2122802734375,0.61395263671875,0.6134033203125,-1495,5271,737,7,23,-123
31860536,0.45611572265625,0.20172119140625,0.61895751953125,0.606689453125,-1903,5240,673,6,22,-118
31870516,0.46319580078125,0.19097900390625,0.62384033203125,0.5997314453125,-2311,5190,646,6,23,-120
31880498,0.470703125,0.17962646484375,0.62884521484375,0.59210205078125,-2743,5113,596,7,23,-128
31890480,0.4788818359375,0.1673583984375,0.63397216796875,0.58367919921875,-3138,5054,550,8,23,-140
31900464,0.48748779296875,0.1544189453125,0.63909912109375,0.574462890625,-3473,5031,507,8,23,-147
31910445,0.49609375,0.14129638671875,0.64398193359375,0.56488037109375,-3809,5034,458,8,22,-147
31920425,0.50433349609375,0.12841796875,0.6485595703125,0.55535888671875,-4141,5012,444,8,21,-142
31930417,0.511962890625,0.11614990234375,0.65264892578125,0.5462646484375,-4460,4993,431,6,20,-133
31940401,0.51910400390625,0.1043701171875,0.65625,0.5374755859375,-4751,4896,384,5,19,-127
31950375,0.52593994140625,0.0928955078125,0.6595458984375,0.52880859375,-4968,4762,357,5,18,-125
31960359,0.53271484375,0.08135986328125,0.66259765625,0.52008056640625,-5119,4631,321,4,17,-126
31970344,0.53948974609375,0.06964111328125,0.66546630859375,0.510986328125,-5253,4476,287,4,17,-130
31980323,0.5465087890625,0.05731201171875,0.66827392578125,0.5013427734375,-5411,4340,274,5,18,-137
31990303,0.55364990234375,0.04443359375,0.6710205078125,0.4910888671875,-5598,4240,254,5,19,-143
32000287,0.56072998046875,0.03106689453125,0.67352294921875,0.48046875,-5781,4163,252,4,21,-147
32010268,0.5677490234375,0.0174560546875,0.67578125,0.46966552734375,-6004,4083,263,3,21,-147
32020252,0.57440185546875,0.00384521484375,0.677734375,0.45892333984375,-6240,3957,277,1,21,-146
32032989,0.58087158203125,-0.00982666015625,0.6793212890625,0.44818115234375,-6497,3753,254,0,21,-145
32040226,0.5870361328125,-0.02349853515625,0.68072509765625,0.4373779296875,-6725,3489,228,-1,21,-143
32050209,0.5928955078125,-0.03717041015625,0.6820068359375,0.42645263671875,-6921,3172,165,0,23,-141
32060186,0.59820556640625,-0.050537109375,0.68316650390625,0.4156494140625,-7073,2902,123,0,24,-137
32070177,0.60272216796875,-0.06329345703125,0.68438720703125,0.4052734375,-7255,2691,75,1,27,-128
32080161,0.6064453125,-0.0751953125,0.68560791015625,0.39544677734375,-7440,2608,76,1,28,-118
32090137,0.609375,-0.086181640625,0.686767578125,0.38665771484375,-7622,2628,116,-1,29,-107
32100110,0.61175537109375,-0.09649658203125,0.687744140625,0.378662109375,-7906,2668,151,-3,29,-100
32110091,0.6141357421875,-0.10687255859375,0.68829345703125,0.37078857421875,-8267,2591,155,-6,27,-102
32120074,0.61688232421875,-0.11822509765625,0.68853759765625,0.36236572265625,-8626,2397,113,-7,26,-112
32130057,0.6199951171875,-0.13067626953125,0.68841552734375,0.35284423828125,-8982,2070,24,-7,26,-124
32140045,0.62347412109375,-0.14410400390625,0.68798828125,0.34222412109375,-9245,1710,-65,-7,27,-134
32150025,0.62664794921875,-0.15753173828125,0.68743896484375,0.33135986328125,-9381,1429,-125,-6,28,-132
32160004,0.62933349609375,-0.1700439453125,0.6868896484375,0.32110595703125,-9472,1260,-133,-6,28,-122
32169989,0.63128662109375,-0.18133544921875,0.6864013671875,0.31195068359375,-9588,1196,-80,-6,29,-109
32179976,0.63275146484375,-0.1915283203125,0.6859130859375,0.303955078125,-9705,1205,-11,-7,27,-98
32189950,0.63397216796875,-0.20098876953125,0.68524169921875,0.29681396484375,-9796,1234,40,-10,25,-93
32199933,0.63519287109375,-0.21044921875,0.6842041015625,0.28997802734375,-9860,1214,43,-12,22,-94
32209915,0.6365966796875,-0.22027587890625,0.68267822265625,0.282958984375,-9895,1125,14,-14,20,-98
32219897,0.63824462890625,-0.2305908203125,0.6807861328125,0.27557373046875,-9914,989,-73,-15,18,-105
32229880,0.6400146484375,-0.24127197265625,0.678466796875,0.26788330078125,-9915,806,-133,-15,15,-108
32239860,0.6419677734375,-0.25201416015625,0.67572021484375,0.26007080078125,-9943,609,-176,-16,13,-110
32249844,0.64404296875,-0.2626953125,0.67266845703125,0.25225830078125,-10023,382,-217,-16,11,-111
32259824,0.64617919921875,-0.27337646484375,0.66925048828125,0.24444580078125,-10139,138,-283,-16,8,-111
32269808,0.64837646484375,-0.283935546875,0.66552734375,0.236572265625,-10241,-106,-346,-16,5,-112
32279790,0.65081787109375,-0.29437255859375,0.661376953125,0.228759765625,-10326,-356,-397,-16,2,-113
32289768,0.6533203125,-0.30462646484375,0.6568603515625,0.22100830078125,-10395,-660,-481,-15,-1,-111
32299756,0.6558837890625,-0.3145751953125,0.652099609375,0.21331787109375,-10459,-1005,-563,-14,-4,-109
32309738,0.6585693359375,-0.32403564453125,0.64727783203125,0.2056884765625,-10523,-1363,-635,-12,-6,-106
32319715,0.66119384765625,-0.3331298828125,0.64239501953125,0.197998046875,-10561,-1713,-702,-9,-6,-105
32329697,0.6636962890625,-0.3416748046875,0.63751220703125,0.1903076171875,-10523,-1980,-724,-7,-6,-102
32339681,0.6661376953125,-0.349609375,0.63287353515625,0.18280029296875,-10413,-2166,-716,-4,-6,-96
32349664,0.6683349609375,-0.356689453125,0.6285400390625,0.17584228515625,-10273,-2268,-664,-3,-6,-89
32359645,0.6702880859375,-0.36297607421875,0.62457275390625,0.1695556640625,-10122,-2302,-577,-2,-5,-80
32369630,0.67205810546875,-0.36846923828125,0.6209716796875,0.1640625,-10003,-2317,-518,-2,-5,-72
32379608,0.67352294921875,-0.37353515625,0.61767578125,0.15899658203125,-9956,-2356,-487,-3,-4,-68
32389591,0.67486572265625,-0.37847900390625,0.6143798828125,0.154052734375,-9967,-2438,-476,-3,-3,-68
32399572,0.6761474609375,-0.38372802734375,0.61102294921875,0.14874267578125,-9993,-2560,-476,-2,-2,-72
32409563,0.67742919921875,-0.38946533203125,0.607421875,0.1427001953125,-10030,-2729,-464,-2,0,-80
32419540,0.67864990234375,-0.395751953125,0.60357666015625,0.1358642578125,-10043,-2904,-452,-2,2,-87
32429525,0.6798095703125,-0.4022216796875,0.59954833984375,0.128662109375,-10023,-3075,-421,-1,3,-89
32439506,0.6807861328125,-0.40838623046875,0.59576416015625,0.1217041015625,-9977,-3176,-358,-2,4,-84
32449485,0.6815185546875,-0.4136962890625,0.59246826171875,0.1156005859375,-9958,-3249,-294,-2,5,-73
32459467,0.68182373046875,-0.41802978515625,0.58990478515625,0.11077880859375,-10009,-3363,-279,-3,6,-58
32469451,0.681884765625,-0.42132568359375,0.58819580078125,0.107177734375,-10080,-3496,-295,-3,6,-43
32479429,0.68157958984375,-0.42364501953125,0.58734130859375,0.104736328125,-10173,-3609,-302,-3,7,-30
32489422,0.68109130859375,-0.425048828125,0.58709716796875,0.103271484375,-10253,-3693,-313,-3,8,-18
32499403,0.680419921875,-0.42572021484375,0.5875244140625,0.1026611328125,-10305,-3710,-287,-3,9,-8
32509390,0.67962646484375,-0.42559814453125,0.5885009765625,0.102783203125,-10342,-3674,-240,-3,11,1
32519361,0.6785888671875,-0.42486572265625,0.590087890625,0.10369873046875,-10345,-3588,-198,-4,12,10
32529347,0.67730712890625,-0.42340087890625,0.59228515625,0.10546875,-10333,-3446,-140,-4,13,20
32539331,0.6759033203125,-0.42120361328125,0.59503173828125,0.10809326171875,-10286,-3231,-73,-4,14,30
32549312,0.67425537109375,-0.41827392578125,0.5982666015625,0.11151123046875,-10236,-3001,-7,-5,14,39
32559292,0.67242431640625,-0.41485595703125,0.6019287109375,0.11553955078125,-10224,-2784,41,-5,15,45
32569276,0.67041015625,-0.4112548828125,0.60577392578125,0.119873046875,-10239,-2594,85,-6,16,48
32579258,0.66839599609375,-0.407470703125,0.60968017578125,0.12420654296875,-10311,-2444,109,-5,16,48
32589238,0.6663818359375,-0.4036865234375,0.613525390625,0.12847900390625,-10474,-2348,112,-5,17,48
32599229,0.66436767578125,-0.39996337890625,0.6173095703125,0.132568359375,-10711,-2347,85,-4,16,46
32609209,0.66241455078125,-0.39630126953125,0.62091064453125,0.13641357421875,-11005,-2418,33,-3,16,45
32619189,0.6605224609375,-0.392578125,0.6243896484375,0.14013671875,-11267,-2537,-64,-2,15,46
32629186,0.65875244140625,-0.38861083984375,0.62786865234375,0.14385986328125,-11509,-2689,-190,0,13,50
32639168,0.656982421875,-0.38409423828125,0.63153076171875,0.1480712890625,-11732,-2845,-332,1,11,58
32649148,0.6552734375,-0.37860107421875,0.635498046875,0.15283203125,-11902,-3000,-494,4,9,69
32659123,0.65350341796875,-0.37188720703125,0.639892578125,0.1585693359375,-12027,-3103,-646,6,6,83
32669104,0.65155029296875,-0.36376953125,0.644775390625,0.16534423828125,-12077,-3095,-760,8,4,99
32679088,0.64947509765625,-0.35430908203125,0.6500244140625,0.17333984375,-12093,-2992,-832,9,2,113
32689067,0.647216796875,-0.343505859375,0.65557861328125,0.18231201171875,-12052,-2794,-881,11,0,126
32699049,0.644775390625,-0.331787109375,0.66119384765625,0.1920166015625,-11967,-2535,-905,11,-2,135
32709029,0.64215087890625,-0.31951904296875,0.66680908203125,0.2021484375,-11836,-2247,-924,11,-3,139
32719012,0.63934326171875,-0.30706787109375,0.672119140625,0.21246337890625,-11666,-1932,-931,10,-5,140
32728994,0.636474609375,-0.294677734375,0.67706298828125,0.22265625,-11503,-1620,-946,9,-5,137
32738982,0.6334228515625,-0.2825927734375,0.681640625,0.232666015625,-11306,-1309,-946,8,-6,135
32748960,0.63037109375,-0.2708740234375,0.685791015625,0.2425537109375,-11085,-1024,-952,6,-7,131
32758942,0.62713623046875,-0.259521484375,0.68963623046875,0.25225830078125,-10876,-786,-960,4,-7,129
32768924,0.62371826171875,-0.24847412109375,0.69317626953125,0.26202392578125,-10658,-528,-968,1,-7,128
32778908,0.62005615234375,-0.23748779296875,0.69647216796875,0.27191162109375,-10429,-260,-965,-2,-7,128
32788887,0.6162109375,-0.2265625,0.69952392578125,0.28204345703125,-10232,-9,-957,-4,-8,130
32798872,0.61212158203125,-0.21563720703125,0.70233154296875,0.2923583984375,-10074,192,-969,-6,-8,132
32808851,0.6077880859375,-0.2047119140625,0.70489501953125,0.3028564453125,-9939,380,-980,-9,-8,134
32818834,0.60321044921875,-0.19366455078125,0.70721435546875,0.31365966796875,-9801,556,-986,-11,-9,136
32828815,0.59832763671875,-0.18255615234375,0.70941162109375,0.32452392578125,-9688,690,-1005,-11,-8,139
32838799,0.59332275390625,-0.17144775390625,0.71136474609375,0.3353271484375,-9582,824,-1018,-12,-9,139
32848781,0.58807373046875,-0.160400390625,0.71319580078125,0.34600830078125,-9454,958,-1046,-12,-8,138
32858762,0.582763671875,-0.14947509765625,0.71484375,0.35638427734375,-9298,1081,-1054,-12,-8,137
32868752,0.5772705078125,-0.13848876953125,0.71630859375,0.36663818359375,-9138,1211,-1076,-11,-8,138
32878735,0.57147216796875,-0.12713623046875,0.7176513671875,0.376953125,-8980,1374,-1090,-10,-8,141
32888709,0.5654296875,-0.1153564453125,0.71893310546875,0.3873291015625,-8829,1582,-1059,-9,-8,145
32898693,0.55902099609375,-0.10302734375,0.7200927734375,0.39788818359375,-8656,1850,-1025,-9,-8,149
32908676,0.5523681640625,-0.09039306640625,0.720947265625,0.40850830078125,-8449,2144,-965,-9,-9,151
32918658,0.5455322265625,-0.0775146484375,0.7215576171875,0.41912841796875,-8230,2445,-903,-9,-10,151
32928640,0.53863525390625,-0.06475830078125,0.72186279296875,0.42950439453125,-7986,2737,-837,-9,-10,149
32938623,0.53173828125,-0.0521240234375,0.721923828125,0.43963623046875,-7724,2992,-777,-9,-10,147
32948604,0.5247802734375,-0.039794921875,0.7218017578125,0.44940185546875,-7469,3227,-730,-9,-9,143
32958590,0.517822265625,-0.02777099609375,0.721435546875,0.4588623046875,-7210,3447,-664,-8,-9,140
32968571,0.5107421875,-0.01580810546875,0.72088623046875,0.46807861328125,-6964,3705,-585,-8,-8,139
32978553,0.50335693359375,-0.0037841796875,0.72015380859375,0.47735595703125,-6722,3995,-503,-9,-7,141
32988536,0.49560546875,0.008544921875,0.71917724609375,0.48681640625,-6478,4307,-421,-10,-7,146
32998519,0.48724365234375,0.0213623046875,0.7177734375,0.49676513671875,-6233,4613,-353,-12,-7,152
33008501,0.47833251953125,0.0345458984375,0.716064453125,0.507080078125,-5988,4893,-291,-14,-6,157
33018483,0.468994140625,0.0478515625,0.71392822265625,0.51763916015625,-5736,5160,-237,-17,-6,160
33028464,0.4593505859375,0.06103515625,0.71142578125,0.52825927734375,-5489,5386,-198,-19,-5,160
33038446,0.44976806640625,0.0736083984375,0.7086181640625,0.53857421875,-5277,5522,-195,-21,-4,155
33048425,0.4405517578125,0.08526611328125,0.70556640625,0.54833984375,-5117,5584,-198,-23,-4,146
33058417,0.431884765625,0.09588623046875,0.702392578125,0.5574951171875,-4970,5580,-227,-24,-3,137
33068402,0.4237060546875,0.1055908203125,0.69915771484375,0.5660400390625,-4860,5549,-265,-25,-3,129
33078376,0.415771484375,0.1148681640625,0.69573974609375,0.57427978515625,-4748,5491,-316,-26,-4,127
33088360,0.40777587890625,0.1241455078125,0.69207763671875,0.5823974609375,-4609,5452,-373,-27,-5,128
33098344,0.39947509765625,0.1337890625,0.68817138671875,0.59063720703125,-4457,5442,-405,-27,-6,133
33108324,0.39080810546875,0.14385986328125,0.68389892578125,0.59893798828125,-4249,5450,-419,-28,-6,137
33118308,0.3818359375,0.15435791015625,0.67926025390625,0.60736083984375,-4013,5474,-408,-29,-8,141
33128291,0.3726806640625,0.1649169921875,0.67431640625,0.61572265625,-3761,5524,-375,-29,-9,141
33138272,0.36370849609375,0.17535400390625,0.66900634765625,0.6239013671875,-3501,5559,-324,-30,-9,138
33148255,0.3551025390625,0.18536376953125,0.66363525390625,0.63165283203125,-3221,5551,-283,-30,-10,132
33158233,0.3470458984375,0.19464111328125,0.65826416015625,0.63897705078125,-2948,5515,-230,-30,-10,123
33168224,0.33966064453125,0.203369140625,0.65283203125,0.645751953125,-2679,5435,-193,-30,-12,115
33178207,0.3326416015625,0.211669921875,0.6474609375,0.652099609375,-2412,5352,-154,-29,-12,110
33188188,0.3258056640625,0.21990966796875,0.64202880859375,0.65814208984375,-2111,5291,-104,-29,-13,109
33198179,0.31866455078125,0.22845458984375,0.63641357421875,0.6641845703125,-1797,5280,-30,-28,-14,112
33208160,0.3111572265625,0.2374267578125,0.63055419921875,0.670166015625,-1478,5322,57,-27,-15,116
33218137,0.30322265625,0.246826171875,0.6243896484375,0.6761474609375,-1185,5418,171,-26,-16,120
33228113,0.295166015625,0.25640869140625,0.617919921875,0.6820068359375,-925,5526,301,-26,-17,122
33238096,0.287109375,0.26617431640625,0.6112060546875,0.68780517578125,-707,5641,455,-27,-19,123
33248078,0.27923583984375,0.27618408203125,0.60400390625,0.69342041015625,-575,5716,639,-27,-23,125
33258060,0.27154541015625,0.2864990234375,0.5963134765625,0.69891357421875,-474,5757,818,-29,-28,127
33268045,0.26446533203125,0.297119140625,0.58807373046875,0.70416259765625,-410,5790,984,-31,-35,125
33278026,0.25848388671875,0.3077392578125,0.57958984375,0.7088623046875,-307,5819,1119,-32,-43,117
33288008,0.25421142578125,0.31793212890625,0.57098388671875,0.71282958984375,-123,5870,1220,-35,-50,102
33297992,0.251953125,0.3272705078125,0.56268310546875,0.71600341796875,161,5950,1279,-37,-55,81
33307980,0.251708984375,0.33544921875,0.5548095703125,0.71844482421875,515,6004,1297,-39,-58,59
33317960,0.25335693359375,0.34246826171875,0.5474853515625,0.72015380859375,886,5983,1274,-41,-60,39
33327941,0.25640869140625,0.3485107421875,0.540771484375,0.7213134765625,1261,5923,1216,-41,-60,24
33337924,0.26007080078125,0.35394287109375,0.53448486328125,0.72198486328125,1604,5791,1146,-39,-60,15
33347906,0.26385498046875,0.359130859375,0.52862548828125,0.72235107421875,1905,5633,1092,-36,-58,12
33357888,0.26739501953125,0.36419677734375,0.5230712890625,0.72259521484375,2169,5463,1044,-33,-56,12
33367872,0.27044677734375,0.36932373046875,0.517822265625,0.72265625,2421,5304,1025,-29,-53,13
33377854,0.2728271484375,0.3743896484375,0.51287841796875,0.72265625,2659,5181,1032,-24,-50,15
33387837,0.2745361328125,0.37945556640625,0.50823974609375,0.72265625,2888,5107,1059,-20,-46,18
33397820,0.275390625,0.38458251953125,0.5037841796875,0.7227783203125,3141,5134,1128,-17,-42,23
33407800,0.2752685546875,0.3896484375,0.49951171875,0.7230224609375,3409,5233,1197,-14,-36,27
33417782,0.2745361328125,0.39453125,0.49542236328125,0.72344970703125,3654,5398,1288,-12,-32,29
33427761,0.27349853515625,0.39892578125,0.49176025390625,0.7239990234375,3901,5582,1364,-9,-26,26
33437753,0.27252197265625,0.402587890625,0.4886474609375,0.72442626953125,4137,5761,1440,-8,-21,20
33447735,0.27191162109375,0.40533447265625,0.48614501953125,0.72479248046875,4343,5884,1524,-7,-16,12
33457710,0.27154541015625,0.40716552734375,0.484375,0.72509765625,4497,5973,1594,-5,-10,4
33467689,0.27142333984375,0.40826416015625,0.48309326171875,0.725341796875,4620,6011,1656,-4,-6,-2
33477664,0.2713623046875,0.40863037109375,0.482421875,0.72564697265625,4692,6030,1712,-2,-1,-6
33487650,0.2713623046875,0.4085693359375,0.482177734375,0.725830078125,4707,6008,1761,-1,3,-10
33497635,0.2713623046875,0.407958984375,0.4822998046875,0.72607421875,4690,5998,1825,1,6,-13
33507615,0.2716064453125,0.4068603515625,0.48291015625,0.7261962890625,4633,5988,1873,3,8,-18
33517599,0.2720947265625,0.40521240234375,0.48419189453125,0.72607421875,4564,5969,1914,5,11,-25
33527580,0.2730712890625,0.40301513671875,0.48602294921875,0.7257080078125,4493,5985,1941,7,13,-32
33537561,0.27435302734375,0.40020751953125,0.48846435546875,0.72509765625,4398,5983,1966,9,16,-38
33547542,0.27581787109375,0.39703369140625,0.491455078125,0.724365234375,4304,5988,1948,11,18,-42
33557526,0.27728271484375,0.3935546875,0.4947509765625,0.72344970703125,4188,5991,1912,13,20,-44
33567508,0.27874755859375,0.38983154296875,0.49835205078125,0.722412109375,4055,5976,1862,14,22,-45
33577490,0.28021240234375,0.3858642578125,0.502197265625,0.7213134765625,3886,5945,1812,15,23,-47
33587472,0.28167724609375,0.381591796875,0.50634765625,0.7200927734375,3721,5892,1760,16,26,-50
33597454,0.2833251953125,0.37701416015625,0.51068115234375,0.71881103515625,3567,5839,1699,17,27,-53
33607443,0.2852783203125,0.3720703125,0.51531982421875,0.71728515625,3396,5797,1673,17,27,-57
33617426,0.28753662109375,0.36676025390625,0.5201416015625,0.715576171875,3217,5761,1641,17,28,-62
33627408,0.290283203125,0.36102294921875,0.5252685546875,0.7137451171875,3038,5709,1578,17,29,-67
33637392,0.29351806640625,0.35467529296875,0.5306396484375,0.7115478515625,2840,5634,1507,17,30,-74
33647370,0.29736328125,0.3477783203125,0.536376953125,0.7091064453125,2635,5569,1428,17,30,-82
33657350,0.3018798828125,0.34033203125,0.54229736328125,0.70623779296875,2429,5477,1348,16,30,-90
33667334,0.30718994140625,0.33221435546875,0.548583984375,0.7030029296875,2177,5371,1273,16,30,-99
33677317,0.3133544921875,0.32354736328125,0.5550537109375,0.69921875,1911,5246,1198,15,28,-107
33687300,0.3201904296875,0.3143310546875,0.5616455078125,0.695068359375,1663,5151,1133,15,27,-113
33697281,0.32733154296875,0.304931640625,0.56817626953125,0.69061279296875,1424,5078,1071,15,26,-116
33707262,0.334716796875,0.29547119140625,0.5745849609375,0.68585205078125,1174,4975,1001,14,24,-117
33717250,0.34210205078125,0.2861328125,0.580810546875,0.680908203125,918,4845,887,15,22,-116
33727232,0.349609375,0.27679443359375,0.5870361328125,0.67559814453125,643,4687,768,15,20,-118
33737214,0.35748291015625,0.26727294921875,0.5933837890625,0.66973876953125,339,4538,656,17,19,-122
33747200,0.365966796875,0.2572021484375,0.60003662109375,0.66314697265625,-9,4429,527,19,17,-131
33757185,0.37542724609375,0.246337890625,0.60699462890625,0.65557861328125,-392,4327,408,21,16,-144
33767171,0.38580322265625,0.23455810546875,0.6143798828125,0.64697265625,-786,4260,318,23,15,-155
33777154,0.39678955078125,0.2220458984375,0.62188720703125,0.63751220703125,-1142,4257,241,24,15,-164
33787124,0.40802001953125,0.20904541015625,0.6292724609375,0.62750244140625,-1475,4305,186,25,15,-168
33797105,0.41912841796875,0.19586181640625,0.636474609375,0.6170654296875,-1787,4357,133,25,15,-168
33807088,0.429931640625,0.18267822265625,0.643310546875,0.60650634765625,-2115,4431,81,25,16,-166
33817069,0.4404296875,0.169189453125,0.64996337890625,0.595703125,-2486,4517,21,24,17,-167
33827053,0.4510498046875,0.15509033203125,0.65643310546875,0.5843505859375,-2961,4544,-48,23,18,-173
33837036,0.46197509765625,0.13995361328125,0.662841796875,0.572265625,-3499,4555,-127,23,20,-181
33847018,0.47314453125,0.1239013671875,0.6690673828125,0.55950927734375,-4030,4591,-203,22,21,-188
33857004,0.48406982421875,0.10736083984375,0.67486572265625,0.54644775390625,-4527,4622,-266,19,23,-188
33866989,0.4942626953125,0.09088134765625,0.68017578125,0.53350830078125,-4903,4665,-326,17,25,-182
33876975,0.50323486328125,0.0751953125,0.68499755859375,0.52130126953125,-5142,4756,-366,15,26,-169
33886948,0.51080322265625,0.06072998046875,0.689208984375,0.51019287109375,-5322,4837,-368,13,28,-154
33896931,0.51715087890625,0.047119140625,0.69305419921875,0.49993896484375,-5589,4873,-378,11,30,-141
33906915,0.52288818359375,0.03387451171875,0.69647216796875,0.4901123046875,-5909,4896,-352,9,30,-136
33916895,0.5283203125,0.02056884765625,0.6995849609375,0.48052978515625,-6264,4885,-343,7,31,-135
33926878,0.5338134765625,0.0069580078125,0.702392578125,0.470703125,-6689,4790,-345,5,31,-137
33936860,0.5394287109375,-0.00726318359375,0.704833984375,0.46051025390625,-7171,4603,-357,4,31,-142
33946841,0.54522705078125,-0.0220947265625,0.70703125,0.44970703125,-7660,4334,-436,4,31,-147
33956824,0.551025390625,-0.037353515625,0.70904541015625,0.43829345703125,-8070,4039,-496,4,31,-151
33966806,0.55670166015625,-0.05255126953125,0.71075439453125,0.4266357421875,-8353,3780,-526,6,31,-150
33976790,0.5618896484375,-0.06707763671875,0.7122802734375,0.41510009765625,-8646,3569,-549,7,31,-144
33986768,0.5665283203125,-0.08074951171875,0.713623046875,0.4039306640625,-8963,3425,-537,8,30,-136
33996760,0.57073974609375,-0.09356689453125,0.71466064453125,0.39324951171875,-9313,3328,-536,8,28,-128
34006742,0.57464599609375,-0.1055908203125,0.71539306640625,0.383056640625,-9634,3250,-534,8,26,-122
34016718,0.5784912109375,-0.11700439453125,0.71575927734375,0.3731689453125,-9831,3154,-555,7,22,-118
34026700,0.5821533203125,-0.1278076171875,0.71575927734375,0.36370849609375,-9950,3004,-574,7,19,-113
34036682,0.58575439453125,-0.13800048828125,0.715576171875,0.3544921875,-10017,2774,-633,8,17,-109
34046666,0.58929443359375,-0.14788818359375,0.71533203125,0.3450927734375,-10010,2504,-715,10,16,-108
34056648,0.59283447265625,-0.15765380859375,0.7149658203125,0.33538818359375,-9905,2244,-785,12,16,-110
34066631,0.59613037109375,-0.16717529296875,0.714599609375,0.32550048828125,-9688,2087,-802,15,17,-109
34076614,0.59912109375,-0.17584228515625,0.71429443359375,0.31597900390625,-9363,2082,-763,16,17,-102
34086595,0.6015625,-0.18353271484375,0.71405029296875,0.307373046875,-9062,2173,-648,15,17,-93
34096577,0.603759765625,-0.1904296875,0.7137451171875,0.299560546875,-8919,2253,-568,14,16,-88
34106559,0.60601806640625,-0.19757080078125,0.71307373046875,0.29180908203125,-8892,2226,-495,11,14,-91
34116541,0.6085205078125,-0.20562744140625,0.71197509765625,0.28350830078125,-8929,2091,-527,10,14,-101
34126522,0.61138916015625,-0.21502685546875,0.71044921875,0.27410888671875,-8984,1825,-615,9,13,-116
34136507,0.61456298828125,-0.22576904296875,0.70843505859375,0.263427734375,-9017,1519,-688,9,15,-129
34146489,0.61767578125,-0.23712158203125,0.70611572265625,0.252197265625,-9020,1247,-767,8,16,-134
34156473,0.62042236328125,-0.248291015625,0.7037353515625,0.24114990234375,-8955,1036,-781,7,16,-130
34166454,0.62261962890625,-0.258544921875,0.701416015625,0.23114013671875,-8819,924,-730,5,17,-118
34176432,0.62420654296875,-0.267578125,0.69940185546875,0.22259521484375,-8688,825,-674,2,16,-102
34186419,0.625244140625,-0.2755126953125,0.69757080078125,0.21551513671875,-8777,650,-690,-2,16,-88
34196400,0.62603759765625,-0.283203125,0.69580078125,0.20892333984375,-9121,289,-816,-4,15,-85
34206376,0.62701416015625,-0.29168701171875,0.69354248046875,0.20166015625,-9583,-199,-985,-4,14,-95
34216359,0.62841796875,-0.301513671875,0.69061279296875,0.19293212890625,-10040,-737,-1170,-3,13,-112
34226344,0.630126953125,-0.31256103515625,0.68682861328125,0.1827392578125,-10429,-1250,-1350,-1,12,-127
34236328,0.6322021484375,-0.32421875,0.68243408203125,0.17169189453125,-10691,-1668,-1438,0,10,-135
34246308,0.6343994140625,-0.33544921875,0.67755126953125,0.16070556640625,-10844,-2007,-1450,2,7,-133
34256290,0.6365966796875,-0.34564208984375,0.6727294921875,0.15045166015625,-10931,-2294,-1443,3,3,-122
34266271,0.63885498046875,-0.3543701171875,0.66796875,0.1414794921875,-11006,-2553,-1432,4,-2,-107
34276250,0.64117431640625,-0.3616943359375,0.6634521484375,0.13360595703125,-11160,-2841,-1459,6,-6,-94
34286238,0.64361572265625,-0.36798095703125,0.65899658203125,0.12652587890625,-11367,-3159,-1524,8,-9,-86
34296222,0.646240234375,-0.37396240234375,0.65435791015625,0.119384765625,-11603,-3512,-1620,10,-12,-87
34306204,0.649169921875,-0.38006591796875,0.6492919921875,0.11175537109375,-11845,-3862,-1705,13,-15,-93
34316188,0.65234375,-0.38629150390625,0.643798828125,0.10357666015625,-11986,-4125,-1751,16,-17,-99
34326177,0.6556396484375,-0.3924560546875,0.63800048828125,0.0950927734375,-12029,-4281,-1719,18,-17,-100
34336161,0.65887451171875,-0.39794921875,0.63232421875,0.08709716796875,-11991,-4362,-1666,18,-18,-94
34346136,0.6619873046875,-0.40252685546875,0.62713623046875,0.08001708984375,-11887,-4386,-1590,18,-18,-81
34356112,0.66485595703125,-0.40570068359375,0.62274169921875,0.07440185546875,-11679,-4306,-1493,18,-18,-64
34366094,0.66729736328125,-0.40740966796875,0.61944580078125,0.07061767578125,-11388,-4098,-1383,16,-17,-42
34376077,0.6693115234375,-0.40728759765625,0.61749267578125,0.0689697265625,-11043,-3731,-1226,14,-15,-18
34386063,0.67083740234375,-0.405517578125,0.616943359375,0.06964111328125,-10693,-3206,-1027,10,-12,5
34396045,0.6717529296875,-0.40240478515625,0.61767578125,0.07257080078125,-10359,-2600,-797,4,-10,26
34406019,0.67205810546875,-0.3983154296875,0.619384765625,0.07720947265625,-10095,-1990,-570,-1,-6,40
34415999,0.67169189453125,-0.39398193359375,0.62176513671875,0.08294677734375,-9869,-1446,-393,-7,-3,47
34425990,0.67071533203125,-0.3900146484375,0.62451171875,0.08917236328125,-9710,-1036,-256,-13,1,48
34435973,0.669189453125,-0.38677978515625,0.62725830078125,0.0953369140625,-9646,-781,-143,-19,5,44
34445949,0.66717529296875,-0.3843994140625,0.62994384765625,0.1011962890625,-9651,-700,-98,-23,8,39
34455929,0.6649169921875,-0.3826904296875,0.6324462890625,0.1065673828125,-9703,-741,-81,-25,11,35
34465912,0.66241455078125,-0.38134765625,0.635009765625,0.11175537109375,-9777,-887,-116,-26,12,34
34475895,0.6597900390625,-0.38006591796875,0.6375732421875,0.11688232421875,-9878,-1134,-197,-26,13,37
34485877,0.6571044921875,-0.3785400390625,0.64031982421875,0.12213134765625,-9983,-1425,-306,-25,13,42
34495859,0.6544189453125,-0.37652587890625,0.6431884765625,0.1275634765625,-10147,-1765,-439,-23,12,48
34505843,0.65179443359375,-0.37396240234375,0.64617919921875,0.133056640625,-10297,-2120,-586,-20,10,53
34515825,0.6494140625,-0.37078857421875,0.64923095703125,0.13848876953125,-10449,-2446,-730,-15,9,57
34525808,0.64727783203125,-0.36700439453125,0.65234375,0.14385986328125,-10604,-2716,-854,-11,7,61
34535792,0.6453857421875,-0.36248779296875,0.655517578125,0.149169921875,-10731,-2914,-972,-6,5,65
34545778,0.64385986328125,-0.3572998046875,0.65869140625,0.15447998046875,-10841,-3030,-1084,-1,2,69
34555760,0.64251708984375,-0.35125732421875,0.66192626953125,0.1597900390625,-10926,-3058,-1175,4,0,73
34565749,0.64154052734375,-0.34454345703125,0.66510009765625,0.16522216796875,-10986,-3012,-1236,8,-3,77
34575728,0.64080810546875,-0.33721923828125,0.668212890625,0.17059326171875,-11045,-2908,-1281,12,-6,79
34585706,0.64031982421875,-0.3294677734375,0.671142578125,0.17584228515625,-11062,-2752,-1317,15,-8,79
34595687,0.63995361328125,-0.32147216796875,0.67401123046875,0.18096923828125,-11041,-2536,-1326,17,-10,79
34605669,0.6397705078125,-0.31329345703125,0.6766357421875,0.18603515625,-10993,-2263,-1312,18,-12,78
34615652,0.63958740234375,-0.3048095703125,0.67919921875,0.1912841796875,-10907,-1942,-1277,19,-13,81
34625633,0.6392822265625,-0.2958984375,0.68182373046875,0.1968994140625,-10786,-1590,-1209,18,-13,86
34635617,0.638671875,-0.28643798828125,0.68463134765625,0.20330810546875,-10648,-1201,-1134,16,-13,93
34645598,0.6375732421875,-0.27630615234375,0.68756103515625,0.21063232421875,-10504,-829,-1060,13,-12,102
34655581,0.63592529296875,-0.26568603515625,0.690673828125,0.21881103515625,-10384,-474,-994,10,-11,111
34665562,0.63372802734375,-0.2547607421875,0.69390869140625,0.22784423828125,-10273,-157,-939,6,-9,118
34675546,0.6309814453125,-0.24365234375,0.69720458984375,0.2374267578125,-10198,105,-887,2,-8,123
34685536,0.627685546875,-0.23248291015625,0.70037841796875,0.24761962890625,-10126,355,-840,-2,-6,128
34695509,0.62384033203125,-0.2213134765625,0.70361328125,0.25823974609375,-10059,556,-862,-6,-4,132
34705491,0.61944580078125,-0.2100830078125,0.706787109375,0.269287109375,-10000,727,-889,-8,-2,136
34715479,0.61444091796875,-0.19873046875,0.7099609375,0.2806396484375,-9946,879,-924,-11,0,141
34725458,0.60894775390625,-0.18731689453125,0.71319580078125,0.292236328125,-9881,1005,-969,-13,2,145
34735443,0.60296630859375,-0.17578125,0.71630859375,0.303955078125,-9836,1139,-1052,-14,4,147
34745429,0.5965576171875,-0.16436767578125,0.7193603515625,0.3155517578125,-9799,1231,-1107,-14,6,148
34755410,0.58990478515625,-0.15301513671875,0.72222900390625,0.32696533203125,-9772,1336,-1158,-14,7,148
34765394,0.58306884765625,-0.1417236328125,0.72491455078125,0.33819580078125,-9743,1448,-1171,-14,8,148
34775369,0.57598876953125,-0.13031005859375,0.7274169921875,0.349365234375,-9687,1585,-1186,-14,8,149
34785352,0.5687255859375,-0.11865234375,0.72967529296875,0.3604736328125,-9608,1740,-1195,-14,7,152
34795334,0.561279296875,-0.10662841796875,0.731689453125,0.37164306640625,-9487,1918,-1195,-13,6,155
34805317,0.55364990234375,-0.09423828125,0.73345947265625,0.38287353515625,-9336,2114,-1196,-13,4,158
34815300,0.5457763671875,-0.0814208984375,0.73486328125,0.39410400390625,-9147,2313,-1191,-12,3,161
34825287,0.537841796875,-0.06829833984375,0.7359619140625,0.4052734375,-8953,2546,-1147,-12,2,161
34835266,0.52996826171875,-0.05511474609375,0.73663330078125,0.4163818359375,-8730,2801,-1081,-12,-1,160
34845240,0.52227783203125,-0.04217529296875,0.73681640625,0.4271240234375,-8512,3050,-1004,-13,-3,156
34855232,0.51495361328125,-0.0296630859375,0.73651123046875,0.43743896484375,-8290,3265,-931,-14,-5,150
34865214,0.50799560546875,-0.0177001953125,0.73583984375,0.44732666015625,-8021,3481,-851,-14,-7,143
34875200,0.5013427734375,-0.0062255859375,0.73468017578125,0.4569091796875,-7748,3672,-790,-16,-8,138
34885187,0.494873046875,0.0050048828125,0.73321533203125,0.46624755859375,-7460,3851,-744,-17,-10,135
34895168,0.4884033203125,0.0162353515625,0.73138427734375,0.4755859375,-7166,4057,-690,-18,-12,135
34905150,0.4818115234375,0.02777099609375,0.72918701171875,0.48504638671875,-6897,4257,-654,-19,-13,138
34915119,0.47503662109375,0.0394287109375,0.72662353515625,0.49468994140625,-6659,4457,-615,-21,-15,140
34925101,0.46820068359375,0.05108642578125,0.72369384765625,0.50433349609375,-6459,4670,-586,-23,-15,140
34935084,0.46142578125,0.0623779296875,0.720458984375,0.5137939453125,-6278,4849,-577,-25,-16,137
34945066,0.45489501953125,0.07330322265625,0.7169189453125,0.52301025390625,-6118,5002,-565,-26,-17,133
34955049,0.4486083984375,0.0838623046875,0.71307373046875,0.5321044921875,-5968,5073,-577,-29,-18,131
34965033,0.4422607421875,0.09429931640625,0.708984375,0.54107666015625,-5781,5132,-600,-30,-19,132
34975014,0.4354248046875,0.1051025390625,0.70452880859375,0.55029296875,-5558,5199,-624,-31,-19,138
34984998,0.42803955078125,0.11663818359375,0.69970703125,0.5599365234375,-5304,5252,-656,-33,-20,146
34994989,0.419921875,0.12884521484375,0.69439697265625,0.56988525390625,-5035,5325,-670,-34,-20,154
35004971,0.41119384765625,0.1414794921875,0.688720703125,0.580078125,-4755,5408,-665,-35,-20,160
35014948,0.4022216796875,0.15423583984375,0.68267822265625,0.59014892578125,-4471,5463,-653,-36,-20,160
35024928,0.39337158203125,0.16650390625,0.67645263671875,0.599853515625,-4187,5514,-633,-36,-20,155
35034911,0.38494873046875,0.17803955078125,0.67022705078125,0.60894775390625,-3922,5508,-616,-36,-20,146
35044894,0.37713623046875,0.18878173828125,0.66400146484375,0.61737060546875,-3636,5494,-582,-35,-19,136
35054876,0.3697509765625,0.1988525390625,0.6578369140625,0.62518310546875,-3359,5453,-533,-34,-19,128
35064858,0.3626708984375,0.20849609375,0.65179443359375,0.63250732421875,-3100,5421,-482,-33,-19,124
35074842,0.3555908203125,0.218017578125,0.64569091796875,0.63946533203125,-2842,5375,-424,-31,-19,123
35084822,0.34844970703125,0.22760009765625,0.6395263671875,0.646240234375,-2578,5358,-360,-30,-20,123
35094806,0.34124755859375,0.23724365234375,0.63330078125,0.65277099609375,-2318,5311,-282,-28,-20,122
35104787,0.33404541015625,0.24688720703125,0.62701416015625,0.658935546875,-2015,5261,-181,-27,-21,120
35114767,0.32696533203125,0.25640869140625,0.62066650390625,0.664794921875,-1719,5189,-83,-25,-22,117
35124762,0.320068359375,0.26580810546875,0.6143798828125,0.6702880859375,-1399,5114,25,-23,-22,114
35134744,0.3133544921875,0.27496337890625,0.60821533203125,0.6754150390625,-1071,5037,150,-22,-22,109
35144728,0.306884765625,0.283935546875,0.60205078125,0.68017578125,-708,4984,293,-20,-23,105
35154705,0.3004150390625,0.292724609375,0.595947265625,0.68463134765625,-318,4961,425,-18,-23,102
35164687,0.29412841796875,0.3013916015625,0.58990478515625,0.68890380859375,76,4974,566,-17,-23,99
35174669,0.287841796875,0.3099365234375,0.58380126953125,0.69293212890625,468,5005,708,-17,-23,96
35184650,0.28167724609375,0.318359375,0.57763671875,0.69683837890625,839,5069,858,-17,-23,96
35194634,0.275390625,0.32684326171875,0.57122802734375,0.70068359375,1149,5155,1024,-17,-24,98
35204616,0.2689208984375,0.33563232421875,0.56439208984375,0.70458984375,1407,5230,1169,-18,-26,101
35214598,0.26251220703125,0.3447265625,0.55712890625,0.7083740234375,1628,5298,1291,-19,-30,103
35224580,0.25677490234375,0.3536376953125,0.54974365234375,0.71185302734375,1830,5384,1393,-21,-33,95
35234562,0.25244140625,0.3619384765625,0.54254150390625,0.7147216796875,2032,5478,1462,-23,-37,81
35244545,0.25018310546875,0.36907958984375,0.53594970703125,0.71685791015625,2248,5556,1512,-25,-40,58
35254525,0.25018310546875,0.374755859375,0.53009033203125,0.71820068359375,2507,5653,1531,-27,-42,34
35264509,0.25201416015625,0.37921142578125,0.5250244140625,0.71893310546875,2807,5701,1501,-29,-43,14
35274491,0.25531005859375,0.382568359375,0.52069091796875,0.71917724609375,3094,5699,1431,-29,-41,-3
35284469,0.25946044921875,0.3851318359375,0.5169677734375,0.718994140625,3355,5649,1324,-28,-40,-13
35294449,0.263916015625,0.38720703125,0.51385498046875,0.718505859375,3564,5550,1218,-26,-37,-20
35304428,0.268310546875,0.38885498046875,0.51123046875,0.7178955078125,3700,5417,1137,-23,-34,-23
35314420,0.27264404296875,0.39007568359375,0.5091552734375,0.717041015625,3787,5286,1072,-19,-31,-26
35324403,0.2767333984375,0.3909912109375,0.5076904296875,0.71600341796875,3863,5185,1031,-15,-27,-28
35334386,0.28045654296875,0.3916015625,0.5067138671875,0.71490478515625,3915,5146,1031,-11,-23,-28
35344362,0.28338623046875,0.39208984375,0.5059814453125,0.7139892578125,3999,5180,1064,-8,-17,-24
35354345,0.2855224609375,0.392578125,0.5054931640625,0.7132568359375,4061,5275,1104,-5,-12,-20
35364328,0.28680419921875,0.392822265625,0.50518798828125,0.71282958984375,4133,5423,1161,-2,-6,-17
35374309,0.28753662109375,0.39276123046875,0.50518798828125,0.7125244140625,4210,5622,1228,0,-1,-15
35384294,0.2879638671875,0.39215087890625,0.50567626953125,0.71234130859375,4258,5833,1287,1,5,-18
35394272,0.2884521484375,0.39080810546875,0.50665283203125,0.71221923828125,4267,6008,1355,3,10,-23
35404252,0.2890625,0.388671875,0.50823974609375,0.7120361328125,4243,6145,1408,4,15,-29
35414231,0.2899169921875,0.38580322265625,0.51031494140625,0.7117919921875,4187,6212,1450,5,20,-34
35424223,0.290771484375,0.38226318359375,0.5128173828125,0.71148681640625,4104,6229,1475,6,23,-38
35434206,0.29156494140625,0.37835693359375,0.5157470703125,0.71112060546875,3993,6197,1502,8,27,-40
35444187,0.292236328125,0.3741455078125,0.5189208984375,0.7108154296875,3854,6132,1497,9,29,-41
35454177,0.29278564453125,0.36962890625,0.52239990234375,0.7103271484375,3688,6065,1490,11,32,-43
35464160,0.2935791015625,0.36468505859375,0.5262451171875,0.709716796875,3488,5958,1468,12,34,-47
35474137,0.2947998046875,0.35919189453125,0.5306396484375,0.70880126953125,3261,5831,1447,14,35,-55
35484115,0.29669189453125,0.35296630859375,0.5355224609375,0.70745849609375,3034,5697,1418,15,36,-64
35494099,0.29925537109375,0.34613037109375,0.5408935546875,0.70562744140625,2824,5580,1411,16,37,-72
35504079,0.30230712890625,0.33880615234375,0.54656982421875,0.70355224609375,2599,5494,1394,17,37,-78
35514064,0.3056640625,0.3310546875,0.552490234375,0.701171875,2382,5406,1380,18,38,-82
35524045,0.30938720703125,0.32305908203125,0.5584716796875,0.698486328125,2150,5342,1357,18,37,-86
35534027,0.31329345703125,0.31475830078125,0.56463623046875,0.695556640625,1930,5263,1318,18,37,-89
35544009,0.31756591796875,0.3062744140625,0.57086181640625,0.69232177734375,1717,5197,1254,19,36,-93
35553991,0.32220458984375,0.29754638671875,0.57720947265625,0.688720703125,1491,5106,1185,19,35,-97
35563980,0.32745361328125,0.288330078125,0.583740234375,0.6846923828125,1217,4988,1103,19,34,-105
35573955,0.3336181640625,0.27838134765625,0.59051513671875,0.67999267578125,901,4865,1018,20,33,-115
35583940,0.34075927734375,0.26763916015625,0.59759521484375,0.674560546875,559,4755,936,21,32,-126
35593922,0.34881591796875,0.256103515625,0.60498046875,0.6683349609375,239,4665,843,21,30,-137
35603905,0.35760498046875,0.2440185546875,0.6124267578125,0.661376953125,-75,4585,758,22,29,-144
35613888,0.36669921875,0.2315673828125,0.61981201171875,0.6539306640625,-358,4556,680,22,27,-148
35623872,0.37579345703125,0.2193603515625,0.626953125,0.6461181640625,-591,4547,602,23,25,-146
35633852,0.38470458984375,0.20721435546875,0.63385009765625,0.63812255859375,-847,4534,526,23,24,-145
35643834,0.3934326171875,0.19525146484375,0.64044189453125,0.6298828125,-1119,4507,431,24,23,-144
35653816,0.40228271484375,0.18310546875,0.64697265625,0.62127685546875,-1453,4461,333,24,22,-145
35663799,0.411376953125,0.1705322265625,0.65338134765625,0.612060546875,-1800,4410,245,24,22,-151
35673781,0.4207763671875,0.15753173828125,0.65966796875,0.60235595703125,-2149,4406,138,24,21,-156
35683762,0.430419921875,0.14385986328125,0.6658935546875,0.592041015625,-2514,4429,58,25,22,-162
35693752,0.4403076171875,0.129638671875,0.671875,0.5811767578125,-2864,4450,-44,24,22,-167
35703734,0.45025634765625,0.1148681640625,0.67767333984375,0.56982421875,-3167,4506,-124,23,22,-173
35713711,0.460205078125,0.09954833984375,0.6832275390625,0.5579833984375,-3506,4519,-210,23,24,-177
35723696,0.47021484375,0.0836181640625,0.6884765625,0.54571533203125,-3881,4496,-283,21,24,-181
35733689,0.480224609375,0.06719970703125,0.69329833984375,0.53302001953125,-4369,4422,-366,20,25,-184
35743667,0.49005126953125,0.05035400390625,0.69775390625,0.5198974609375,-4898,4321,-472,19,25,-184
35753649,0.49957275390625,0.03350830078125,0.70172119140625,0.5067138671875,-5424,4254,-552,17,25,-182
35763634,0.50848388671875,0.01702880859375,0.70513916015625,0.4937744140625,-5908,4228,-620,15,25,-175
35773616,0.51654052734375,0.001220703125,0.7080078125,0.4814453125,-6289,4268,-632,13,25,-166
35783597,0.5238037109375,-0.01373291015625,0.7103271484375,0.46990966796875,-6552,4320,-620,10,25,-156
35793577,0.53021240234375,-0.02789306640625,0.712158203125,0.4591064453125,-6776,4381,-564,8,25,-147
35803559,0.5360107421875,-0.04150390625,0.71356201171875,0.4490966796875,-7090,4379,-510,4,24,-140
35813543,0.5416259765625,-0.05511474609375,0.714599609375,0.43914794921875,-7500,4274,-502,2,24,-138
35823520,0.5472412109375,-0.06903076171875,0.71514892578125,0.42926025390625,-7876,4135,-515,-1,23,-140
35833500,0.552734375,-0.0830078125,0.7152099609375,0.41943359375,-8232,3900,-580,-3,21,-139
35843482,0.55816650390625,-0.09698486328125,0.7149658203125,0.40960693359375,-8640,3573,-684,-5,19,-138
35853464,0.56365966796875,-0.11102294921875,0.71435546875,0.39947509765625,-9048,3180,-790,-4,17,-139
35863447,0.5693359375,-0.125244140625,0.71343994140625,0.38873291015625,-9414,2762,-889,-3,16,-143
35873432,0.57513427734375,-0.13970947265625,0.712158203125,0.37738037109375,-9642,2410,-919,0,15,-148
35883421,0.5809326171875,-0.15411376953125,0.71063232421875,0.3656005859375,-9796,2112,-896,2,15,-151
35893401,0.58648681640625,-0.1680908203125,0.7088623046875,0.353759765625,-9933,1893,-818,4,15,-148
35903385,0.59173583984375,-0.1812744140625,0.7069091796875,0.34222412109375,-10107,1687,-745,4,14,-142
35913360,0.5965576171875,-0.19354248046875,0.704833984375,0.33135986328125,-10277,1515,-695,5,12,-132
35923344,0.6009521484375,-0.20465087890625,0.70263671875,0.3211669921875,-10426,1299,-690,5,10,-122
35933326,0.60498046875,-0.21484375,0.70050048828125,0.3115234375,-10536,1056,-734,6,8,-113
35943310,0.6087646484375,-0.2242431640625,0.69830322265625,0.30224609375,-10584,813,-772,7,7,-106
35953296,0.61236572265625,-0.23291015625,0.6961669921875,0.293212890625,-10595,611,-786,9,6,-102
35963280,0.61572265625,-0.2410888671875,0.694091796875,0.284423828125,-10512,499,-776,10,6,-98
35973262,0.618896484375,-0.24853515625,0.69207763671875,0.2760009765625,-10315,496,-722,11,6,-93
35983241,0.62164306640625,-0.25518798828125,0.69012451171875,0.26849365234375,-10011,613,-597,10,5,-85
35993231,0.6241455078125,-0.26092529296875,0.688232421875,0.261962890625,-9699,729,-460,8,4,-76
36003212,0.62646484375,-0.266357421875,0.686279296875,0.256103515625,-9512,731,-395,6,3,-73
36013190,0.62884521484375,-0.27227783203125,0.68402099609375,0.24993896484375,-9441,593,-399,4,2,-79
36023182,0.63153076171875,-0.2794189453125,0.6812744140625,0.2427978515625,-9489,312,-475,3,1,-93
36035989,0.63470458984375,-0.2882080078125,0.677734375,0.23388671875,-9625,-111,-596,4,2,-113
36043147,0.6383056640625,-0.29864501953125,0.67340087890625,0.22320556640625,-9775,-553,-719,5,1,-132
36053117,0.64227294921875,-0.3101806640625,0.6683349609375,0.2110595703125,-9810,-937,-783,7,2,-146
36063101,0.64617919921875,-0.32196044921875,0.662841796875,0.19842529296875,-9741,-1245,-779,7,1,-149
36073078,0.64984130859375,-0.3331298828125,0.6572265625,0.1861572265625,-9582,-1470,-735,7,0,-143
36083061,0.6531982421875,-0.34344482421875,0.6517333984375,0.17486572265625,-9454,-1713,-720,6,-1,-132
36093045,0.65606689453125,-0.35272216796875,0.64654541015625,0.16461181640625,-9378,-2023,-773,5,-2,-120
36103021,0.65850830078125,-0.36138916015625,0.6416015625,0.15509033203125,-9420,-2399,-843,4,-1,-111
36113004,0.66070556640625,-0.36968994140625,0.63677978515625,0.145751953125,-9582,-2838,-1001,4,-1,-109
36122990,0.66259765625,-0.37823486328125,0.6319580078125,0.135986328125,-9779,-3311,-1145,5,1,-112
36132976,0.6644287109375,-0.38702392578125,0.62677001953125,0.12554931640625,-9964,-3719,-1232,6,3,-119
36142954,0.66619873046875,-0.39617919921875,0.621337890625,0.11456298828125,-10101,-4067,-1270,7,4,-125
36152938,0.6678466796875,-0.4052734375,0.61566162109375,0.10321044921875,-10138,-4344,-1266,8,4,-127
36162924,0.6693115234375,-0.4140625,0.60992431640625,0.09210205078125,-10082,-4551,-1233,8,4,-124
36172906,0.67059326171875,-0.422119140625,0.6044921875,0.08172607421875,-9954,-4674,-1228,8,4,-114
36182888,0.6715087890625,-0.42913818359375,0.59967041015625,0.07244873046875,-9808,-4762,-1265,8,4,-101
36192872,0.67218017578125,-0.4349365234375,0.59564208984375,0.064453125,-9683,-4832,-1300,8,4,-86
36202852,0.6727294921875,-0.439697265625,0.59222412109375,0.0574951171875,-9608,-4889,-1287,8,4,-73
36212835,0.673095703125,-0.44366455078125,0.58941650390625,0.0513916015625,-9549,-4934,-1241,8,5,-65
36222817,0.67340087890625,-0.447021484375,0.58697509765625,0.04595947265625,-9466,-4945,-1155,8,6,-57
36232800,0.673583984375,-0.449951171875,0.58489990234375,0.041015625,-9343,-4886,-1079,7,7,-52
36242781,0.673583984375,-0.4525146484375,0.58319091796875,0.03662109375,-9146,-4789,-995,6,8,-46
36252760,0.6734619140625,-0.4547119140625,0.58184814453125,0.0328369140625,-8896,-4636,-914,4,9,-40
36262752,0.673095703125,-0.45660400390625,0.58099365234375,0.029541015625,-8619,-4471,-846,3,10,-34
36272729,0.67254638671875,-0.458251953125,0.58050537109375,0.02679443359375,-8374,-4282,-796,1,11,-29
36282705,0.6717529296875,-0.45965576171875,0.580322265625,0.02459716796875,-8179,-4072,-756,-1,12,-26
36292685,0.6708984375,-0.4610595703125,0.580322265625,0.02264404296875,-8073,-3891,-700,-3,12,-25
36302668,0.66986083984375,-0.46258544921875,0.580322265625,0.0208740234375,-8000,-3767,-630,-5,13,-25
36312650,0.668701171875,-0.46435546875,0.580322265625,0.01898193359375,-7871,-3844,-566,-6,15,-23
36322631,0.66748046875,-0.465576171875,0.58087158203125,0.01739501953125,-7923,-3811,-424,-5,18,-19
36332613,0.666259765625,-0.46624755859375,0.58172607421875,0.01617431640625,-7985,-3848,-258,-4,19,-11
36342593,0.66497802734375,-0.46600341796875,0.5833740234375,0.01544189453125,-8099,-3886,-147,-2,22,-2
36352580,0.66375732421875,-0.4649658203125,0.58563232421875,0.01507568359375,-8198,-3926,-73,1,24,5
