subject,Dean Black
arm,left
label,2
hz,100.1779746376882
time,5.669909

timestamp_us,q0,q1,q2,q3,ax,ay,az,gx,gy,gz
102441581,0.672607421875,-0.60546875,-0.42333984375,-0.04229736328125,5012,-6338,-714,-1,-4,-1
102451560,0.67236328125,-0.6055908203125,-0.42364501953125,-0.04205322265625,5020,-6340,-720,-1,-4,0
102461536,0.67205810546875,-0.6058349609375,-0.42376708984375,-0.0416259765625,5024,-6347,-724,-2,-4,2
102471519,0.671875,-0.60601806640625,-0.423828125,-0.0411376953125,5032,-6359,-732,-1,-4,2
102481499,0.671630859375,-0.606201171875,-0.4239501953125,-0.040771484375,5041,-6352,-735,-1,-4,2
102491482,0.6715087890625,-0.6063232421875,-0.424072265625,-0.0404052734375,5061,-6344,-735,-1,-4,1
102501463,0.67132568359375,-0.60638427734375,-0.42431640625,-0.04022216796875,5087,-6356,-739,-1,-3,0
102511446,0.67120361328125,-0.6064453125,-0.42449951171875,-0.0400390625,5106,-6353,-740,-1,-3,0
102521428,0.67108154296875,-0.6064453125,-0.4246826171875,-0.0399169921875,5129,-6350,-750,-1,-3,0
102531419,0.67095947265625,-0.6064453125,-0.42486572265625,-0.039794921875,5135,-6351,-752,-1,-3,-1
102541401,0.6708984375,-0.60638427734375,-0.425048828125,-0.0396728515625,5139,-6355,-764,0,-2,-1
102551381,0.67083740234375,-0.60638427734375,-0.4251708984375,-0.03961181640625,5150,-6366,-779,0,-2,0
102561359,0.6707763671875,-0.60638427734375,-0.42523193359375,-0.03955078125,5154,-6376,-783,0,-1,0
102571341,0.6707763671875,-0.6063232421875,-0.42529296875,-0.03948974609375,5166,-6391,-779,0,-1,0
102581324,0.6707763671875,-0.6063232421875,-0.42535400390625,-0.03936767578125,5171,-6377,-783,0,-1,0
102591308,0.6707763671875,-0.606201171875,-0.42547607421875,-0.039306640625,5166,-6371,-774,0,-1,-1
102601286,0.67083740234375,-0.60601806640625,-0.42559814453125,-0.03936767578125,5157,-6348,-779,1,-1,-2
102611268,0.67095947265625,-0.6058349609375,-0.42578125,-0.03948974609375,5163,-6331,-778,1,-1,-2
102621255,0.6710205078125,-0.6055908203125,-0.42596435546875,-0.0396728515625,5164,-6316,-787,1,0,-3
102631234,0.671142578125,-0.6053466796875,-0.42608642578125,-0.039794921875,5148,-6305,-796,1,0,-3
102641218,0.67120361328125,-0.60516357421875,-0.42620849609375,-0.0399169921875,5145,-6299,-792,1,0,-2
102651197,0.67132568359375,-0.60498046875,-0.42626953125,-0.03997802734375,5136,-6305,-805,1,0,-1
102661188,0.67144775390625,-0.6048583984375,-0.42626953125,-0.03997802734375,5121,-6287,-795,1,0,-1
102671174,0.6715087890625,-0.60479736328125,-0.42626953125,-0.0399169921875,5099,-6274,-791,1,0,0
102681154,0.671630859375,-0.60467529296875,-0.42626953125,-0.03985595703125,5101,-6292,-788,1,0,0
102691131,0.6717529296875,-0.60455322265625,-0.42626953125,-0.039794921875,5101,-6311,-790,1,-1,0
102701115,0.67181396484375,-0.60455322265625,-0.42620849609375,-0.03973388671875,5098,-6330,-812,1,0,0
102711097,0.67193603515625,-0.60455322265625,-0.42608642578125,-0.03955078125,5085,-6336,-811,0,-1,1
102721082,0.6719970703125,-0.60455322265625,-0.42596435546875,-0.039306640625,5070,-6330,-827,1,-1,1
102731058,0.67205810546875,-0.60455322265625,-0.42584228515625,-0.0390625,5055,-6325,-845,1,-1,1
102741038,0.67205810546875,-0.60455322265625,-0.42584228515625,-0.0389404296875,5052,-6296,-846,1,-1,0
102751024,0.67205810546875,-0.6044921875,-0.4259033203125,-0.03887939453125,5046,-6273,-852,0,-1,-1
102761001,0.67205810546875,-0.60443115234375,-0.42608642578125,-0.03900146484375,5040,-6240,-865,0,-1,-2
102770985,0.6719970703125,-0.604248046875,-0.4263916015625,-0.0391845703125,5038,-6218,-862,0,-1,-4
102780968,0.671875,-0.60400390625,-0.42681884765625,-0.03955078125,5045,-6195,-854,0,-1,-5
102790950,0.67181396484375,-0.603759765625,-0.42724609375,-0.03997802734375,5061,-6182,-839,-1,-1,-6
102800929,0.6717529296875,-0.60357666015625,-0.42767333984375,-0.0404052734375,5060,-6160,-822,-1,-1,-5
102810917,0.671630859375,-0.6033935546875,-0.427978515625,-0.04083251953125,5062,-6143,-811,-1,0,-4
102820897,0.6715087890625,-0.60333251953125,-0.42822265625,-0.0411376953125,5066,-6138,-800,-2,-1,-3
102830876,0.67138671875,-0.6033935546875,-0.4283447265625,-0.04132080078125,5083,-6142,-813,-2,-1,-1
102840862,0.67120361328125,-0.60357666015625,-0.4283447265625,-0.0413818359375,5094,-6146,-809,-2,-1,1
102850847,0.67108154296875,-0.60382080078125,-0.42822265625,-0.04132080078125,5110,-6148,-816,-2,-1,2
102860830,0.6708984375,-0.60406494140625,-0.4281005859375,-0.04119873046875,5116,-6168,-807,-2,-1,2
102870819,0.6707763671875,-0.6043701171875,-0.4278564453125,-0.04107666015625,5120,-6196,-807,-2,0,3
102880798,0.670654296875,-0.604736328125,-0.42767333984375,-0.04095458984375,5138,-6243,-817,-3,0,2
102890774,0.67047119140625,-0.60504150390625,-0.42742919921875,-0.0408935546875,5146,-6302,-830,-2,-1,2
102900758,0.67041015625,-0.6053466796875,-0.42724609375,-0.04071044921875,5196,-6404,-842,-2,0,3
102910739,0.67022705078125,-0.60565185546875,-0.427001953125,-0.04058837890625,5278,-6554,-874,-2,-1,3
102920718,0.67010498046875,-0.60595703125,-0.4267578125,-0.04022216796875,5370,-6756,-905,-1,-1,3
102930701,0.66998291015625,-0.6063232421875,-0.42657470703125,-0.039794921875,5514,-6989,-951,-1,-2,3
102940682,0.66986083984375,-0.60650634765625,-0.42657470703125,-0.03948974609375,5670,-7203,-1006,-1,-2,1
102950663,0.66961669921875,-0.60650634765625,-0.42694091796875,-0.0394287109375,5867,-7429,-1061,-1,-4,-3
102960654,0.6693115234375,-0.60614013671875,-0.42779541015625,-0.03973388671875,6088,-7651,-1103,0,-5,-9
102970632,0.6689453125,-0.60546875,-0.4293212890625,-0.04052734375,6332,-7836,-1114,-1,-6,-17
102980611,0.66851806640625,-0.60418701171875,-0.43157958984375,-0.04217529296875,6591,-7947,-1124,-1,-6,-27
102990604,0.66790771484375,-0.60235595703125,-0.434814453125,-0.044921875,6871,-7960,-1124,-2,-7,-39
103000586,0.6671142578125,-0.5997314453125,-0.439208984375,-0.0489501953125,7153,-7910,-1108,-3,-7,-54
103010561,0.66619873046875,-0.59619140625,-0.44482421875,-0.054443359375,7436,-7796,-1094,-4,-7,-71
103020538,0.66497802734375,-0.59161376953125,-0.45172119140625,-0.0616455078125,7733,-7614,-1086,-5,-6,-89
103030520,0.6634521484375,-0.58612060546875,-0.459716796875,-0.0704345703125,8025,-7370,-1048,-7,-5,-107
103040503,0.66162109375,-0.5797119140625,-0.46875,-0.08074951171875,8289,-7071,-1018,-8,-4,-122
103050488,0.65948486328125,-0.57244873046875,-0.4783935546875,-0.09228515625,8539,-6719,-976,-10,-3,-134
103060474,0.65704345703125,-0.56463623046875,-0.4884033203125,-0.10479736328125,8766,-6356,-918,-12,-1,-141
103070456,0.654296875,-0.5565185546875,-0.49835205078125,-0.1177978515625,8968,-6011,-877,-14,1,-144
103080436,0.6513671875,-0.54840087890625,-0.50787353515625,-0.130859375,9152,-5691,-839,-15,2,-142
103090419,0.64837646484375,-0.54052734375,-0.5166015625,-0.1435546875,9308,-5414,-808,-16,4,-135
103100405,0.6453857421875,-0.53326416015625,-0.52435302734375,-0.15557861328125,9436,-5222,-795,-17,6,-125
103110382,0.64263916015625,-0.52667236328125,-0.53094482421875,-0.1666259765625,9540,-5081,-807,-17,8,-113
103120362,0.64013671875,-0.520751953125,-0.53656005859375,-0.17669677734375,9610,-4981,-831,-17,10,-101
103130346,0.63800048828125,-0.515380859375,-0.5411376953125,-0.1859130859375,9691,-4941,-861,-16,12,-91
103140327,0.63616943359375,-0.510498046875,-0.54498291015625,-0.1943359375,9756,-4964,-908,-14,14,-83
103150309,0.63470458984375,-0.505859375,-0.548095703125,-0.2021484375,9766,-5012,-955,-12,16,-78
103160292,0.63360595703125,-0.501220703125,-0.5509033203125,-0.20953369140625,9768,-5052,-987,-9,19,-75
103170277,0.63275146484375,-0.49627685546875,-0.553466796875,-0.21685791015625,9746,-5072,-1032,-7,21,-77
103180259,0.632080078125,-0.49090576171875,-0.55609130859375,-0.22430419921875,9698,-5069,-1074,-4,24,-80
103190239,0.63153076171875,-0.48480224609375,-0.558837890625,-0.23211669921875,9655,-5033,-1101,-1,27,-87
103200226,0.631103515625,-0.47784423828125,-0.56182861328125,-0.2403564453125,9583,-4963,-1125,2,30,-95
103210207,0.630615234375,-0.469970703125,-0.56512451171875,-0.249267578125,9500,-4836,-1131,5,33,-104
103220194,0.63006591796875,-0.46112060546875,-0.5687255859375,-0.25885009765625,9393,-4638,-1127,7,35,-114
103230177,0.62939453125,-0.4512939453125,-0.57257080078125,-0.26904296875,9270,-4379,-1093,9,38,-122
103240158,0.62860107421875,-0.440673828125,-0.5765380859375,-0.2799072265625,9130,-4070,-1047,10,41,-129
103250134,0.627685546875,-0.429443359375,-0.5804443359375,-0.29107666015625,8981,-3744,-1011,11,44,-132
103260118,0.6268310546875,-0.41796875,-0.583984375,-0.30230712890625,8861,-3439,-969,11,46,-131
103270100,0.6260986328125,-0.40655517578125,-0.5870361328125,-0.31317138671875,8732,-3145,-907,11,49,-126
103280085,0.625732421875,-0.39556884765625,-0.58941650390625,-0.323486328125,8600,-2871,-843,12,51,-118
103290067,0.62567138671875,-0.385009765625,-0.591064453125,-0.3331298828125,8464,-2609,-778,11,53,-109
103300050,0.62591552734375,-0.3751220703125,-0.592041015625,-0.342041015625,8315,-2346,-716,11,54,-99
103310033,0.62652587890625,-0.36566162109375,-0.59246826171875,-0.35040283203125,8155,-2073,-623,10,55,-91
103320014,0.62725830078125,-0.356689453125,-0.5924072265625,-0.35833740234375,7953,-1804,-544,10,56,-85
103329997,0.62811279296875,-0.347900390625,-0.59210205078125,-0.365966796875,7750,-1544,-464,9,56,-81
103339978,0.62890625,-0.3392333984375,-0.591552734375,-0.37353515625,7558,-1323,-362,8,56,-80
103349965,0.629638671875,-0.3306884765625,-0.5908203125,-0.38104248046875,7377,-1154,-264,7,56,-80
103359943,0.6302490234375,-0.32220458984375,-0.59002685546875,-0.388427734375,7237,-1036,-189,7,55,-79
103369926,0.63079833984375,-0.31396484375,-0.58917236328125,-0.39556884765625,7141,-968,-110,6,54,-78
103379909,0.6312255859375,-0.30584716796875,-0.58819580078125,-0.40252685546875,7064,-922,-26,6,53,-76
103389891,0.63165283203125,-0.2979736328125,-0.58721923828125,-0.40924072265625,6974,-870,58,6,52,-75
103399874,0.6318359375,-0.29022216796875,-0.58624267578125,-0.415771484375,6831,-787,133,6,50,-74
103409853,0.6318359375,-0.28228759765625,-0.58544921875,-0.42236328125,6703,-658,214,7,48,-77
103419845,0.63134765625,-0.274169921875,-0.58489990234375,-0.42913818359375,6562,-500,305,7,45,-80
103429825,0.63043212890625,-0.26580810546875,-0.58465576171875,-0.43609619140625,6453,-358,393,7,43,-85
103439804,0.6290283203125,-0.2572021484375,-0.5845947265625,-0.44317626953125,6372,-235,470,7,40,-88
103449784,0.62725830078125,-0.2486572265625,-0.5848388671875,-0.45025634765625,6326,-126,551,7,37,-90
103459773,0.62518310546875,-0.2401123046875,-0.585205078125,-0.457275390625,6302,-21,644,7,34,-91
103469749,0.62286376953125,-0.23162841796875,-0.585693359375,-0.464111328125,6256,125,745,8,32,-90
103479731,0.6202392578125,-0.22314453125,-0.5863037109375,-0.470947265625,6171,319,852,8,29,-91
103489716,0.61724853515625,-0.214599609375,-0.58709716796875,-0.477783203125,6057,565,942,8,27,-92
103499697,0.61383056640625,-0.2060546875,-0.58807373046875,-0.4847412109375,5944,827,1036,8,23,-95
103509679,0.60992431640625,-0.1973876953125,-0.58929443359375,-0.49176025390625,5874,1082,1102,7,20,-97
103519666,0.605712890625,-0.18890380859375,-0.590576171875,-0.49859619140625,5858,1292,1176,7,18,-96
103529649,0.60150146484375,-0.180908203125,-0.5919189453125,-0.505126953125,5857,1487,1239,7,15,-91
103539632,0.59735107421875,-0.17340087890625,-0.59320068359375,-0.5111083984375,5858,1679,1307,7,13,-86
103549617,0.59344482421875,-0.16656494140625,-0.59442138671875,-0.51654052734375,5863,1892,1374,6,10,-78
103559604,0.5897216796875,-0.160400390625,-0.5955810546875,-0.5213623046875,5862,2080,1439,6,8,-71
103569583,0.586181640625,-0.15460205078125,-0.5966796875,-0.52587890625,5872,2276,1495,6,7,-67
103579554,0.58258056640625,-0.14910888671875,-0.5977783203125,-0.5301513671875,5876,2478,1536,5,5,-65
103589534,0.5787353515625,-0.14373779296875,-0.5989990234375,-0.53448486328125,5911,2675,1574,5,4,-66
103599518,0.57476806640625,-0.1383056640625,-0.60015869140625,-0.53887939453125,5938,2824,1628,4,2,-68
103609501,0.570556640625,-0.1329345703125,-0.60137939453125,-0.5433349609375,5961,2965,1667,4,2,-69
103619481,0.566162109375,-0.12744140625,-0.60260009765625,-0.5478515625,5966,3103,1708,4,1,-71
103629462,0.56158447265625,-0.1219482421875,-0.60382080078125,-0.5523681640625,5958,3234,1751,4,1,-71
103639444,0.5570068359375,-0.116455078125,-0.60504150390625,-0.55694580078125,5927,3359,1791,4,0,-71
103649429,0.55230712890625,-0.1109619140625,-0.60626220703125,-0.56134033203125,5892,3498,1836,4,-1,-71
103659415,0.54754638671875,-0.10552978515625,-0.60748291015625,-0.56573486328125,5852,3643,1867,5,-1,-71
103669390,0.54266357421875,-0.0999755859375,-0.6087646484375,-0.570068359375,5804,3810,1909,5,-2,-72
103679372,0.53759765625,-0.0943603515625,-0.6099853515625,-0.574462890625,5733,3974,1941,5,-2,-73
103689355,0.5323486328125,-0.088623046875,-0.61126708984375,-0.57891845703125,5655,4148,1965,5,-3,-75
103699337,0.52685546875,-0.08270263671875,-0.612548828125,-0.58343505859375,5569,4335,1990,5,-4,-76
103709320,0.52117919921875,-0.07672119140625,-0.6138916015625,-0.58795166015625,5465,4515,2016,6,-4,-76
103719301,0.515625,-0.0709228515625,-0.6151123046875,-0.59228515625,5374,4694,2058,6,-5,-74
103729283,0.51025390625,-0.0654296875,-0.6163330078125,-0.59625244140625,5284,4842,2081,6,-5,-69
103739265,0.5052490234375,-0.060546875,-0.61761474609375,-0.5997314453125,5182,4965,2092,7,-7,-61
103749247,0.5008544921875,-0.05633544921875,-0.6187744140625,-0.60260009765625,5082,5049,2085,7,-7,-53
103759228,0.4969482421875,-0.052734375,-0.62005615234375,-0.6048583984375,4986,5112,2071,8,-8,-45
103769210,0.493408203125,-0.04974365234375,-0.62127685546875,-0.60675048828125,4885,5167,2040,8,-9,-39
103779192,0.489990234375,-0.0469970703125,-0.62255859375,-0.6083984375,4773,5231,1997,8,-10,-37
103789182,0.48638916015625,-0.044189453125,-0.62396240234375,-0.610107421875,4679,5304,1952,8,-11,-39
103799164,0.482421875,-0.0411376953125,-0.6253662109375,-0.61199951171875,4584,5372,1908,8,-12,-43
103809141,0.47796630859375,-0.0377197265625,-0.6268310546875,-0.61419677734375,4501,5448,1871,8,-12,-48
103819126,0.47314453125,-0.0340576171875,-0.6282958984375,-0.61669921875,4420,5537,1835,7,-13,-53
103829106,0.4678955078125,-0.030029296875,-0.629638671875,-0.6195068359375,4352,5629,1810,6,-12,-58
103839090,0.46240234375,-0.02581787109375,-0.63092041015625,-0.62249755859375,4281,5725,1780,5,-13,-60
103849070,0.456787109375,-0.02166748046875,-0.63214111328125,-0.62554931640625,4195,5817,1755,5,-13,-60
103859058,0.45123291015625,-0.01763916015625,-0.63323974609375,-0.62860107421875,4113,5913,1723,4,-13,-58
103869033,0.4459228515625,-0.013916015625,-0.63427734375,-0.6314697265625,4009,5989,1683,3,-13,-54
103879018,0.44097900390625,-0.01068115234375,-0.63519287109375,-0.634033203125,3901,6042,1656,2,-13,-49
103888997,0.43634033203125,-0.00787353515625,-0.635986328125,-0.636474609375,3822,6079,1627,1,-14,-44
103898980,0.43206787109375,-0.0054931640625,-0.63677978515625,-0.63861083984375,3733,6083,1597,1,-14,-40
103908965,0.42803955078125,-0.0035400390625,-0.63751220703125,-0.640625,3663,6103,1586,0,-14,-36
103918946,0.42431640625,-0.0018310546875,-0.63812255859375,-0.64251708984375,3601,6134,1588,-1,-14,-32
103928927,0.42071533203125,-0.00042724609375,-0.63873291015625,-0.64422607421875,3556,6151,1564,-1,-14,-30
103938910,0.4173583984375,0.000732421875,-0.6392822265625,-0.64593505859375,3515,6196,1553,-2,-15,-28
103948891,0.4140625,0.001708984375,-0.6397705078125,-0.64752197265625,3477,6266,1542,-3,-15,-26
103958872,0.41082763671875,0.00262451171875,-0.6402587890625,-0.64910888671875,3457,6340,1534,-3,-15,-26
103968860,0.407470703125,0.003662109375,-0.640625,-0.65087890625,3448,6400,1515,-3,-15,-28
103978843,0.40386962890625,0.00494384765625,-0.64093017578125,-0.65277099609375,3451,6450,1524,-4,-14,-32
103988825,0.4002685546875,0.0064697265625,-0.64117431640625,-0.65478515625,3473,6444,1536,-4,-12,-33
103998803,0.39697265625,0.008056640625,-0.64141845703125,-0.656494140625,3521,6409,1566,-2,-10,-30
104008789,0.39459228515625,0.00933837890625,-0.64166259765625,-0.65771484375,3584,6393,1631,1,-7,-22
104018773,0.393310546875,0.01019287109375,-0.6419677734375,-0.65814208984375,3624,6422,1673,4,-4,-10
104028753,0.39324951171875,0.010498046875,-0.6424560546875,-0.65771484375,3631,6491,1676,7,-1,2
104038738,0.39410400390625,0.01031494140625,-0.6429443359375,-0.65667724609375,3618,6605,1672,8,1,12
104048717,0.3955078125,0.0098876953125,-0.64349365234375,-0.65533447265625,3590,6745,1640,9,2,17
104058701,0.39703369140625,0.00933837890625,-0.6439208984375,-0.6539306640625,3556,6845,1606,8,3,18
104068679,0.3985595703125,0.00885009765625,-0.64434814453125,-0.65264892578125,3532,6946,1570,7,3,17
104082418,0.39984130859375,0.00860595703125,-0.6446533203125,-0.65155029296875,3524,7018,1554,5,3,13
104088650,0.40087890625,0.00848388671875,-0.64483642578125,-0.6507568359375,3524,7077,1525,4,3,10
104098632,0.40167236328125,0.0084228515625,-0.64495849609375,-0.650146484375,3520,7126,1509,3,2,9
104108611,0.40234375,0.00823974609375,-0.64501953125,-0.649658203125,3539,7163,1494,1,1,8
104118605,0.4029541015625,0.008056640625,-0.64495849609375,-0.64935302734375,3536,7184,1479,0,1,8
104128586,0.403564453125,0.0076904296875,-0.64483642578125,-0.64910888671875,3541,7189,1490,-1,0,9
104138554,0.40423583984375,0.007080078125,-0.64471435546875,-0.6488037109375,3531,7174,1489,-2,-1,10
104148533,0.4049072265625,0.00634765625,-0.64447021484375,-0.64862060546875,3503,7142,1512,-3,-1,11
104158516,0.40576171875,0.00537109375,-0.64422607421875,-0.64837646484375,3458,7086,1521,-4,-1,13
104168499,0.40673828125,0.00421142578125,-0.6439208984375,-0.6480712890625,3412,7006,1518,-4,-1,16
104178480,0.40814208984375,0.00262451171875,-0.64361572265625,-0.6474609375,3353,6913,1516,-3,-2,21
104188462,0.40997314453125,0.00067138671875,-0.64337158203125,-0.64654541015625,3308,6801,1524,-3,-2,27
104198444,0.4122314453125,-0.0018310546875,-0.6431884765625,-0.64532470703125,3264,6687,1535,-2,-2,34
104208427,0.4151611328125,-0.0048828125,-0.64300537109375,-0.64361572265625,3230,6539,1539,-2,-2,41
104218416,0.4185791015625,-0.00848388671875,-0.64288330078125,-0.6414794921875,3204,6379,1550,-1,-2,48
104228403,0.4224853515625,-0.0125732421875,-0.6427001953125,-0.63897705078125,3183,6225,1551,0,-2,54
104238377,0.42669677734375,-0.01690673828125,-0.642578125,-0.63623046875,3173,6116,1565,0,-2,58
104248360,0.4310302734375,-0.02130126953125,-0.64251708984375,-0.63323974609375,3164,6031,1554,1,-2,59
104258342,0.435302734375,-0.025634765625,-0.6424560546875,-0.6302490234375,3150,5977,1532,1,-2,59
104268328,0.439453125,-0.0299072265625,-0.64239501953125,-0.627197265625,3154,5910,1512,2,-2,58
104278309,0.443603515625,-0.03399658203125,-0.642333984375,-0.6241455078125,3152,5836,1482,2,-1,58
104288291,0.44781494140625,-0.0382080078125,-0.6422119140625,-0.6209716796875,3164,5745,1458,2,-2,59
104298274,0.4521484375,-0.04254150390625,-0.64208984375,-0.61761474609375,3192,5637,1450,2,-2,62
104308256,0.45684814453125,-0.04736328125,-0.6419677734375,-0.614013671875,3242,5514,1432,2,-2,67
104318239,0.46185302734375,-0.052490234375,-0.6417236328125,-0.61004638671875,3303,5410,1413,2,-2,71
104328219,0.46722412109375,-0.05810546875,-0.64141845703125,-0.60577392578125,3381,5319,1403,2,-2,76
104338207,0.47283935546875,-0.06414794921875,-0.6409912109375,-0.6011962890625,3466,5209,1381,1,-3,81
104348191,0.47882080078125,-0.07061767578125,-0.64044189453125,-0.5963134765625,3574,5106,1347,1,-3,86
104358173,0.48504638671875,-0.07757568359375,-0.63983154296875,-0.591064453125,3686,4989,1313,1,-3,91
104368156,0.49169921875,-0.0850830078125,-0.63909912109375,-0.5853271484375,3809,4828,1246,0,-4,99
104378132,0.4986572265625,-0.09320068359375,-0.63818359375,-0.57916259765625,3974,4640,1200,0,-4,103
104388114,0.505859375,-0.10174560546875,-0.63720703125,-0.572509765625,4186,4398,1145,0,-5,108
104398096,0.5133056640625,-0.11077880859375,-0.63604736328125,-0.56549072265625,4434,4115,1097,0,-5,111
104408078,0.520751953125,-0.12005615234375,-0.63482666015625,-0.55810546875,4674,3846,1039,0,-6,113
104418061,0.5281982421875,-0.12939453125,-0.6334228515625,-0.550537109375,4911,3623,989,0,-5,114
104428043,0.53558349609375,-0.1387939453125,-0.6319580078125,-0.54278564453125,5136,3437,943,0,-6,114
104438025,0.542724609375,-0.1480712890625,-0.63043212890625,-0.53497314453125,5335,3268,884,1,-6,112
104448008,0.5496826171875,-0.15716552734375,-0.62890625,-0.5269775390625,5532,3074,831,2,-6,111
104457991,0.55645751953125,-0.16632080078125,-0.6273193359375,-0.51885986328125,5718,2898,776,2,-7,111
104467971,0.56298828125,-0.17523193359375,-0.625732421875,-0.51068115234375,5930,2728,728,3,-7,109
104477953,0.56927490234375,-0.18414306640625,-0.62408447265625,-0.50250244140625,6136,2567,706,2,-8,108
104487937,0.5753173828125,-0.19281005859375,-0.6224365234375,-0.4945068359375,6303,2428,713,2,-8,104
104497918,0.5809326171875,-0.201171875,-0.62066650390625,-0.4866943359375,6428,2347,709,1,-8,101
104507900,0.586181640625,-0.20928955078125,-0.618896484375,-0.4791259765625,6499,2298,717,0,-9,98
104517884,0.59112548828125,-0.21710205078125,-0.6170654296875,-0.471923828125,6543,2259,719,0,-9,95
104527862,0.5958251953125,-0.22491455078125,-0.615234375,-0.4647216796875,6641,2107,701,-2,-10,95
104537851,0.60064697265625,-0.2333984375,-0.6131591796875,-0.45697021484375,6768,1811,643,-2,-11,101
104547834,0.60589599609375,-0.2427978515625,-0.6107177734375,-0.44830322265625,6895,1473,590,-2,-13,112
104557816,0.61151123046875,-0.253173828125,-0.60797119140625,-0.43865966796875,7061,1157,525,-3,-14,123
104567792,0.61737060546875,-0.264404296875,-0.604736328125,-0.42816162109375,7249,819,494,-4,-15,132
104577774,0.62335205078125,-0.27618408203125,-0.60101318359375,-0.41705322265625,7439,449,457,-5,-15,137
104587757,0.62939453125,-0.28826904296875,-0.596923828125,-0.40557861328125,7604,46,404,-5,-15,141
104597738,0.63525390625,-0.300537109375,-0.59259033203125,-0.39373779296875,7672,-345,353,-6,-15,142
104607723,0.64080810546875,-0.3126220703125,-0.58807373046875,-0.3818359375,7616,-600,308,-6,-16,141
104617704,0.645751953125,-0.3240966796875,-0.58380126953125,-0.37042236328125,7497,-720,267,-6,-17,134
104627686,0.6497802734375,-0.33489990234375,-0.57989501953125,-0.3597412109375,7417,-830,212,-7,-20,124
104637667,0.653076171875,-0.3448486328125,-0.576416015625,-0.349853515625,7414,-977,203,-8,-20,112
104647657,0.65576171875,-0.35406494140625,-0.57318115234375,-0.3408203125,7512,-1211,216,-9,-21,101
104657641,0.6580810546875,-0.36279296875,-0.57000732421875,-0.33245849609375,7679,-1531,234,-10,-19,94
104667619,0.6602783203125,-0.371337890625,-0.566650390625,-0.32427978515625,7816,-1918,225,-10,-18,92
104677611,0.66253662109375,-0.3800048828125,-0.56298828125,-0.3157958984375,7884,-2291,177,-10,-17,96
104687597,0.66485595703125,-0.38897705078125,-0.55902099609375,-0.30694580078125,7847,-2545,128,-10,-17,101
104697569,0.6671142578125,-0.3980712890625,-0.55487060546875,-0.29766845703125,7717,-2680,74,-10,-18,105
104707546,0.669189453125,-0.40716552734375,-0.55078125,-0.28826904296875,7597,-2758,18,-10,-20,105
104717528,0.67083740234375,-0.4161376953125,-0.546875,-0.27886962890625,7561,-2866,-32,-10,-23,103
104727509,0.67218017578125,-0.425048828125,-0.5430908203125,-0.26947021484375,7632,-3012,-64,-11,-24,102
104737493,0.67333984375,-0.4339599609375,-0.5391845703125,-0.260009765625,7760,-3207,-45,-11,-24,103
104747474,0.67449951171875,-0.44281005859375,-0.53497314453125,-0.2506103515625,7885,-3386,-21,-12,-23,105
104757456,0.6756591796875,-0.45172119140625,-0.5303955078125,-0.2410888671875,7979,-3636,-44,-13,-21,107
104767439,0.6768798828125,-0.4608154296875,-0.525390625,-0.231201171875,7995,-3932,-107,-13,-20,111
104777420,0.6781005859375,-0.47015380859375,-0.51995849609375,-0.22088623046875,7951,-4192,-144,-12,-20,116
104787408,0.6793212890625,-0.47955322265625,-0.51422119140625,-0.210205078125,7845,-4467,-213,-12,-21,118
104797386,0.68023681640625,-0.48895263671875,-0.50848388671875,-0.19921875,7739,-4722,-305,-12,-22,119
104807368,0.68084716796875,-0.498291015625,-0.50274658203125,-0.188232421875,7664,-4909,-371,-12,-24,118
104817350,0.68109130859375,-0.50714111328125,-0.4974365234375,-0.17767333984375,7644,-5014,-404,-13,-25,112
104827332,0.68096923828125,-0.51531982421875,-0.49249267578125,-0.16796875,7690,-5099,-396,-14,-25,103
104837314,0.68060302734375,-0.52288818359375,-0.48797607421875,-0.1591796875,7782,-5232,-365,-15,-23,94
104847301,0.6800537109375,-0.5299072265625,-0.483642578125,-0.151123046875,7890,-5490,-367,-15,-22,88
104857278,0.67950439453125,-0.5367431640625,-0.479248046875,-0.143310546875,7977,-5869,-423,-15,-19,87
104867260,0.678955078125,-0.54364013671875,-0.47454833984375,-0.1353759765625,8005,-6275,-521,-15,-19,88
104877242,0.67840576171875,-0.55059814453125,-0.46954345703125,-0.12701416015625,7971,-6636,-635,-14,-19,92
104887226,0.67779541015625,-0.5576171875,-0.46441650390625,-0.11834716796875,7876,-6857,-730,-13,-20,94
104897207,0.67706298828125,-0.56427001953125,-0.45953369140625,-0.1097412109375,7805,-6965,-803,-12,-21,90
104907195,0.6761474609375,-0.5703125,-0.45526123046875,-0.101806640625,7715,-6960,-842,-11,-21,82
104917180,0.67510986328125,-0.57550048828125,-0.45166015625,-0.0948486328125,7635,-6818,-816,-10,-21,71
104927161,0.67401123046875,-0.579833984375,-0.448974609375,-0.08917236328125,7562,-6617,-773,-10,-20,58
104937135,0.67291259765625,-0.583251953125,-0.44708251953125,-0.0845947265625,7503,-6454,-721,-10,-19,47
104947117,0.67181396484375,-0.58612060546875,-0.4456787109375,-0.0809326171875,7453,-6355,-667,-9,-17,39
104957098,0.6707763671875,-0.5887451171875,-0.4443359375,-0.07757568359375,7404,-6327,-655,-9,-15,36
104967080,0.66986083984375,-0.59130859375,-0.44287109375,-0.07415771484375,7327,-6343,-638,-8,-14,39
104977063,0.66912841796875,-0.59417724609375,-0.44085693359375,-0.0703125,7246,-6378,-650,-7,-13,45
104987048,0.66845703125,-0.59735107421875,-0.43829345703125,-0.0657958984375,7122,-6404,-666,-7,-13,53
104997030,0.6678466796875,-0.600830078125,-0.43511962890625,-0.06060791015625,6978,-6382,-672,-6,-13,60
105007012,0.66729736328125,-0.60455322265625,-0.4315185546875,-0.05511474609375,6804,-6306,-657,-6,-12,64
105016995,0.66680908203125,-0.6082763671875,-0.427734375,-0.049560546875,6605,-6182,-632,-6,-12,66
105026977,0.666259765625,-0.6119384765625,-0.42388916015625,-0.0440673828125,6415,-6115,-611,-6,-11,65
105036959,0.665771484375,-0.61553955078125,-0.4200439453125,-0.0386962890625,6237,-6132,-614,-6,-10,64
105046941,0.6651611328125,-0.619140625,-0.41607666015625,-0.0333251953125,6083,-6207,-618,-7,-10,64
105056922,0.66461181640625,-0.622802734375,-0.411865234375,-0.02777099609375,5934,-6372,-641,-6,-9,66
105066907,0.66400146484375,-0.626708984375,-0.4072265625,-0.0218505859375,5834,-6666,-719,-6,-10,71
105076890,0.66339111328125,-0.630859375,-0.40216064453125,-0.0152587890625,5737,-7031,-800,-5,-10,77
105086872,0.66278076171875,-0.6351318359375,-0.39666748046875,-0.00823974609375,5641,-7349,-889,-5,-10,81
105096853,0.662109375,-0.6392822265625,-0.39111328125,-0.0010986328125,5563,-7608,-958,-3,-10,81
105106843,0.6614990234375,-0.64312744140625,-0.38580322265625,0.0057373046875,5461,-7810,-992,-3,-9,76
105116825,0.66094970703125,-0.64642333984375,-0.38092041015625,0.011962890625,5369,-7969,-1017,-2,-9,68
105126802,0.6605224609375,-0.64923095703125,-0.37677001953125,0.017333984375,5287,-8120,-1040,-1,-8,59
105136789,0.66015625,-0.6514892578125,-0.37322998046875,0.02203369140625,5197,-8292,-1073,0,-7,50
105146765,0.659912109375,-0.65325927734375,-0.37030029296875,0.02618408203125,5115,-8470,-1113,2,-8,42
105156749,0.65972900390625,-0.6546630859375,-0.3677978515625,0.02984619140625,5042,-8615,-1142,3,-8,37
105166733,0.6595458984375,-0.65582275390625,-0.36572265625,0.0333251953125,4981,-8694,-1166,3,-8,34
105176716,0.65948486328125,-0.65673828125,-0.36395263671875,0.0364990234375,4927,-8694,-1160,4,-8,30
105186697,0.6595458984375,-0.6573486328125,-0.36248779296875,0.0394287109375,4886,-8634,-1142,5,-9,26
105196679,0.65966796875,-0.65765380859375,-0.36138916015625,0.0419921875,4868,-8531,-1116,6,-9,22
105206667,0.65985107421875,-0.65771484375,-0.36065673828125,0.04412841796875,4855,-8404,-1065,6,-8,18
105216650,0.66009521484375,-0.6575927734375,-0.3602294921875,0.0458984375,4857,-8258,-1042,6,-8,14
105226631,0.66033935546875,-0.65728759765625,-0.360107421875,0.04730224609375,4866,-8127,-1006,6,-7,11
105236610,0.66070556640625,-0.65692138671875,-0.36004638671875,0.04840087890625,4870,-8003,-960,6,-7,9
105246601,0.6610107421875,-0.656494140625,-0.360107421875,0.04949951171875,4843,-7855,-928,6,-7,8
105256584,0.6612548828125,-0.6561279296875,-0.3602294921875,0.05047607421875,4814,-7720,-904,5,-7,8
105266553,0.6614990234375,-0.65576171875,-0.36029052734375,0.0513916015625,4772,-7566,-858,5,-6,8
105276537,0.66168212890625,-0.6553955078125,-0.3604736328125,0.05218505859375,4730,-7445,-837,4,-6,6
105286517,0.66180419921875,-0.655029296875,-0.36077880859375,0.05279541015625,4719,-7317,-806,3,-6,5
105296501,0.661865234375,-0.6546630859375,-0.36126708984375,0.05316162109375,4699,-7220,-781,2,-6,3
105306482,0.66192626953125,-0.65423583984375,-0.36187744140625,0.05328369140625,4696,-7150,-770,1,-5,0
105316462,0.6619873046875,-0.65380859375,-0.3626708984375,0.0531005859375,4706,-7122,-764,0,-5,-2
105326444,0.6619873046875,-0.65338134765625,-0.36346435546875,0.052734375,4702,-7152,-771,0,-4,-3
105336425,0.66192626953125,-0.65301513671875,-0.36431884765625,0.0523681640625,4694,-7228,-782,-1,-4,-4
105346412,0.66180419921875,-0.6527099609375,-0.36505126953125,0.05194091796875,4686,-7372,-812,-1,-4,-3
105356388,0.6617431640625,-0.6524658203125,-0.36566162109375,0.05169677734375,4683,-7585,-863,-1,-4,-2
105366370,0.66156005859375,-0.65234375,-0.36627197265625,0.05157470703125,4693,-7821,-910,-1,-4,-2
105376352,0.66143798828125,-0.652099609375,-0.36688232421875,0.05145263671875,4714,-8059,-970,-1,-4,-3
105386331,0.6612548828125,-0.65179443359375,-0.36785888671875,0.0511474609375,4751,-8266,-1027,-1,-5,-7
105396318,0.6611328125,-0.651123046875,-0.3692626953125,0.0504150390625,4809,-8457,-1089,0,-5,-13
105406302,0.6610107421875,-0.65020751953125,-0.37127685546875,0.04913330078125,4880,-8634,-1143,0,-6,-20
105416286,0.66094970703125,-0.64886474609375,-0.37396240234375,0.0472412109375,4992,-8777,-1156,0,-6,-28
105426264,0.6610107421875,-0.6470947265625,-0.3773193359375,0.044677734375,5132,-8890,-1164,0,-6,-37
105436245,0.66107177734375,-0.64483642578125,-0.38140869140625,0.041259765625,5271,-8909,-1151,0,-6,-47
105446229,0.66131591796875,-0.6419677734375,-0.38623046875,0.03680419921875,5438,-8861,-1111,0,-4,-58
105456211,0.66168212890625,-0.63848876953125,-0.391845703125,0.03125,5616,-8787,-1062,0,-2,-69
105466189,0.662109375,-0.6343994140625,-0.398193359375,0.02471923828125,5798,-8680,-1027,1,-1,-80
105476183,0.66259765625,-0.6297607421875,-0.40509033203125,0.01727294921875,5956,-8541,-997,1,0,-89
105486164,0.66302490234375,-0.624755859375,-0.41229248046875,0.0091552734375,6117,-8390,-975,1,2,-95
105496142,0.66351318359375,-0.61944580078125,-0.4195556640625,0.00079345703125,6268,-8244,-976,1,3,-96
105506124,0.66400146484375,-0.6141357421875,-0.426513671875,-0.007568359375,6399,-8112,-948,1,5,-94
105516105,0.66448974609375,-0.60894775390625,-0.4329833984375,-0.015625,6526,-8024,-956,2,6,-90
105526090,0.66497802734375,-0.60400390625,-0.43878173828125,-0.02313232421875,6616,-7983,-970,3,7,-83
105536071,0.66546630859375,-0.599365234375,-0.4439697265625,-0.03009033203125,6695,-7919,-1000,3,8,-77
105546058,0.66595458984375,-0.594970703125,-0.4486083984375,-0.03668212890625,6745,-7878,-1025,3,9,-72
105556034,0.66650390625,-0.59063720703125,-0.452880859375,-0.04290771484375,6770,-7849,-1051,4,10,-70
105566016,0.6669921875,-0.58636474609375,-0.45709228515625,-0.04913330078125,6788,-7809,-1071,4,10,-71
105576000,0.66741943359375,-0.5819091796875,-0.46136474609375,-0.055419921875,6785,-7769,-1096,5,10,-73
105585982,0.6678466796875,-0.57720947265625,-0.4658203125,-0.06195068359375,6796,-7739,-1122,5,10,-78
105595965,0.66815185546875,-0.57208251953125,-0.470703125,-0.06890869140625,6815,-7723,-1170,6,10,-85
105605945,0.6683349609375,-0.56646728515625,-0.47607421875,-0.07635498046875,6831,-7635,-1187,6,10,-93
105615929,0.6683349609375,-0.5601806640625,-0.48211669921875,-0.08465576171875,6872,-7507,-1189,6,10,-104
105625911,0.6680908203125,-0.55316162109375,-0.48876953125,-0.0938720703125,6945,-7332,-1190,6,10,-115
105635894,0.6676025390625,-0.54534912109375,-0.49609375,-0.10394287109375,7030,-7145,-1183,6,10,-125
105645876,0.6668701171875,-0.5369873046875,-0.5037841796875,-0.11480712890625,7122,-6945,-1145,5,11,-134
105655856,0.665771484375,-0.5281982421875,-0.51171875,-0.12615966796875,7226,-6716,-1139,4,11,-138
105665846,0.66455078125,-0.5191650390625,-0.51953125,-0.1378173828125,7319,-6479,-1106,3,12,-140
105675835,0.6630859375,-0.5101318359375,-0.52703857421875,-0.14935302734375,7415,-6241,-1072,2,13,-138
105685814,0.6614990234375,-0.50115966796875,-0.53424072265625,-0.1607666015625,7499,-5968,-1032,1,14,-135
105695790,0.6597900390625,-0.492431640625,-0.54095458984375,-0.17193603515625,7585,-5692,-1003,0,14,-131
105705774,0.6580810546875,-0.48382568359375,-0.54718017578125,-0.18292236328125,7659,-5438,-961,-1,15,-127
105715752,0.65625,-0.4754638671875,-0.55303955078125,-0.19366455078125,7712,-5190,-914,-2,16,-125
105725734,0.65435791015625,-0.46722412109375,-0.55841064453125,-0.20428466796875,7760,-4968,-882,-3,17,-122
105735716,0.6524658203125,-0.4591064453125,-0.5634765625,-0.2147216796875,7800,-4772,-860,-4,19,-120
105745698,0.65045166015625,-0.4510498046875,-0.56817626953125,-0.22509765625,7819,-4600,-839,-4,20,-119
105755680,0.6484375,-0.4429931640625,-0.5726318359375,-0.23541259765625,7844,-4459,-833,-5,21,-118
105765668,0.64642333984375,-0.4349365234375,-0.5767822265625,-0.24560546875,7870,-4342,-815,-5,22,-118
105775652,0.644287109375,-0.4266357421875,-0.58087158203125,-0.2559814453125,7901,-4180,-786,-4,23,-120
105785634,0.64202880859375,-0.41790771484375,-0.58489990234375,-0.2666015625,7944,-3976,-756,-4,25,-124
105795614,0.6395263671875,-0.40863037109375,-0.5889892578125,-0.27777099609375,7963,-3736,-715,-4,27,-130
105805605,0.6368408203125,-0.39874267578125,-0.59307861328125,-0.28948974609375,7971,-3415,-662,-5,28,-136
105815587,0.63385009765625,-0.38812255859375,-0.59716796875,-0.3017578125,7953,-3075,-604,-5,31,-142
105825564,0.630615234375,-0.376953125,-0.6011962890625,-0.314453125,7923,-2714,-544,-5,33,-147
105835540,0.627197265625,-0.365478515625,-0.60491943359375,-0.32733154296875,7882,-2371,-485,-5,34,-147
105845523,0.62384033203125,-0.35394287109375,-0.60821533203125,-0.34002685546875,7821,-2072,-433,-6,37,-145
105855507,0.62066650390625,-0.34295654296875,-0.6109619140625,-0.35211181640625,7776,-1823,-391,-6,37,-135
105865490,0.617919921875,-0.33270263671875,-0.6129150390625,-0.36309814453125,7728,-1627,-361,-5,38,-123
105875474,0.61578369140625,-0.32342529296875,-0.6141357421875,-0.3729248046875,7699,-1476,-342,-5,39,-108
105885454,0.61431884765625,-0.31512451171875,-0.6146240234375,-0.381591796875,7652,-1321,-312,-4,41,-94
105895438,0.613525390625,-0.30743408203125,-0.614501953125,-0.3892822265625,7587,-1170,-286,-3,42,-84
105905419,0.613037109375,-0.30035400390625,-0.61395263671875,-0.3963623046875,7488,-1021,-279,-3,43,-76
105915408,0.61285400390625,-0.29339599609375,-0.6131591796875,-0.4029541015625,7371,-857,-251,-2,44,-72
105925384,0.61273193359375,-0.2864990234375,-0.6123046875,-0.409423828125,7257,-700,-214,-1,44,-71
105935372,0.61248779296875,-0.27935791015625,-0.61151123046875,-0.41583251953125,7141,-517,-162,0,44,-73
105945350,0.61212158203125,-0.27197265625,-0.6107177734375,-0.42242431640625,7062,-378,-76,1,44,-75
105955332,0.61163330078125,-0.2642822265625,-0.60992431640625,-0.4290771484375,6983,-269,16,1,45,-78
105965314,0.6109619140625,-0.25634765625,-0.609130859375,-0.4359130859375,6918,-153,115,2,45,-81
105975301,0.6102294921875,-0.2481689453125,-0.60833740234375,-0.4427490234375,6841,-45,187,2,45,-82
105985279,0.6092529296875,-0.23974609375,-0.607666015625,-0.44964599609375,6740,101,282,3,44,-85
105995261,0.60797119140625,-0.23095703125,-0.6070556640625,-0.4566650390625,6626,290,361,4,44,-88
106005243,0.60638427734375,-0.221923828125,-0.6065673828125,-0.4638671875,6497,495,450,4,43,-91
106015225,0.60443115234375,-0.21258544921875,-0.606201171875,-0.47125244140625,6385,734,557,5,41,-94
106025207,0.60211181640625,-0.20294189453125,-0.60589599609375,-0.478759765625,6292,942,674,5,40,-97
106035196,0.599609375,-0.193359375,-0.60565185546875,-0.48614501953125,6208,1132,807,5,38,-97
106045179,0.59686279296875,-0.183837890625,-0.6053466796875,-0.4935302734375,6112,1327,952,5,36,-97
106055161,0.5938720703125,-0.17425537109375,-0.60516357421875,-0.50079345703125,6031,1538,1087,5,35,-97
106065138,0.5906982421875,-0.164794921875,-0.60491943359375,-0.5079345703125,5922,1754,1216,5,32,-96
106075119,0.58721923828125,-0.15533447265625,-0.60479736328125,-0.5150146484375,5776,1968,1332,6,30,-97
106085102,0.5833740234375,-0.14593505859375,-0.60491943359375,-0.52203369140625,5612,2202,1425,6,27,-98
106095083,0.57916259765625,-0.13641357421875,-0.60516357421875,-0.5289306640625,5452,2414,1483,7,24,-99
106105066,0.5745849609375,-0.1270751953125,-0.60565185546875,-0.53570556640625,5302,2624,1532,8,21,-99
106115047,0.56976318359375,-0.1177978515625,-0.60638427734375,-0.5421142578125,5175,2804,1560,10,18,-97
106125029,0.56488037109375,-0.1090087890625,-0.6072998046875,-0.5479736328125,5048,2955,1581,12,14,-93
106135013,0.5601806640625,-0.10064697265625,-0.6083984375,-0.55316162109375,4921,3083,1620,14,11,-86
106144995,0.55560302734375,-0.0927734375,-0.609619140625,-0.5577392578125,4789,3236,1658,16,8,-80
106154978,0.55120849609375,-0.08551025390625,-0.61114501953125,-0.5615234375,4643,3386,1675,18,5,-73
106164965,0.54693603515625,-0.07861328125,-0.6129150390625,-0.56488037109375,4519,3560,1703,20,2,-68
106174941,0.54266357421875,-0.07196044921875,-0.6148681640625,-0.5677490234375,4413,3734,1711,22,0,-65
106184923,0.5382080078125,-0.0655517578125,-0.61712646484375,-0.5703125,4341,3895,1708,23,-3,-64
106194904,0.533447265625,-0.05908203125,-0.6195068359375,-0.5728759765625,4290,4081,1709,24,-5,-66
106204886,0.5283203125,-0.05255126953125,-0.62200927734375,-0.5755615234375,4272,4286,1716,24,-8,-69
106214872,0.52276611328125,-0.04583740234375,-0.6246337890625,-0.578369140625,4258,4466,1724,24,-9,-72
106224856,0.516845703125,-0.03900146484375,-0.627197265625,-0.5814208984375,4235,4651,1740,24,-10,-76
106234838,0.5106201171875,-0.0321044921875,-0.62969970703125,-0.58465576171875,4227,4844,1748,23,-11,-78
106244821,0.504150390625,-0.0252685546875,-0.63214111328125,-0.58795166015625,4205,5033,1742,21,-12,-79
106254795,0.49755859375,-0.01849365234375,-0.6343994140625,-0.59130859375,4157,5229,1735,20,-12,-79
106264778,0.4908447265625,-0.01177978515625,-0.63653564453125,-0.59478759765625,4110,5454,1728,18,-13,-79
106274759,0.4840087890625,-0.00531005859375,-0.6385498046875,-0.59832763671875,4047,5666,1718,16,-14,-78
106284742,0.4771728515625,0.00091552734375,-0.64031982421875,-0.6019287109375,3969,5872,1688,14,-14,-77
106294729,0.47039794921875,0.00689697265625,-0.641845703125,-0.6055908203125,3885,6077,1673,11,-14,-74
106304716,0.4637451171875,0.012451171875,-0.6431884765625,-0.60919189453125,3784,6259,1643,9,-15,-72
106314693,0.457275390625,0.017578125,-0.64434814453125,-0.61273193359375,3688,6432,1632,6,-15,-68
106324679,0.45111083984375,0.02227783203125,-0.645263671875,-0.6162109375,3601,6593,1639,4,-15,-63
106334661,0.4453125,0.02642822265625,-0.6458740234375,-0.61956787109375,3521,6710,1629,2,-14,-58
106344642,0.43994140625,0.02996826171875,-0.6463623046875,-0.62274169921875,3432,6789,1639,-1,-15,-53
106354620,0.43487548828125,0.032958984375,-0.64666748046875,-0.62579345703125,3331,6850,1625,-2,-15,-47
106364612,0.43011474609375,0.03546142578125,-0.6468505859375,-0.6287841796875,3194,6917,1604,-5,-16,-43
106374597,0.42559814453125,0.03765869140625,-0.64691162109375,-0.6317138671875,3067,7011,1584,-6,-16,-40
106384568,0.421142578125,0.03961181640625,-0.64678955078125,-0.6346435546875,2985,7103,1545,-8,-16,-38
106394544,0.4168701171875,0.0411376953125,-0.64666748046875,-0.63751220703125,2911,7138,1520,-10,-17,-35
106404527,0.4129638671875,0.0423583984375,-0.64642333984375,-0.64019775390625,2869,7117,1476,-10,-16,-31
106414511,0.409423828125,0.04302978515625,-0.64617919921875,-0.64263916015625,2884,7055,1461,-11,-17,-26
106424491,0.4066162109375,0.0430908203125,-0.64599609375,-0.6446533203125,2943,6965,1455,-10,-16,-18
106434474,0.4046630859375,0.0426025390625,-0.6458740234375,-0.64599609375,3034,6830,1472,-8,-13,-9
106444458,0.40380859375,0.04168701171875,-0.64593505859375,-0.64654541015625,3124,6698,1492,-3,-11,1
106454438,0.40386962890625,0.04046630859375,-0.646240234375,-0.64630126953125,3199,6613,1500,1,-7,9
106464420,0.40447998046875,0.03936767578125,-0.646728515625,-0.6455078125,3230,6603,1482,4,-5,12
106474407,0.4051513671875,0.03863525390625,-0.64727783203125,-0.64453125,3260,6668,1453,6,-2,11
106484384,0.40570068359375,0.0384521484375,-0.64794921875,-0.6435546875,3281,6749,1419,8,-1,7
106494373,0.4058837890625,0.03863525390625,-0.6485595703125,-0.642822265625,3282,6834,1395,8,-1,3
106504351,0.40576171875,0.0390625,-0.64923095703125,-0.64215087890625,3285,6898,1363,8,-1,0
106514333,0.40545654296875,0.03955078125,-0.64990234375,-0.64166259765625,3300,6953,1315,7,-3,-1
106524311,0.4049072265625,0.0399169921875,-0.650634765625,-0.6412353515625,3321,7005,1258,7,-4,-2
106534293,0.404052734375,0.040283203125,-0.6513671875,-0.6409912109375,3323,7073,1218,5,-6,-5
106544275,0.40283203125,0.04083251953125,-0.652099609375,-0.6409912109375,3320,7162,1180,5,-7,-8
106554257,0.4012451171875,0.04150390625,-0.6527099609375,-0.641357421875,3306,7232,1149,3,-8,-11
106564241,0.39947509765625,0.04205322265625,-0.6533203125,-0.64178466796875,3278,7288,1114,1,-9,-11
106574224,0.3978271484375,0.04229736328125,-0.65386962890625,-0.64227294921875,3244,7306,1097,0,-10,-8
106584210,0.396728515625,0.0418701171875,-0.65435791015625,-0.6424560546875,3207,7296,1109,0,-11,0
106594194,0.3963623046875,0.04052734375,-0.65484619140625,-0.64227294921875,3170,7258,1128,-1,-12,11
106604175,0.39691162109375,0.0380859375,-0.65533447265625,-0.64154052734375,3143,7175,1141,-2,-12,23
106614156,0.3983154296875,0.03472900390625,-0.6558837890625,-0.64031982421875,3119,7069,1172,-2,-13,34
106624132,0.40045166015625,0.03057861328125,-0.65643310546875,-0.63861083984375,3084,6966,1182,-2,-13,43
106634115,0.403076171875,0.02593994140625,-0.656982421875,-0.6365966796875,3049,6862,1190,-2,-13,49
106644098,0.406005859375,0.02105712890625,-0.65753173828125,-0.63433837890625,3009,6764,1198,-1,-12,52
106654081,0.40899658203125,0.01611328125,-0.6580810546875,-0.63201904296875,2961,6655,1179,-1,-12,53
106664064,0.412109375,0.01116943359375,-0.65869140625,-0.6295166015625,2923,6545,1171,-1,-12,55
106674049,0.415283203125,0.00628662109375,-0.65924072265625,-0.62689208984375,2913,6429,1154,1,-11,55
106684029,0.41864013671875,0.00115966796875,-0.6597900390625,-0.62408447265625,2922,6308,1147,1,-11,59
106694012,0.42230224609375,-0.004150390625,-0.66033935546875,-0.62103271484375,2930,6208,1145,1,-11,61
106703994,0.4261474609375,-0.00958251953125,-0.66082763671875,-0.61773681640625,2964,6135,1143,1,-10,64
106713980,0.43011474609375,-0.01519775390625,-0.66131591796875,-0.6143798828125,3014,6104,1144,2,-10,66
106723965,0.4342041015625,-0.020751953125,-0.66168212890625,-0.6109619140625,3077,6069,1158,1,-9,66
106733944,0.43829345703125,-0.02630615234375,-0.66192626953125,-0.6075439453125,3136,5998,1152,1,-8,66
106743926,0.44256591796875,-0.031982421875,-0.662109375,-0.60394287109375,3181,5906,1123,1,-8,69
106753907,0.4471435546875,-0.0379638671875,-0.6622314453125,-0.60015869140625,3239,5821,1098,1,-7,73
106763889,0.45196533203125,-0.0443115234375,-0.6622314453125,-0.5960693359375,3309,5738,1071,0,-7,78
106773872,0.4571533203125,-0.0509033203125,-0.662109375,-0.59173583984375,3407,5660,1039,0,-7,81
106783853,0.46246337890625,-0.05780029296875,-0.661865234375,-0.587158203125,3540,5591,1017,-1,-7,84
106793840,0.4677734375,-0.06475830078125,-0.6614990234375,-0.5826416015625,3676,5509,990,-1,-6,83
106803823,0.4730224609375,-0.071533203125,-0.66094970703125,-0.57818603515625,3833,5430,974,-2,-5,81
106813799,0.4781494140625,-0.07818603515625,-0.66033935546875,-0.57379150390625,4007,5347,933,-3,-4,79
106823781,0.4833984375,-0.0848388671875,-0.6595458984375,-0.5693359375,4209,5222,887,-3,-3,81
106833765,0.48907470703125,-0.09210205078125,-0.65863037109375,-0.564453125,4436,5015,846,-3,-3,88
106843747,0.49560546875,-0.1002197265625,-0.657470703125,-0.55865478515625,4684,4716,777,-2,-2,101
106853729,0.5032958984375,-0.10980224609375,-0.65606689453125,-0.5516357421875,4945,4343,708,-1,-3,118
106863716,0.51202392578125,-0.120849609375,-0.6544189453125,-0.54315185546875,5230,3992,626,0,-3,135
106873696,0.521484375,-0.1329345703125,-0.6524658203125,-0.5335693359375,5552,3709,548,1,-3,147
106883679,0.53125,-0.1453857421875,-0.6502685546875,-0.5233154296875,5882,3465,477,1,-3,151
106893666,0.5408935546875,-0.15777587890625,-0.6478271484375,-0.51275634765625,6224,3221,423,3,-2,151
106903652,0.5504150390625,-0.16986083984375,-0.6451416015625,-0.5020751953125,6500,2961,352,3,0,148
106913632,0.5595703125,-0.18133544921875,-0.64227294921875,-0.491455078125,6633,2751,314,5,2,143
106923612,0.56817626953125,-0.19171142578125,-0.63934326171875,-0.4813232421875,6616,2656,303,6,4,134
106933603,0.57586669921875,-0.20074462890625,-0.6365966796875,-0.47210693359375,6543,2651,289,7,5,120
106943584,0.58258056640625,-0.20831298828125,-0.63409423828125,-0.46380615234375,6511,2540,283,8,5,106
106953560,0.5887451171875,-0.21514892578125,-0.63177490234375,-0.45599365234375,6622,2244,255,9,5,96
106963537,0.59478759765625,-0.2220458984375,-0.62939453125,-0.4481201171875,6835,1806,224,9,5,96
106973519,0.6011962890625,-0.22955322265625,-0.62677001953125,-0.439453125,7098,1320,208,10,5,103
106983503,0.6080322265625,-0.2379150390625,-0.62371826171875,-0.4298095703125,7338,930,212,10,4,115
106993483,0.61517333984375,-0.24688720703125,-0.6202392578125,-0.41949462890625,7457,712,244,10,4,123
107003474,0.622314453125,-0.255859375,-0.61651611328125,-0.40887451171875,7456,635,281,10,4,126
107013450,0.6290283203125,-0.2646484375,-0.61279296875,-0.39849853515625,7390,603,329,9,3,123
107023433,0.63519287109375,-0.27301025390625,-0.609130859375,-0.38848876953125,7305,524,373,7,1,117
107033418,0.6407470703125,-0.28118896484375,-0.60565185546875,-0.37896728515625,7278,378,409,6,-1,112
107043401,0.64581298828125,-0.289306640625,-0.6021728515625,-0.36968994140625,7328,134,432,4,-3,109
107053378,0.65057373046875,-0.29766845703125,-0.5986328125,-0.36029052734375,7453,-172,462,2,-5,109
107063357,0.6552734375,-0.306396484375,-0.5948486328125,-0.3507080078125,7581,-479,499,0,-6,112
107073339,0.65985107421875,-0.3153076171875,-0.59075927734375,-0.3409423828125,7649,-727,513,-1,-6,114
107083320,0.6640625,-0.3243408203125,-0.58660888671875,-0.33123779296875,7605,-867,510,-3,-7,113
107093301,0.6678466796875,-0.3331298828125,-0.58251953125,-0.322021484375,7440,-933,524,-5,-8,108
107103284,0.6708984375,-0.3414306640625,-0.578857421875,-0.3134765625,7261,-918,508,-8,-11,100
107113265,0.6732177734375,-0.349365234375,-0.5755615234375,-0.30572509765625,7143,-1017,472,-10,-13,92
107123249,0.67498779296875,-0.35736083984375,-0.572509765625,-0.29827880859375,7075,-1204,425,-12,-16,89
107133230,0.6763916015625,-0.36566162109375,-0.56939697265625,-0.290771484375,7096,-1410,374,-15,-18,89
107143216,0.67767333984375,-0.37432861328125,-0.566162109375,-0.2830810546875,7168,-1633,328,-16,-19,94
107153194,0.67901611328125,-0.3834228515625,-0.56243896484375,-0.27496337890625,7277,-1907,313,-18,-19,99
107163186,0.68048095703125,-0.3931884765625,-0.55810546875,-0.2662353515625,7345,-2252,271,-19,-17,107
107173168,0.6820068359375,-0.40350341796875,-0.55322265625,-0.2568359375,7339,-2575,187,-21,-18,115
107183145,0.6834716796875,-0.41436767578125,-0.5479736328125,-0.246826171875,7239,-2843,109,-22,-19,121
107193128,0.68463134765625,-0.42547607421875,-0.54248046875,-0.23651123046875,7146,-3105,25,-23,-21,123
107203109,0.6854248046875,-0.43682861328125,-0.5369873046875,-0.22601318359375,7158,-3476,-65,-24,-23,124
107213092,0.685791015625,-0.4482421875,-0.53143310546875,-0.21533203125,7198,-3870,-161,-26,-25,123
107223076,0.68585205078125,-0.45947265625,-0.52587890625,-0.20489501953125,7279,-4215,-231,-27,-25,120
107233058,0.685546875,-0.47021484375,-0.5205078125,-0.195068359375,7331,-4506,-268,-28,-24,114
107243037,0.68499755859375,-0.4803466796875,-0.51531982421875,-0.1859130859375,7339,-4796,-338,-28,-23,105
107253018,0.6842041015625,-0.48980712890625,-0.51043701171875,-0.17742919921875,7276,-5039,-413,-27,-22,97
107263000,0.68316650390625,-0.49859619140625,-0.505859375,-0.16961669921875,7176,-5268,-481,-27,-21,89
107272983,0.68194580078125,-0.50689697265625,-0.501708984375,-0.16229248046875,7053,-5501,-556,-26,-22,83
107282965,0.68060302734375,-0.5146484375,-0.4979248046875,-0.15509033203125,6921,-5694,-653,-24,-23,78
107292949,0.678955078125,-0.52215576171875,-0.49444580078125,-0.14801025390625,6820,-5801,-719,-23,-25,76
107302931,0.67724609375,-0.529296875,-0.49127197265625,-0.1409912109375,6771,-5815,-759,-22,-27,74
107312914,0.675537109375,-0.53607177734375,-0.48822021484375,-0.13409423828125,6765,-5760,-748,-20,-27,73
107322896,0.673828125,-0.54254150390625,-0.48516845703125,-0.1273193359375,6824,-5782,-694,-20,-26,73
107332878,0.67236328125,-0.54901123046875,-0.48175048828125,-0.12030029296875,6916,-5928,-667,-18,-25,77
107342856,0.67108154296875,-0.5557861328125,-0.47760009765625,-0.11260986328125,6964,-6203,-684,-17,-24,86
107352847,0.6700439453125,-0.56304931640625,-0.47259521484375,-0.10382080078125,6947,-6474,-736,-15,-23,97
107362830,0.6690673828125,-0.5706787109375,-0.46673583984375,-0.09405517578125,6864,-6697,-797,-14,-23,108
107372812,0.66815185546875,-0.57861328125,-0.46026611328125,-0.08343505859375,6744,-6878,-861,-12,-24,116
107382789,0.66717529296875,-0.5865478515625,-0.4534912109375,-0.07232666015625,6602,-7009,-921,-11,-25,120
107392773,0.6661376953125,-0.59417724609375,-0.4466552734375,-0.06109619140625,6472,-7085,-957,-9,-25,119
107402753,0.6650390625,-0.60125732421875,-0.44012451171875,-0.0501708984375,6355,-7088,-946,-8,-25,114
107412736,0.6639404296875,-0.6075439453125,-0.43408203125,-0.0401611328125,6274,-7088,-906,-7,-24,104
107422716,0.662841796875,-0.61322021484375,-0.4285888671875,-0.0308837890625,6221,-7206,-898,-6,-23,96
107432699,0.6617431640625,-0.61834716796875,-0.4234619140625,-0.02215576171875,6149,-7427,-907,-5,-22,89
107442681,0.66064453125,-0.62310791015625,-0.41845703125,-0.01373291015625,6055,-7662,-926,-4,-22,86
107452662,0.6595458984375,-0.62762451171875,-0.41351318359375,-0.00531005859375,5969,-7889,-976,-3,-22,85
107462653,0.658447265625,-0.63201904296875,-0.40863037109375,0.0030517578125,5873,-8082,-1013,-2,-21,84
107472636,0.6573486328125,-0.6361083984375,-0.40386962890625,0.01129150390625,5803,-8177,-1029,-2,-21,83
107482616,0.65631103515625,-0.639892578125,-0.3992919921875,0.01910400390625,5751,-8201,-1033,-1,-21,79
107492606,0.6552734375,-0.643310546875,-0.39508056640625,0.0263671875,5697,-8154,-1004,-1,-19,74
107502589,0.65435791015625,-0.64630126953125,-0.39117431640625,0.03302001953125,5650,-8095,-965,-1,-18,68
107512563,0.65350341796875,-0.6490478515625,-0.38751220703125,0.03900146484375,5602,-8054,-929,-1,-16,63
107522539,0.6527099609375,-0.651611328125,-0.38397216796875,0.0445556640625,5550,-8086,-893,-2,-14,60
107532521,0.65191650390625,-0.654052734375,-0.3804931640625,0.04974365234375,5487,-8154,-903,-2,-12,59
107542503,0.651123046875,-0.65655517578125,-0.37677001953125,0.05499267578125,5391,-8229,-911,-2,-11,60
107552487,0.650390625,-0.65911865234375,-0.372802734375,0.0601806640625,5294,-8320,-934,-2,-10,61
107562474,0.64959716796875,-0.6617431640625,-0.36865234375,0.06536865234375,5178,-8392,-978,-2,-8,62
107572452,0.6488037109375,-0.664306640625,-0.3643798828125,0.070556640625,5063,-8438,-1016,-2,-8,63
107582433,0.64801025390625,-0.6668701171875,-0.360107421875,0.0755615234375,4940,-8451,-1045,-2,-7,61
107592418,0.6473388671875,-0.669189453125,-0.35601806640625,0.08026123046875,4809,-8424,-1044,-1,-6,58
107602405,0.646728515625,-0.6712646484375,-0.35211181640625,0.08453369140625,4668,-8378,-1035,-1,-4,53
107612381,0.646240234375,-0.67315673828125,-0.3485107421875,0.08831787109375,4530,-8361,-1037,-1,-3,49
107622361,0.64581298828125,-0.67486572265625,-0.3450927734375,0.09173583984375,4389,-8364,-1062,-1,-2,45
107632345,0.64544677734375,-0.676513671875,-0.34173583984375,0.09490966796875,4226,-8409,-1083,0,-2,43
107642325,0.64501953125,-0.67803955078125,-0.3385009765625,0.09814453125,4069,-8461,-1101,0,-2,42
107652307,0.64471435546875,-0.67950439453125,-0.33514404296875,0.10137939453125,3920,-8516,-1129,1,-1,43
107662289,0.64447021484375,-0.680908203125,-0.331787109375,0.10467529296875,3773,-8558,-1148,2,-1,42
107672272,0.644287109375,-0.68212890625,-0.3284912109375,0.10791015625,3643,-8582,-1168,4,-1,41
107682252,0.644287109375,-0.6832275390625,-0.3253173828125,0.11102294921875,3516,-8610,-1182,5,-1,39
107692236,0.64434814453125,-0.68408203125,-0.32232666015625,0.11395263671875,3405,-8673,-1209,6,-1,36
107702222,0.64459228515625,-0.68475341796875,-0.31939697265625,0.11676025390625,3284,-8744,-1231,7,0,34
107712207,0.6448974609375,-0.68524169921875,-0.31671142578125,0.119384765625,3192,-8819,-1255,9,0,32
107722192,0.64532470703125,-0.68560791015625,-0.31402587890625,0.1220703125,3085,-8869,-1274,9,0,31
107732175,0.645751953125,-0.6859130859375,-0.3115234375,0.1246337890625,2987,-8887,-1282,10,-1,30
107742155,0.64630126953125,-0.68597412109375,-0.30914306640625,0.127197265625,2886,-8895,-1271,12,-1,28
107752131,0.64691162109375,-0.6859130859375,-0.30694580078125,0.12969970703125,2789,-8848,-1248,12,-2,25
107762113,0.647705078125,-0.68560791015625,-0.30511474609375,0.1318359375,2734,-8776,-1221,13,-2,21
107772096,0.64849853515625,-0.68511962890625,-0.30364990234375,0.13360595703125,2688,-8688,-1191,13,-2,16
107782077,0.64947509765625,-0.68438720703125,-0.30267333984375,0.13494873046875,2651,-8593,-1146,13,-1,11
107792060,0.6505126953125,-0.6834716796875,-0.302001953125,0.1358642578125,2627,-8507,-1106,13,-1,6
107802046,0.651611328125,-0.6824951171875,-0.3016357421875,0.1363525390625,2601,-8403,-1061,13,0,3
107812023,0.65277099609375,-0.68145751953125,-0.301513671875,0.1365966796875,2579,-8300,-1011,12,0,0
107822005,0.65386962890625,-0.68035888671875,-0.30157470703125,0.13653564453125,2556,-8168,-955,11,1,-2
107831986,0.655029296875,-0.67926025390625,-0.30169677734375,0.1363525390625,2541,-8038,-887,10,1,-3
107841968,0.65606689453125,-0.67816162109375,-0.3018798828125,0.13604736328125,2535,-7906,-845,10,1,-4
107851950,0.6571044921875,-0.67718505859375,-0.30206298828125,0.1356201171875,2546,-7807,-801,9,2,-4
107861933,0.6580810546875,-0.67633056640625,-0.3021240234375,0.13519287109375,2521,-7720,-756,8,2,-3
107871915,0.65887451171875,-0.67559814453125,-0.30206298828125,0.134765625,2522,-7656,-731,6,3,-2
107881896,0.65960693359375,-0.675048828125,-0.30194091796875,0.1343994140625,2493,-7602,-715,5,3,-1
107891881,0.66021728515625,-0.67462158203125,-0.30157470703125,0.13409423828125,2451,-7588,-712,5,4,1
107901859,0.6607666015625,-0.67437744140625,-0.3011474609375,0.13385009765625,2417,-7570,-717,3,4,2
107911852,0.66119384765625,-0.67431640625,-0.300537109375,0.1336669921875,2358,-7590,-706,2,4,3
107921833,0.6614990234375,-0.67431640625,-0.2999267578125,0.1334228515625,2313,-7575,-706,1,5,3
107931815,0.6617431640625,-0.67437744140625,-0.29931640625,0.1331787109375,2255,-7549,-711,1,5,3
107941792,0.6619873046875,-0.67449951171875,-0.2987060546875,0.1329345703125,2192,-7535,-729,0,5,3
107951775,0.662109375,-0.6746826171875,-0.298095703125,0.132568359375,2129,-7530,-742,-1,5,2
107961754,0.66217041015625,-0.67498779296875,-0.2974853515625,0.13214111328125,2060,-7525,-753,-2,6,2
107971737,0.66217041015625,-0.67535400390625,-0.296875,0.1317138671875,2000,-7528,-772,-2,6,1
107981719,0.662109375,-0.6756591796875,-0.29644775390625,0.131103515625,1956,-7541,-803,-3,6,0
107991701,0.66204833984375,-0.67608642578125,-0.29595947265625,0.1304931640625,1896,-7594,-825,-3,6,0
108001685,0.6619873046875,-0.67645263671875,-0.2955322265625,0.12982177734375,1836,-7660,-843,-4,6,-1
108011660,0.661865234375,-0.6768798828125,-0.29510498046875,0.129150390625,1780,-7701,-865,-4,6,-1
108021652,0.66180419921875,-0.67724609375,-0.29473876953125,0.1285400390625,1732,-7739,-875,-3,6,-1
108031634,0.6617431640625,-0.67755126953125,-0.29437255859375,0.12786865234375,1701,-7784,-881,-3,5,-2
108041614,0.6617431640625,-0.6778564453125,-0.29400634765625,0.127197265625,1679,-7806,-893,-3,6,-2
108051604,0.66168212890625,-0.67816162109375,-0.2935791015625,0.1265869140625,1654,-7814,-910,-2,5,-1
108061597,0.66168212890625,-0.67852783203125,-0.2930908203125,0.1260986328125,1635,-7819,-900,-2,5,0
108071565,0.6617431640625,-0.6788330078125,-0.29241943359375,0.12579345703125,1614,-7844,-899,-2,6,2
108085418,0.6617431640625,-0.67919921875,-0.29156494140625,0.12567138671875,1601,-7856,-897,-1,5,4
108091530,0.6617431640625,-0.6795654296875,-0.29058837890625,0.125732421875,1577,-7877,-898,-1,5,6
108101510,0.661865234375,-0.679931640625,-0.2894287109375,0.12603759765625,1567,-7911,-886,0,5,8
108111490,0.66192626953125,-0.68035888671875,-0.28814697265625,0.12640380859375,1544,-7937,-880,1,5,9
