subject,Dean Black
arm,left
label,3
hz,100.17623970613627
time,5.959497

timestamp_us,q0,q1,q2,q3,ax,ay,az,gx,gy,gz
38379302,0.6513671875,-0.2669677734375,-0.68511962890625,0.18719482421875,6452,-4895,-701,-1,-1,0
38389287,0.65130615234375,-0.26702880859375,-0.6851806640625,0.18707275390625,6461,-4893,-711,-2,-1,-1
38399263,0.6512451171875,-0.26702880859375,-0.685302734375,0.18695068359375,6455,-4893,-709,-1,-1,-2
38409250,0.65118408203125,-0.2669677734375,-0.6854248046875,0.186767578125,6453,-4894,-713,-1,-1,-2
38419236,0.651123046875,-0.2669677734375,-0.685546875,0.18658447265625,6447,-4905,-714,-1,-1,-2
38429216,0.651123046875,-0.26690673828125,-0.68560791015625,0.1864013671875,6456,-4917,-725,-1,-1,-2
38439201,0.65106201171875,-0.2669677734375,-0.6856689453125,0.186279296875,6491,-4933,-749,-1,-1,-1
38449189,0.6510009765625,-0.2669677734375,-0.68572998046875,0.1861572265625,6549,-4949,-746,-1,-1,-1
38459177,0.6510009765625,-0.2669677734375,-0.685791015625,0.18609619140625,6649,-4988,-761,-1,0,-1
38469155,0.6510009765625,-0.26690673828125,-0.6859130859375,0.185791015625,6812,-5029,-783,-1,0,-2
38479132,0.651123046875,-0.26654052734375,-0.68603515625,0.185302734375,7006,-5064,-805,-1,0,-5
38489105,0.65142822265625,-0.26580810546875,-0.686279296875,0.18438720703125,7245,-5146,-827,-1,1,-10
38499087,0.6519775390625,-0.26458740234375,-0.6866455078125,0.18292236328125,7511,-5249,-855,-1,2,-17
38509071,0.65264892578125,-0.2626953125,-0.687255859375,0.18084716796875,7787,-5375,-885,-1,2,-24
38519052,0.65350341796875,-0.26025390625,-0.6881103515625,0.1781005859375,8033,-5457,-921,-2,3,-32
38529035,0.654541015625,-0.257080078125,-0.68927001953125,0.17449951171875,8230,-5444,-956,-3,3,-41
38539019,0.6556396484375,-0.253173828125,-0.69073486328125,0.1700439453125,8401,-5340,-950,-4,2,-51
38549001,0.65692138671875,-0.24853515625,-0.6925048828125,0.164794921875,8533,-5163,-921,-5,1,-58
38558989,0.6580810546875,-0.24334716796875,-0.694580078125,0.15887451171875,8615,-4952,-866,-7,-1,-65
38568973,0.6591796875,-0.23779296875,-0.69696044921875,0.15240478515625,8680,-4704,-818,-8,-2,-70
38578950,0.66009521484375,-0.2318115234375,-0.6995849609375,0.14532470703125,8738,-4455,-783,-10,-4,-75
38588931,0.66082763671875,-0.225341796875,-0.7025146484375,0.13763427734375,8803,-4232,-763,-12,-7,-83
38598914,0.66143798828125,-0.21826171875,-0.705810546875,0.12908935546875,8919,-4031,-786,-14,-8,-91
38608896,0.661865234375,-0.21038818359375,-0.70947265625,0.11968994140625,9058,-3857,-813,-15,-10,-102
38618878,0.662109375,-0.20159912109375,-0.71343994140625,0.109375,9213,-3737,-857,-16,-12,-113
38628861,0.6622314453125,-0.19183349609375,-0.7176513671875,0.09808349609375,9401,-3649,-921,-17,-13,-125
38638843,0.66217041015625,-0.18109130859375,-0.72210693359375,0.08587646484375,9581,-3540,-981,-17,-15,-137
38648827,0.66192626953125,-0.1693115234375,-0.7265625,0.0728759765625,9771,-3392,-1046,-17,-16,-147
38658807,0.66143798828125,-0.1566162109375,-0.7310791015625,0.0592041015625,9961,-3212,-1100,-16,-16,-156
38668789,0.66082763671875,-0.14312744140625,-0.7353515625,0.0450439453125,10160,-3025,-1177,-15,-16,-163
38678769,0.6600341796875,-0.12908935546875,-0.73944091796875,0.030517578125,10326,-2817,-1249,-14,-16,-169
38688760,0.6590576171875,-0.114501953125,-0.7431640625,0.01580810546875,10460,-2556,-1316,-12,-14,-172
38698743,0.65789794921875,-0.099609375,-0.74652099609375,0.00103759765625,10556,-2274,-1359,-11,-13,-174
38708726,0.65667724609375,-0.08465576171875,-0.74932861328125,-0.01348876953125,10652,-1974,-1398,-9,-11,-172
38718703,0.65533447265625,-0.07000732421875,-0.7515869140625,-0.02740478515625,10723,-1664,-1435,-7,-9,-166
38728686,0.65411376953125,-0.0560302734375,-0.75323486328125,-0.04046630859375,10787,-1354,-1461,-6,-6,-157
38738668,0.6529541015625,-0.0428466796875,-0.75439453125,-0.05255126953125,10818,-1037,-1483,-4,-3,-146
38748651,0.65191650390625,-0.030517578125,-0.7550048828125,-0.06365966796875,10835,-728,-1491,-3,-1,-136
38758637,0.65106201171875,-0.01898193359375,-0.7552490234375,-0.07379150390625,10811,-410,-1487,-2,2,-126
38768616,0.650390625,-0.008056640625,-0.7550048828125,-0.083251953125,10747,-72,-1467,-1,5,-119
38778598,0.64996337890625,0.0025634765625,-0.75433349609375,-0.0924072265625,10673,252,-1430,-1,8,-116
38788582,0.649658203125,0.01312255859375,-0.75335693359375,-0.1014404296875,10550,557,-1408,-1,11,-115
38798565,0.64947509765625,0.023681640625,-0.751953125,-0.1104736328125,10396,860,-1375,-2,14,-116
38808546,0.6492919921875,0.03436279296875,-0.750244140625,-0.1197509765625,10220,1178,-1329,-3,16,-118
38818530,0.64923095703125,0.04522705078125,-0.7481689453125,-0.12939453125,10043,1517,-1264,-4,18,-120
38828511,0.649169921875,0.0562744140625,-0.74566650390625,-0.13946533203125,9866,1876,-1182,-6,20,-123
38838493,0.6490478515625,0.06744384765625,-0.74273681640625,-0.15008544921875,9684,2231,-1079,-9,21,-127
38848477,0.6488037109375,0.07879638671875,-0.739501953125,-0.1612548828125,9497,2583,-992,-12,22,-131
38858459,0.64837646484375,0.09033203125,-0.73590087890625,-0.17303466796875,9263,2902,-911,-16,23,-136
38868443,0.647705078125,0.1019287109375,-0.73193359375,-0.18536376953125,9003,3179,-830,-19,23,-140
38878431,0.64678955078125,0.113525390625,-0.7276611328125,-0.1982421875,8733,3436,-756,-22,23,-143
38888413,0.6456298828125,0.12506103515625,-0.72308349609375,-0.21142578125,8476,3649,-688,-25,22,-145
38898393,0.64422607421875,0.13616943359375,-0.71832275390625,-0.2247314453125,8244,3827,-651,-27,21,-144
38908369,0.642578125,0.1468505859375,-0.71337890625,-0.238037109375,8039,3959,-620,-30,20,-142
38918353,0.64068603515625,0.156982421875,-0.7083740234375,-0.25115966796875,7870,4079,-615,-32,19,-140
38928338,0.63861083984375,0.1666259765625,-0.70330810546875,-0.26416015625,7690,4175,-591,-34,17,-138
38938321,0.63623046875,0.17608642578125,-0.69805908203125,-0.27734375,7514,4260,-576,-36,16,-139
38948303,0.63348388671875,0.185546875,-0.69268798828125,-0.29071044921875,7368,4324,-567,-37,15,-143
38958287,0.63031005859375,0.19500732421875,-0.6871337890625,-0.30426025390625,7222,4400,-566,-38,13,-146
38968268,0.626708984375,0.20452880859375,-0.681396484375,-0.31793212890625,7076,4479,-549,-38,12,-148
38978250,0.62286376953125,0.21392822265625,-0.675537109375,-0.3316650390625,6930,4570,-553,-38,10,-148
38988239,0.61871337890625,0.2230224609375,-0.66961669921875,-0.34503173828125,6801,4642,-554,-38,9,-146
38998221,0.61444091796875,0.23175048828125,-0.66375732421875,-0.3580322265625,6655,4688,-563,-38,8,-142
39008203,0.610107421875,0.24005126953125,-0.65789794921875,-0.37060546875,6491,4717,-559,-38,7,-139
39018182,0.6055908203125,0.24810791015625,-0.65203857421875,-0.38287353515625,6306,4727,-547,-37,7,-137
39028174,0.60089111328125,0.25604248046875,-0.6461181640625,-0.39483642578125,6132,4730,-546,-36,6,-136
39038159,0.595947265625,0.2640380859375,-0.64019775390625,-0.406494140625,5956,4741,-520,-34,5,-137
39048133,0.59075927734375,0.27215576171875,-0.63421630859375,-0.41802978515625,5780,4771,-497,-32,5,-137
39058110,0.58526611328125,0.2802734375,-0.628173828125,-0.42926025390625,5587,4805,-460,-30,5,-137
39068092,0.579833984375,0.2882080078125,-0.62225341796875,-0.43994140625,5414,4841,-415,-27,5,-133
39078073,0.574462890625,0.2958984375,-0.616455078125,-0.449951171875,5230,4874,-381,-25,5,-127
39088057,0.5692138671875,0.30322265625,-0.61090087890625,-0.459228515625,5025,4884,-352,-22,5,-120
39098045,0.5640869140625,0.31036376953125,-0.60552978515625,-0.46783447265625,4819,4898,-323,-19,6,-116
39108023,0.55889892578125,0.3173828125,-0.600341796875,-0.4759521484375,4603,4923,-302,-16,6,-113
39118004,0.5535888671875,0.3245849609375,-0.59521484375,-0.48370361328125,4367,4975,-258,-13,6,-112
39127990,0.54815673828125,0.331787109375,-0.5902099609375,-0.4910888671875,4143,5023,-231,-10,6,-110
39137975,0.5426025390625,0.33892822265625,-0.58538818359375,-0.498046875,3910,5063,-196,-8,5,-107
39147951,0.53717041015625,0.3458251953125,-0.58087158203125,-0.50445556640625,3631,5117,-161,-5,5,-101
39157935,0.53179931640625,0.35235595703125,-0.5767822265625,-0.51025390625,3312,5188,-123,-3,3,-93
39167920,0.52679443359375,0.35833740234375,-0.5732421875,-0.5152587890625,2991,5277,-70,1,2,-82
39177900,0.5223388671875,0.36346435546875,-0.57037353515625,-0.51934814453125,2725,5359,-23,3,1,-69
39187881,0.5184326171875,0.36767578125,-0.56842041015625,-0.5224609375,2523,5466,23,6,-2,-56
39197862,0.514892578125,0.37115478515625,-0.567138671875,-0.52484130859375,2368,5622,80,8,-4,-47
39207844,0.5113525390625,0.37432861328125,-0.5662841796875,-0.52703857421875,2223,5813,140,9,-6,-45
39217826,0.50732421875,0.37774658203125,-0.56536865234375,-0.5294189453125,2097,6016,187,10,-8,-50
39227807,0.50262451171875,0.381591796875,-0.56414794921875,-0.532470703125,1968,6229,245,10,-10,-60
39237790,0.49688720703125,0.38629150390625,-0.56231689453125,-0.53631591796875,1824,6441,277,11,-11,-74
39247778,0.49005126953125,0.3919677734375,-0.559814453125,-0.5411376953125,1689,6648,300,10,-12,-90
39257763,0.482177734375,0.39849853515625,-0.55657958984375,-0.5467529296875,1535,6819,305,10,-13,-103
39267743,0.47344970703125,0.4056396484375,-0.552734375,-0.552978515625,1367,6951,302,10,-14,-113
39277726,0.46405029296875,0.41326904296875,-0.5484619140625,-0.5595703125,1179,7076,291,11,-14,-120
39287702,0.45416259765625,0.4210205078125,-0.5438232421875,-0.56634521484375,984,7188,304,10,-15,-124
39297684,0.44403076171875,0.42864990234375,-0.53900146484375,-0.57318115234375,785,7267,323,10,-16,-125
39307669,0.4339599609375,0.43603515625,-0.5341796875,-0.579833984375,568,7339,334,10,-16,-122
39317651,0.42401123046875,0.44305419921875,-0.52947998046875,-0.586181640625,349,7414,352,9,-17,-118
39327634,0.414306640625,0.449462890625,-0.52484130859375,-0.59234619140625,114,7474,382,8,-18,-113
39337615,0.40496826171875,0.45538330078125,-0.5203857421875,-0.59820556640625,-135,7525,422,7,-19,-107
39347599,0.39605712890625,0.460693359375,-0.51611328125,-0.603759765625,-369,7536,467,6,-19,-100
39357581,0.38787841796875,0.46527099609375,-0.51220703125,-0.60888671875,-584,7524,492,5,-19,-90
39367564,0.38043212890625,0.46923828125,-0.50860595703125,-0.613525390625,-810,7488,543,4,-18,-80
39377544,0.3739013671875,0.47235107421875,-0.5054931640625,-0.61773681640625,-1006,7427,595,2,-18,-68
39387528,0.36846923828125,0.47467041015625,-0.5029296875,-0.621337890625,-1169,7347,649,1,-17,-56
39397510,0.3638916015625,0.47625732421875,-0.500732421875,-0.62451171875,-1333,7242,688,-1,-16,-46
39407489,0.36004638671875,0.4774169921875,-0.49884033203125,-0.62738037109375,-1470,7125,722,-2,-15,-39
39417472,0.35675048828125,0.47821044921875,-0.49700927734375,-0.630126953125,-1579,7004,740,-4,-14,-34
39427455,0.35369873046875,0.47894287109375,-0.49517822265625,-0.6326904296875,-1694,6897,757,-6,-13,-33
39437443,0.350830078125,0.47967529296875,-0.4930419921875,-0.6353759765625,-1804,6828,777,-7,-12,-34
39447427,0.347900390625,0.48046875,-0.4906005859375,-0.6383056640625,-1921,6767,808,-10,-12,-37
39457408,0.3448486328125,0.4814453125,-0.48773193359375,-0.64141845703125,-2051,6723,823,-12,-12,-40
39467391,0.341552734375,0.48260498046875,-0.484375,-0.64483642578125,-2171,6687,860,-14,-11,-44
39477368,0.33807373046875,0.48388671875,-0.48065185546875,-0.64849853515625,-2271,6638,887,-16,-11,-48
39487351,0.33441162109375,0.4852294921875,-0.47650146484375,-0.65240478515625,-2372,6588,909,-18,-11,-51
39497333,0.33062744140625,0.48663330078125,-0.47210693359375,-0.656494140625,-2439,6533,915,-20,-12,-53
39507314,0.32684326171875,0.48797607421875,-0.4676513671875,-0.66058349609375,-2474,6480,896,-21,-12,-54
39517297,0.3232421875,0.48919677734375,-0.463134765625,-0.66461181640625,-2502,6417,885,-22,-11,-52
39527280,0.320068359375,0.490234375,-0.45880126953125,-0.66845703125,-2517,6374,880,-22,-10,-48
39537261,0.31744384765625,0.490966796875,-0.45477294921875,-0.67181396484375,-2535,6319,870,-22,-8,-40
39547250,0.315673828125,0.491455078125,-0.45135498046875,-0.6746826171875,-2536,6247,877,-21,-7,-31
39557235,0.31475830078125,0.49163818359375,-0.448486328125,-0.6768798828125,-2536,6166,885,-19,-3,-21
39567222,0.314697265625,0.4915771484375,-0.44622802734375,-0.6783447265625,-2538,6079,892,-17,0,-10
39577199,0.31549072265625,0.4913330078125,-0.44464111328125,-0.67926025390625,-2547,6007,891,-15,3,-2
39587188,0.3167724609375,0.4910888671875,-0.4434814453125,-0.6795654296875,-2581,5945,910,-13,6,4
39597169,0.3184814453125,0.49090576171875,-0.442626953125,-0.679443359375,-2642,5912,937,-11,8,9
39607151,0.3204345703125,0.4908447265625,-0.44207763671875,-0.678955078125,-2734,5905,969,-9,10,12
39617122,0.32257080078125,0.4908447265625,-0.44171142578125,-0.67816162109375,-2835,5921,1011,-7,12,14
39627103,0.32476806640625,0.490966796875,-0.44146728515625,-0.67718505859375,-2947,5961,1075,-5,13,16
39637086,0.3270263671875,0.4912109375,-0.44146728515625,-0.6759033203125,-3050,6014,1104,-3,14,18
39647066,0.32940673828125,0.49139404296875,-0.4417724609375,-0.6744384765625,-3138,6046,1153,-1,15,21
39657052,0.3319091796875,0.4915771484375,-0.4422607421875,-0.67279052734375,-3218,6061,1201,1,15,23
39667034,0.33447265625,0.49169921875,-0.44293212890625,-0.67095947265625,-3289,6078,1229,2,15,25
39677015,0.3370361328125,0.49176025390625,-0.44378662109375,-0.6690673828125,-3347,6085,1286,3,15,26
39686997,0.339599609375,0.49176025390625,-0.44476318359375,-0.6671142578125,-3396,6096,1328,4,14,27
39696985,0.34222412109375,0.49163818359375,-0.44586181640625,-0.66510009765625,-3426,6104,1346,4,14,29
39706969,0.3450927734375,0.4913330078125,-0.4471435546875,-0.66302490234375,-3451,6085,1371,4,14,33
39716944,0.348388671875,0.49072265625,-0.44866943359375,-0.66070556640625,-3447,6076,1417,4,13,39
39726927,0.3521728515625,0.48968505859375,-0.4505615234375,-0.65814208984375,-3440,6081,1468,4,13,46
39736912,0.3565673828125,0.48809814453125,-0.452880859375,-0.6553955078125,-3428,6084,1529,3,12,52
39746893,0.36138916015625,0.486083984375,-0.45538330078125,-0.65252685546875,-3423,6086,1591,2,11,58
39756875,0.36669921875,0.483642578125,-0.4581298828125,-0.6494140625,-3388,6092,1631,1,11,64
39766858,0.37249755859375,0.480712890625,-0.46112060546875,-0.64617919921875,-3337,6101,1659,0,10,70
39776843,0.37884521484375,0.477294921875,-0.4644775390625,-0.642578125,-3251,6086,1669,-1,10,77
39786824,0.38592529296875,0.4732666015625,-0.46832275390625,-0.63861083984375,-3115,6025,1659,-2,9,88
39796807,0.3939208984375,0.46832275390625,-0.4727783203125,-0.634033203125,-2947,5944,1642,-3,8,100
39806789,0.40277099609375,0.46258544921875,-0.47796630859375,-0.6287841796875,-2763,5847,1613,-2,8,112
39816768,0.41229248046875,0.4561767578125,-0.483642578125,-0.6229248046875,-2568,5773,1565,-2,7,120
39826759,0.421875,0.44952392578125,-0.489501953125,-0.61676025390625,-2405,5721,1492,-2,7,122
39836742,0.43096923828125,0.44305419921875,-0.49505615234375,-0.61065673828125,-2238,5684,1393,-1,6,116
39846725,0.43927001953125,0.4371337890625,-0.5001220703125,-0.6048583984375,-2037,5639,1288,-1,6,105
39856700,0.44677734375,0.43170166015625,-0.504638671875,-0.59942626953125,-1782,5587,1175,-1,6,97
39866682,0.45391845703125,0.426513671875,-0.50897216796875,-0.5941162109375,-1480,5502,1038,-1,6,93
39876668,0.4610595703125,0.4212646484375,-0.51348876953125,-0.5885009765625,-1125,5391,888,1,6,95
39886650,0.46856689453125,0.41552734375,-0.51849365234375,-0.58221435546875,-742,5310,722,2,6,102
39896632,0.4764404296875,0.40924072265625,-0.5240478515625,-0.57525634765625,-376,5286,549,3,5,110
39906616,0.4844970703125,0.402587890625,-0.52996826171875,-0.5677490234375,-50,5338,414,5,5,114
39916598,0.49249267578125,0.395751953125,-0.535888671875,-0.55999755859375,268,5446,315,5,5,115
39926581,0.5003662109375,0.388916015625,-0.54180908203125,-0.5521240234375,636,5581,207,5,5,113
39936562,0.5081787109375,0.3819580078125,-0.5477294921875,-0.54400634765625,1041,5707,106,6,6,114
39946546,0.51611328125,0.37469482421875,-0.55364990234375,-0.53546142578125,1429,5769,29,6,6,118
39956528,0.5242919921875,0.3671875,-0.5596923828125,-0.5263671875,1740,5776,-41,7,7,122
39966511,0.532470703125,0.35943603515625,-0.5657958984375,-0.516845703125,1996,5754,-79,9,8,125
39976493,0.54058837890625,0.35162353515625,-0.57183837890625,-0.507080078125,2275,5736,-103,10,7,125
39986474,0.5484619140625,0.34381103515625,-0.577880859375,-0.49713134765625,2604,5704,-111,12,7,124
39996459,0.5560302734375,0.3358154296875,-0.5838623046875,-0.48699951171875,2989,5698,-105,12,6,124
40006443,0.5635986328125,0.32757568359375,-0.58990478515625,-0.47650146484375,3395,5710,-100,13,5,126
40016427,0.571044921875,0.31903076171875,-0.59600830078125,-0.4656982421875,3734,5732,-69,14,4,129
40026409,0.57830810546875,0.310302734375,-0.6021728515625,-0.45465087890625,3990,5730,-36,15,3,131
40039989,0.58526611328125,0.30145263671875,-0.6082763671875,-0.44342041015625,4198,5709,-34,17,2,131
40046369,0.59173583984375,0.29278564453125,-0.61431884765625,-0.43218994140625,4386,5688,-13,18,0,127
40056353,0.5977783203125,0.2843017578125,-0.62017822265625,-0.4210205078125,4613,5675,2,20,-1,124
40066332,0.60321044921875,0.27587890625,-0.6259765625,-0.4100341796875,4889,5705,20,20,-4,121
40076315,0.60833740234375,0.267578125,-0.6317138671875,-0.39910888671875,5138,5746,48,21,-5,119
40086295,0.61309814453125,0.25927734375,-0.63720703125,-0.388427734375,5318,5766,98,20,-7,117
40096279,0.61749267578125,0.2510986328125,-0.64251708984375,-0.37799072265625,5437,5743,110,20,-8,114
40106260,0.621337890625,0.24322509765625,-0.6475830078125,-0.3680419921875,5413,5685,119,19,-9,109
40116240,0.6246337890625,0.2357177734375,-0.65240478515625,-0.35858154296875,5351,5594,125,19,-12,103
40126233,0.62744140625,0.2286376953125,-0.65716552734375,-0.349609375,5307,5505,115,20,-13,98
40136216,0.62982177734375,0.2215576171875,-0.66192626953125,-0.34075927734375,5346,5434,110,19,-16,97
40146199,0.632080078125,0.21417236328125,-0.66668701171875,-0.3319091796875,5510,5418,102,18,-18,100
40156184,0.634521484375,0.2059326171875,-0.67144775390625,-0.32269287109375,5866,5400,125,15,-18,107
40166169,0.6375732421875,0.1961669921875,-0.67620849609375,-0.31268310546875,6365,5284,112,11,-18,120
40176150,0.64117431640625,0.18463134765625,-0.6812744140625,-0.3011474609375,6880,5070,41,9,-18,139
40186118,0.64532470703125,0.17108154296875,-0.6865234375,-0.28814697265625,7295,4765,-80,7,-17,158
40196101,0.64959716796875,0.15643310546875,-0.6917724609375,-0.27386474609375,7532,4417,-217,8,-17,169
40206085,0.6536865234375,0.1414794921875,-0.69677734375,-0.25921630859375,7679,4067,-318,8,-17,171
40216066,0.6572265625,0.1270751953125,-0.701416015625,-0.24481201171875,7820,3778,-395,9,-17,162
40226050,0.66015625,0.11383056640625,-0.7054443359375,-0.2313232421875,7904,3545,-416,10,-16,149
40236031,0.66253662109375,0.10205078125,-0.70892333984375,-0.21923828125,8065,3345,-424,9,-16,132
40246015,0.66448974609375,0.0914306640625,-0.71185302734375,-0.20831298828125,8390,3143,-464,8,-14,118
40255995,0.66632080078125,0.08135986328125,-0.71429443359375,-0.19793701171875,8781,2893,-508,7,-12,112
40265984,0.6680908203125,0.0712890625,-0.71649169921875,-0.18768310546875,9126,2608,-569,6,-10,111
40275960,0.66986083984375,0.06109619140625,-0.718505859375,-0.1771240234375,9359,2294,-657,7,-9,114
40285943,0.6715087890625,0.0506591796875,-0.7203369140625,-0.16619873046875,9523,2000,-752,8,-8,117
40295926,0.673095703125,0.04022216796875,-0.7220458984375,-0.15496826171875,9654,1758,-864,9,-8,119
40305909,0.67437744140625,0.02984619140625,-0.72369384765625,-0.1435546875,9733,1566,-922,11,-9,119
40315891,0.675537109375,0.0198974609375,-0.72509765625,-0.13238525390625,9772,1436,-923,11,-9,116
40325872,0.6763916015625,0.01031494140625,-0.726318359375,-0.12158203125,9788,1328,-908,12,-9,113
40335854,0.6771240234375,0.0010986328125,-0.72747802734375,-0.111083984375,9801,1198,-904,11,-10,110
40345838,0.6776123046875,-0.00799560546875,-0.72845458984375,-0.1007080078125,9827,1009,-930,12,-10,108
40355822,0.6778564453125,-0.01708984375,-0.72943115234375,-0.0902099609375,9866,796,-1011,13,-11,110
40365805,0.67779541015625,-0.0262451171875,-0.73046875,-0.07928466796875,9908,575,-1112,15,-13,112
40375787,0.677490234375,-0.035400390625,-0.73150634765625,-0.068115234375,9961,430,-1160,16,-15,114
40385768,0.6768798828125,-0.04443359375,-0.7325439453125,-0.056884765625,10008,423,-1149,17,-17,114
40395758,0.6761474609375,-0.05303955078125,-0.7333984375,-0.0460205078125,10155,479,-1051,17,-17,112
40405740,0.67529296875,-0.06134033203125,-0.734130859375,-0.03558349609375,10427,485,-954,16,-18,109
40415715,0.67425537109375,-0.06976318359375,-0.7347412109375,-0.02545166015625,10746,420,-889,14,-19,109
40425699,0.673095703125,-0.0782470703125,-0.7352294921875,-0.015380859375,11060,280,-892,13,-19,109
40435679,0.6717529296875,-0.08673095703125,-0.73565673828125,-0.005615234375,11298,104,-936,11,-19,107
40445664,0.6702880859375,-0.09478759765625,-0.73602294921875,0.0037841796875,11443,-87,-1015,11,-19,101
40455646,0.668701171875,-0.10205078125,-0.73638916015625,0.012451171875,11535,-259,-1087,11,-19,92
40465631,0.6671142578125,-0.108154296875,-0.73681640625,0.02008056640625,11597,-362,-1095,11,-18,80
40475615,0.66558837890625,-0.11297607421875,-0.73724365234375,0.0264892578125,11630,-391,-1055,11,-18,66
40485597,0.66424560546875,-0.11651611328125,-0.7376708984375,0.03167724609375,11711,-385,-991,11,-17,54
40495576,0.6630859375,-0.119140625,-0.7381591796875,0.035888671875,11850,-385,-938,10,-16,44
40505557,0.66204833984375,-0.12115478515625,-0.73858642578125,0.03936767578125,11977,-406,-930,9,-14,38
40515542,0.66107177734375,-0.12274169921875,-0.739013671875,0.04229736328125,12031,-419,-921,8,-13,32
40525523,0.6602783203125,-0.12371826171875,-0.73944091796875,0.04461669921875,12019,-403,-929,8,-12,26
40535507,0.65948486328125,-0.1240234375,-0.739990234375,0.0462646484375,11954,-356,-947,8,-11,17
40545489,0.658935546875,-0.1234130859375,-0.74053955078125,0.04705810546875,11829,-277,-937,8,-10,7
40555473,0.65850830078125,-0.12176513671875,-0.7412109375,0.04681396484375,11641,-127,-906,7,-9,-5
40565451,0.65826416015625,-0.118896484375,-0.741943359375,0.04547119140625,11433,70,-860,7,-8,-17
40575428,0.658203125,-0.1151123046875,-0.7427978515625,0.04302978515625,11272,274,-800,6,-7,-28
40585421,0.65826416015625,-0.110595703125,-0.74359130859375,0.0399169921875,11155,434,-769,5,-6,-34
40595402,0.65838623046875,-0.10595703125,-0.74432373046875,0.03643798828125,11072,550,-757,4,-5,-37
40605384,0.65850830078125,-0.10137939453125,-0.7449951171875,0.0328369140625,11032,632,-782,3,-4,-37
40615359,0.65869140625,-0.09698486328125,-0.74560546875,0.029296875,11019,679,-813,2,-3,-36
40625344,0.6588134765625,-0.0928955078125,-0.74609375,0.02587890625,11008,693,-841,2,-3,-34
40635323,0.65899658203125,-0.0888671875,-0.74652099609375,0.02252197265625,11002,700,-880,1,-2,-34
40645306,0.65924072265625,-0.08489990234375,-0.74688720703125,0.01910400390625,11023,694,-911,1,-1,-35
40655288,0.65948486328125,-0.08074951171875,-0.7471923828125,0.01556396484375,11109,657,-952,2,-1,-37
40665274,0.65985107421875,-0.0765380859375,-0.7474365234375,0.0120849609375,11282,557,-1006,2,1,-39
40675254,0.66021728515625,-0.072021484375,-0.74755859375,0.00848388671875,11495,428,-1069,3,1,-43
40685236,0.66064453125,-0.06707763671875,-0.7476806640625,0.004638671875,11726,310,-1133,4,3,-49
40695227,0.66119384765625,-0.06121826171875,-0.74774169921875,0.0,11917,271,-1188,4,4,-60
40705208,0.66168212890625,-0.0540771484375,-0.747802734375,-0.0057373046875,12074,309,-1230,4,5,-74
40715199,0.66229248046875,-0.04547119140625,-0.747802734375,-0.01287841796875,12132,421,-1236,3,6,-92
40725182,0.66278076171875,-0.03521728515625,-0.7476806640625,-0.0216064453125,12121,627,-1231,2,7,-110
40735168,0.6632080078125,-0.02362060546875,-0.74737548828125,-0.03167724609375,12084,861,-1224,1,8,-124
40745148,0.66351318359375,-0.01116943359375,-0.74688720703125,-0.04278564453125,12023,1112,-1205,-1,9,-134
40755117,0.66363525390625,0.00152587890625,-0.74609375,-0.0543212890625,11942,1330,-1204,-2,9,-137
40765099,0.66351318359375,0.0140380859375,-0.7451171875,-0.06591796875,11858,1544,-1231,-3,10,-136
40775082,0.6632080078125,0.02618408203125,-0.74395751953125,-0.077392578125,11723,1757,-1263,-5,9,-134
40785064,0.6627197265625,0.0379638671875,-0.74261474609375,-0.08868408203125,11580,1966,-1299,-7,9,-132
40795046,0.6619873046875,0.04937744140625,-0.74114990234375,-0.10015869140625,11432,2160,-1309,-9,8,-132
40805029,0.6610107421875,0.0606689453125,-0.739501953125,-0.11181640625,11285,2346,-1319,-12,7,-133
40815010,0.6597900390625,0.07171630859375,-0.73773193359375,-0.1236572265625,11137,2502,-1345,-14,7,-134
40824992,0.65826416015625,0.08251953125,-0.73583984375,-0.1357421875,10971,2629,-1364,-17,5,-135
40834982,0.656494140625,0.09307861328125,-0.7337646484375,-0.14801025390625,10807,2731,-1385,-20,4,-136
40844958,0.654541015625,0.1033935546875,-0.7315673828125,-0.16033935546875,10673,2800,-1409,-22,4,-136
40854940,0.65228271484375,0.11346435546875,-0.729248046875,-0.17279052734375,10536,2858,-1442,-24,2,-138
40864923,0.64971923828125,0.12371826171875,-0.72674560546875,-0.18560791015625,10393,2944,-1458,-25,2,-143
40874904,0.646728515625,0.13458251953125,-0.723876953125,-0.19915771484375,10221,3050,-1471,-27,2,-153
40884888,0.643310546875,0.146240234375,-0.72052001953125,-0.213623046875,10030,3180,-1477,-28,2,-165
40894872,0.6392822265625,0.15875244140625,-0.7166748046875,-0.22900390625,9823,3318,-1477,-29,2,-177
40904853,0.63470458984375,0.1719970703125,-0.71234130859375,-0.24517822265625,9597,3479,-1478,-31,1,-187
40914835,0.629638671875,0.1856689453125,-0.70751953125,-0.26177978515625,9316,3633,-1462,-31,1,-192
40924817,0.6241455078125,0.19940185546875,-0.7022705078125,-0.27850341796875,9026,3802,-1458,-32,1,-194
40934799,0.61846923828125,0.212646484375,-0.69671630859375,-0.29473876953125,8719,3958,-1450,-32,1,-188
40944782,0.61279296875,0.2249755859375,-0.69110107421875,-0.3101806640625,8453,4078,-1451,-32,1,-179
40954762,0.60723876953125,0.236328125,-0.68560791015625,-0.32464599609375,8204,4186,-1463,-32,0,-169
40964752,0.60174560546875,0.2469482421875,-0.68011474609375,-0.33819580078125,7929,4320,-1444,-31,1,-161
40974736,0.59625244140625,0.25726318359375,-0.6744384765625,-0.35137939453125,7648,4463,-1409,-31,1,-159
40984712,0.59051513671875,0.267578125,-0.66839599609375,-0.36456298828125,7368,4609,-1353,-31,1,-161
40994694,0.58447265625,0.2783203125,-0.661865234375,-0.37799072265625,7057,4757,-1298,-31,2,-167
41004677,0.57781982421875,0.2896728515625,-0.65472412109375,-0.391845703125,6722,4890,-1240,-31,3,-176
41014660,0.570556640625,0.30169677734375,-0.64691162109375,-0.40618896484375,6331,5016,-1154,-31,4,-185
41024645,0.56268310546875,0.31427001953125,-0.63836669921875,-0.4208984375,5887,5128,-1070,-31,5,-192
41034629,0.5543212890625,0.32708740234375,-0.6292724609375,-0.43560791015625,5423,5220,-995,-30,5,-194
41044609,0.5457763671875,0.3397216796875,-0.6199951171875,-0.44989013671875,5011,5283,-925,-29,6,-191
41054593,0.537353515625,0.3516845703125,-0.61077880859375,-0.46319580078125,4696,5307,-880,-28,6,-181
41064574,0.52960205078125,0.362548828125,-0.60198974609375,-0.47515869140625,4479,5289,-851,-26,8,-167
41074558,0.52239990234375,0.37249755859375,-0.59356689453125,-0.48583984375,4225,5287,-793,-24,9,-155
41084540,0.515625,0.38189697265625,-0.58526611328125,-0.49578857421875,3935,5314,-727,-23,10,-147
41094520,0.5089111328125,0.39111328125,-0.5767822265625,-0.50537109375,3644,5353,-629,-23,12,-146
41104504,0.5020751953125,0.400390625,-0.56793212890625,-0.51483154296875,3300,5391,-515,-23,13,-148
41114488,0.49493408203125,0.4097900390625,-0.55865478515625,-0.5244140625,2919,5437,-389,-23,13,-150
41124469,0.48748779296875,0.419189453125,-0.54888916015625,-0.5341796875,2528,5486,-231,-25,13,-153
41134453,0.47991943359375,0.4283447265625,-0.53887939453125,-0.54388427734375,2157,5544,-87,-25,12,-151
41144432,0.472412109375,0.43695068359375,-0.52886962890625,-0.5533447265625,1826,5592,64,-27,11,-146
41154420,0.46533203125,0.44464111328125,-0.51910400390625,-0.56243896484375,1527,5637,189,-29,8,-137
41164403,0.4588623046875,0.45123291015625,-0.5098876953125,-0.57080078125,1287,5671,289,-30,7,-124
41174385,0.4532470703125,0.45672607421875,-0.501220703125,-0.57855224609375,1057,5670,387,-31,5,-111
41184361,0.44842529296875,0.46112060546875,-0.49322509765625,-0.58563232421875,821,5663,467,-33,4,-97
41194344,0.4443359375,0.464599609375,-0.48583984375,-0.5921630859375,576,5616,535,-33,2,-86
41204326,0.44091796875,0.4674072265625,-0.47894287109375,-0.59808349609375,352,5554,593,-34,2,-76
41214310,0.4378662109375,0.46978759765625,-0.472412109375,-0.60369873046875,130,5479,652,-33,2,-71
41224292,0.43487548828125,0.471923828125,-0.46600341796875,-0.609130859375,-48,5417,721,-33,1,-69
41234274,0.43170166015625,0.47418212890625,-0.45947265625,-0.61456298828125,-193,5354,798,-32,2,-72
41244257,0.4283447265625,0.4765625,-0.4527587890625,-0.62005615234375,-317,5288,860,-32,2,-74
41254237,0.42462158203125,0.47918701171875,-0.44586181640625,-0.62554931640625,-454,5223,927,-31,2,-77
41264228,0.4207763671875,0.48199462890625,-0.4388427734375,-0.63092041015625,-583,5143,984,-30,4,-77
41274209,0.41705322265625,0.4847412109375,-0.43194580078125,-0.63604736328125,-711,5045,1040,-29,4,-75
41284190,0.413330078125,0.487548828125,-0.42510986328125,-0.64093017578125,-887,4954,1090,-27,6,-74
41294181,0.40948486328125,0.490478515625,-0.41827392578125,-0.6456298828125,-1139,4903,1142,-25,6,-74
41304168,0.40521240234375,0.4937744140625,-0.4112548828125,-0.6502685546875,-1427,4879,1182,-23,7,-77
41314147,0.400390625,0.4974365234375,-0.4039306640625,-0.65509033203125,-1712,4866,1233,-22,8,-83
41324115,0.3951416015625,0.5013427734375,-0.39630126953125,-0.659912109375,-1976,4861,1288,-21,8,-87
41334098,0.3896484375,0.50531005859375,-0.3885498046875,-0.6646728515625,-2220,4858,1326,-20,9,-86
41344080,0.38458251953125,0.509033203125,-0.38128662109375,-0.6690673828125,-2455,4829,1357,-19,9,-79
41354063,0.38018798828125,0.51226806640625,-0.37481689453125,-0.6727294921875,-2698,4825,1401,-17,8,-66
41364045,0.3768310546875,0.514892578125,-0.36920166015625,-0.67572021484375,-2962,4826,1434,-16,8,-52
41374028,0.374267578125,0.5169677734375,-0.364501953125,-0.6781005859375,-3245,4838,1488,-15,7,-40
41384009,0.37225341796875,0.5186767578125,-0.36041259765625,-0.6800537109375,-3520,4868,1544,-13,7,-33
41393992,0.37030029296875,0.520263671875,-0.3565673828125,-0.68194580078125,-3787,4911,1610,-12,6,-32
41403981,0.3680419921875,0.52191162109375,-0.35260009765625,-0.6839599609375,-4022,4973,1703,-11,5,-35
41413958,0.3653564453125,0.523681640625,-0.34844970703125,-0.6861572265625,-4167,5024,1797,-11,5,-40
41423940,0.3626708984375,0.52545166015625,-0.34423828125,-0.6883544921875,-4186,5054,1927,-10,5,-39
41433922,0.36077880859375,0.52703857421875,-0.34039306640625,-0.6900634765625,-4119,5052,2047,-10,10,-31
41443904,0.36016845703125,0.52850341796875,-0.3372802734375,-0.6907958984375,-4076,5028,2158,-10,15,-16
41453880,0.361083984375,0.52984619140625,-0.33477783203125,-0.69049072265625,-4148,5019,2216,-9,21,-1
41463872,0.363037109375,0.5311279296875,-0.33294677734375,-0.68939208984375,-4351,5046,2236,-9,24,10
41473848,0.36529541015625,0.532470703125,-0.33135986328125,-0.68792724609375,-4604,5107,2226,-8,24,14
41483829,0.36737060546875,0.53375244140625,-0.329833984375,-0.68658447265625,-4837,5188,2191,-8,22,13
41493812,0.36907958984375,0.53497314453125,-0.328369140625,-0.68536376953125,-5028,5300,2136,-7,19,10
41503797,0.37030029296875,0.5361328125,-0.32696533203125,-0.68450927734375,-5175,5421,2085,-6,16,7
41513780,0.37109375,0.537109375,-0.32568359375,-0.68389892578125,-5272,5504,2020,-5,12,4
41523760,0.37139892578125,0.53802490234375,-0.3245849609375,-0.68353271484375,-5335,5586,1952,-3,8,1
41533754,0.37127685546875,0.5386962890625,-0.32354736328125,-0.68359375,-5380,5665,1906,-2,4,-2
41543728,0.37060546875,0.5391845703125,-0.32269287109375,-0.6839599609375,-5402,5735,1869,-1,0,-4
41553711,0.36962890625,0.53948974609375,-0.32208251953125,-0.6845703125,-5402,5781,1852,1,-5,-4
41563688,0.36859130859375,0.53936767578125,-0.32196044921875,-0.685302734375,-5396,5827,1846,2,-9,-2
41573674,0.36767578125,0.538818359375,-0.3223876953125,-0.68597412109375,-5356,5850,1835,4,-12,3
41583654,0.36712646484375,0.53778076171875,-0.32354736328125,-0.6865234375,-5297,5855,1846,6,-15,10
41593636,0.36712646484375,0.53619384765625,-0.3255615234375,-0.68682861328125,-5185,5801,1844,7,-18,19
41603619,0.36767578125,0.53411865234375,-0.32830810546875,-0.6868896484375,-5064,5701,1845,9,-20,28
41613599,0.36865234375,0.5316162109375,-0.3319091796875,-0.6865234375,-4922,5583,1803,10,-22,35
41623581,0.36993408203125,0.52886962890625,-0.33599853515625,-0.6859130859375,-4750,5411,1765,12,-23,41
41633565,0.37164306640625,0.52587890625,-0.34063720703125,-0.68505859375,-4594,5239,1753,13,-24,47
41643547,0.373779296875,0.52264404296875,-0.34564208984375,-0.68389892578125,-4440,5080,1732,14,-24,53
41653536,0.37640380859375,0.51904296875,-0.35125732421875,-0.6822509765625,-4294,4924,1732,15,-23,61
41663512,0.3797607421875,0.51519775390625,-0.35736083984375,-0.68017578125,-4136,4799,1729,16,-23,69
41673494,0.3837890625,0.510986328125,-0.3641357421875,-0.67755126953125,-3978,4702,1730,17,-22,79
41683476,0.388671875,0.50628662109375,-0.37152099609375,-0.67425537109375,-3794,4635,1723,18,-22,89
41693462,0.394287109375,0.501220703125,-0.37945556640625,-0.67034912109375,-3612,4599,1736,19,-20,99
41703444,0.40057373046875,0.49566650390625,-0.387939453125,-0.66583251953125,-3413,4587,1770,19,-20,107
41713425,0.40740966796875,0.48974609375,-0.396728515625,-0.66082763671875,-3199,4601,1766,19,-19,113
41723415,0.4146728515625,0.48358154296875,-0.4058837890625,-0.65533447265625,-2973,4640,1761,20,-18,118
41733397,0.42205810546875,0.47723388671875,-0.41497802734375,-0.6495361328125,-2749,4706,1735,20,-17,119
41743375,0.4293212890625,0.47100830078125,-0.4239501953125,-0.6435546875,-2536,4790,1694,20,-16,117
41753355,0.4361572265625,0.46502685546875,-0.4324951171875,-0.63751220703125,-2327,4901,1643,20,-15,112
41763344,0.442626953125,0.4593505859375,-0.44061279296875,-0.63165283203125,-2119,4996,1601,20,-14,106
41773321,0.4486083984375,0.45404052734375,-0.44830322265625,-0.62579345703125,-1894,5101,1542,20,-12,100
41783304,0.45440673828125,0.44891357421875,-0.45574951171875,-0.619873046875,-1625,5198,1475,20,-11,98
41793287,0.46026611328125,0.44378662109375,-0.463134765625,-0.61376953125,-1366,5311,1410,20,-9,98
41803268,0.4661865234375,0.4385986328125,-0.470458984375,-0.607421875,-1136,5434,1353,20,-8,100
41813250,0.47235107421875,0.433349609375,-0.4776611328125,-0.60076904296875,-918,5553,1298,19,-6,103
41823239,0.47894287109375,0.4278564453125,-0.4849853515625,-0.5936279296875,-649,5645,1236,19,-4,108
41833221,0.486328125,0.42169189453125,-0.49267578125,-0.58563232421875,-308,5709,1142,19,-3,119
41843205,0.49468994140625,0.41461181640625,-0.50103759765625,-0.57647705078125,68,5749,1036,19,-2,134
41853185,0.50390625,0.4066162109375,-0.510009765625,-0.566162109375,435,5805,931,20,-1,147
41863177,0.5135498046875,0.3980712890625,-0.51922607421875,-0.55523681640625,763,5914,846,19,-1,153
41873158,0.52294921875,0.3892822265625,-0.52813720703125,-0.5440673828125,1110,6006,780,19,-1,150
41883134,0.53192138671875,0.380615234375,-0.53662109375,-0.53314208984375,1485,6089,706,17,-1,145
41893110,0.5404052734375,0.3720703125,-0.54461669921875,-0.52239990234375,1871,6138,625,16,-1,139
41903094,0.548583984375,0.363525390625,-0.55224609375,-0.51177978515625,2242,6134,538,15,-1,136
41913074,0.55657958984375,0.3548583984375,-0.5596923828125,-0.5010986328125,2610,6077,477,14,-1,136
41923058,0.564453125,0.34588623046875,-0.5670166015625,-0.4901123046875,2996,5989,393,14,-1,137
41933045,0.57232666015625,0.33648681640625,-0.5745849609375,-0.47869873046875,3454,5904,290,15,-3,142
41943025,0.5802001953125,0.3265380859375,-0.582275390625,-0.46661376953125,3932,5853,196,16,-4,145
41953008,0.58782958984375,0.31622314453125,-0.59002685546875,-0.4542236328125,4426,5856,120,16,-4,147
41962990,0.59521484375,0.30572509765625,-0.59765625,-0.441650390625,4941,5825,23,16,-6,146
41972978,0.6021728515625,0.2952880859375,-0.60504150390625,-0.42913818359375,5331,5762,-57,16,-6,142
41982954,0.60833740234375,0.2852783203125,-0.612060546875,-0.4171142578125,5494,5690,-146,17,-8,134
41992937,0.6134033203125,0.2763671875,-0.618408203125,-0.40606689453125,5485,5613,-225,17,-9,120
42002921,0.61737060546875,0.2686767578125,-0.62420654296875,-0.39630126953125,5450,5587,-250,18,-11,104
42012903,0.620361328125,0.26190185546875,-0.6295166015625,-0.38763427734375,5525,5578,-277,18,-13,92
42022886,0.62286376953125,0.25543212890625,-0.63470458984375,-0.37939453125,5678,5597,-280,18,-15,88
42032872,0.625244140625,0.24853515625,-0.63995361328125,-0.37109375,5876,5613,-285,16,-17,91
42042850,0.62774658203125,0.24090576171875,-0.6453857421875,-0.36248779296875,6104,5622,-284,14,-19,98
42052832,0.6304931640625,0.23223876953125,-0.65093994140625,-0.353271484375,6368,5583,-317,12,-20,107
42062813,0.6334228515625,0.2225341796875,-0.65673828125,-0.34344482421875,6558,5489,-384,11,-22,117
42072795,0.6363525390625,0.212158203125,-0.66265869140625,-0.3331298828125,6593,5352,-444,10,-24,123
42082780,0.638916015625,0.20159912109375,-0.66851806640625,-0.32281494140625,6521,5182,-499,10,-26,123
42092762,0.64093017578125,0.19134521484375,-0.67431640625,-0.3128662109375,6486,5053,-538,10,-29,118
42102754,0.6424560546875,0.181396484375,-0.67999267578125,-0.3033447265625,6572,4958,-571,10,-31,113
42112734,0.6435546875,0.171630859375,-0.6854248046875,-0.294189453125,6720,4894,-553,9,-32,110
42122710,0.64453125,0.1617431640625,-0.690673828125,-0.28521728515625,6946,4818,-551,7,-33,109
42132692,0.6455078125,0.1514892578125,-0.69580078125,-0.276123046875,7217,4701,-571,6,-32,112
42142674,0.64666748046875,0.140625,-0.70062255859375,-0.26678466796875,7482,4515,-573,4,-31,116
42152658,0.64794921875,0.129150390625,-0.705322265625,-0.2569580078125,7741,4283,-641,3,-30,122
42162638,0.64935302734375,0.1170654296875,-0.7098388671875,-0.2464599609375,7991,3990,-717,3,-29,128
42172622,0.6507568359375,0.104736328125,-0.7142333984375,-0.23553466796875,8227,3706,-807,4,-28,130
42182604,0.65191650390625,0.0924072265625,-0.71844482421875,-0.2242431640625,8463,3421,-902,6,-28,131
42192588,0.65283203125,0.080322265625,-0.7225341796875,-0.212890625,8650,3167,-970,7,-28,129
42202569,0.65350341796875,0.06884765625,-0.72625732421875,-0.20184326171875,8755,3000,-974,8,-27,123
42212551,0.654052734375,0.0582275390625,-0.7294921875,-0.19158935546875,8816,2873,-925,8,-26,114
42222536,0.6544189453125,0.04852294921875,-0.73223876953125,-0.18212890625,8950,2735,-900,8,-23,105
42232515,0.65472412109375,0.039306640625,-0.7347412109375,-0.1729736328125,9192,2536,-940,8,-21,101
42242499,0.6551513671875,0.03009033203125,-0.73699951171875,-0.16357421875,9447,2281,-969,9,-19,103
42252481,0.65570068359375,0.02032470703125,-0.739013671875,-0.15338134765625,9722,2006,-1030,11,-18,111
42262462,0.65625,0.00994873046875,-0.740966796875,-0.14215087890625,9995,1731,-1119,14,-18,120
42272446,0.65679931640625,-0.0008544921875,-0.74273681640625,-0.13018798828125,10131,1498,-1177,16,-17,126
42282426,0.65716552734375,-0.011474609375,-0.74432373046875,-0.11810302734375,10111,1346,-1182,17,-17,124
42292417,0.65740966796875,-0.02099609375,-0.74560546875,-0.1068115234375,10039,1245,-1157,18,-16,114
42302399,0.657470703125,-0.02923583984375,-0.7467041015625,-0.09661865234375,10065,1160,-1143,18,-15,101
42312376,0.657470703125,-0.03662109375,-0.74755859375,-0.087158203125,10220,1018,-1155,18,-14,93
42322357,0.65740966796875,-0.04364013671875,-0.74822998046875,-0.07794189453125,10500,824,-1200,19,-12,91
42332344,0.6573486328125,-0.05108642578125,-0.748779296875,-0.0682373046875,10797,564,-1259,19,-12,97
42342322,0.6572265625,-0.0592041015625,-0.7491455078125,-0.05780029296875,11074,310,-1328,20,-13,106
42352304,0.656982421875,-0.06805419921875,-0.7493896484375,-0.04644775390625,11350,76,-1405,22,-13,115
42362287,0.6566162109375,-0.0772705078125,-0.74951171875,-0.03460693359375,11578,-124,-1448,23,-14,120
42372271,0.65606689453125,-0.08624267578125,-0.74945068359375,-0.0228271484375,11784,-274,-1455,23,-14,117
42382252,0.6553955078125,-0.0943603515625,-0.749267578125,-0.01190185546875,11986,-361,-1425,23,-14,108
42392232,0.65472412109375,-0.10113525390625,-0.74908447265625,-0.002197265625,12206,-430,-1373,22,-14,93
42402223,0.654052734375,-0.1063232421875,-0.7489013671875,0.005859375,12414,-466,-1315,21,-14,75
42412203,0.65338134765625,-0.10980224609375,-0.7489013671875,0.01220703125,12555,-440,-1244,19,-13,56
42422183,0.65283203125,-0.11151123046875,-0.74908447265625,0.01666259765625,12607,-326,-1171,18,-12,36
42432174,0.65234375,-0.111328125,-0.74951171875,0.01922607421875,12564,-143,-1103,16,-12,16
42442157,0.65191650390625,-0.109375,-0.7501220703125,0.0198974609375,12482,127,-1028,14,-11,-3
42452122,0.65155029296875,-0.10595703125,-0.75091552734375,0.0189208984375,12370,452,-956,12,-11,-19
42462104,0.6512451171875,-0.10137939453125,-0.75189208984375,0.01641845703125,12173,822,-879,9,-10,-32
42472087,0.65087890625,-0.09588623046875,-0.75299072265625,0.01275634765625,11937,1198,-832,7,-10,-42
42482071,0.6505126953125,-0.08990478515625,-0.754150390625,0.0081787109375,11675,1547,-815,4,-10,-49
42492054,0.6500244140625,-0.08380126953125,-0.75531005859375,0.00311279296875,11392,1860,-800,2,-10,-52
42502031,0.6494140625,-0.077880859375,-0.7564697265625,-0.00213623046875,11112,2117,-797,0,-10,-50
42512013,0.64874267578125,-0.072509765625,-0.75750732421875,-0.00732421875,10922,2285,-833,-3,-10,-46
42521995,0.64801025390625,-0.06768798828125,-0.758544921875,-0.0120849609375,10811,2383,-882,-3,-10,-41
42531983,0.64727783203125,-0.06353759765625,-0.75946044921875,-0.016357421875,10756,2399,-935,-3,-10,-36
42541959,0.646484375,-0.05975341796875,-0.76031494140625,-0.02032470703125,10769,2348,-1015,-4,-9,-34
42551941,0.64581298828125,-0.05615234375,-0.76104736328125,-0.0240478515625,10843,2226,-1112,-3,-8,-34
42561924,0.6451416015625,-0.052490234375,-0.76177978515625,-0.027587890625,10955,2051,-1226,-2,-7,-35
42571911,0.64459228515625,-0.04840087890625,-0.76239013671875,-0.0311279296875,11115,1852,-1359,0,-6,-39
42581891,0.64410400390625,-0.04376220703125,-0.762939453125,-0.0347900390625,11295,1658,-1479,3,-4,-45
42591873,0.6436767578125,-0.038330078125,-0.76336669921875,-0.0386962890625,11462,1513,-1597,5,-3,-54
42601858,0.643310546875,-0.03179931640625,-0.76373291015625,-0.043212890625,11597,1420,-1682,7,-1,-65
42611846,0.64300537109375,-0.0240478515625,-0.76397705078125,-0.048583984375,11683,1422,-1730,8,1,-78
42621824,0.6427001953125,-0.014892578125,-0.7640380859375,-0.05499267578125,11727,1462,-1752,8,1,-92
42631809,0.64227294921875,-0.00445556640625,-0.763916015625,-0.0623779296875,11714,1541,-1758,9,3,-105
42641792,0.64178466796875,0.0069580078125,-0.76361083984375,-0.07073974609375,11672,1684,-1770,8,3,-116
42651778,0.64105224609375,0.01898193359375,-0.76312255859375,-0.07965087890625,11584,1834,-1781,7,3,-121
42661762,0.64019775390625,0.03106689453125,-0.762451171875,-0.08868408203125,11489,1995,-1799,7,4,-123
42671745,0.63916015625,0.04315185546875,-0.7615966796875,-0.09783935546875,11367,2181,-1809,5,4,-123
42681727,0.637939453125,0.0550537109375,-0.7606201171875,-0.1070556640625,11217,2390,-1813,4,3,-124
42691703,0.63653564453125,0.0670166015625,-0.75946044921875,-0.11663818359375,11042,2635,-1827,2,3,-126
42701685,0.634765625,0.07916259765625,-0.75811767578125,-0.12677001953125,10864,2888,-1826,-1,1,-131
42711664,0.6326904296875,0.09149169921875,-0.756591796875,-0.1376953125,10689,3151,-1826,-5,0,-137
42721647,0.63018798828125,0.1038818359375,-0.7548828125,-0.149169921875,10535,3378,-1831,-9,-2,-141
42731629,0.62738037109375,0.11590576171875,-0.75299072265625,-0.1610107421875,10414,3570,-1866,-12,-4,-141
42741611,0.62432861328125,0.1273193359375,-0.7510986328125,-0.17291259765625,10320,3716,-1916,-16,-5,-138
42751593,0.62109375,0.137939453125,-0.74908447265625,-0.1845703125,10267,3827,-1973,-19,-6,-134
42761574,0.61773681640625,0.14794921875,-0.74700927734375,-0.1961669921875,10199,3912,-2050,-22,-8,-132
42771556,0.61419677734375,0.1578369140625,-0.74468994140625,-0.20806884765625,10118,4010,-2094,-24,-8,-136
42781537,0.61016845703125,0.168212890625,-0.7420654296875,-0.220703125,10035,4106,-2160,-27,-9,-146
42791521,0.60565185546875,0.17938232421875,-0.739013671875,-0.2342529296875,9921,4198,-2220,-29,-10,-158
42801502,0.60064697265625,0.1912841796875,-0.7354736328125,-0.24859619140625,9798,4296,-2284,-31,-10,-168
42811488,0.59515380859375,0.2034912109375,-0.7314453125,-0.2633056640625,9661,4382,-2341,-32,-10,-174
42821471,0.5894775390625,0.21551513671875,-0.7271728515625,-0.27801513671875,9473,4465,-2357,-33,-10,-172
42831452,0.5838623046875,0.2269287109375,-0.72265625,-0.292236328125,9258,4553,-2337,-34,-9,-165
42841432,0.5784912109375,0.23736572265625,-0.718017578125,-0.3056640625,8984,4642,-2288,-34,-9,-155
42851424,0.5733642578125,0.24713134765625,-0.71331787109375,-0.31842041015625,8693,4743,-2204,-34,-7,-149
42861407,0.5682373046875,0.2567138671875,-0.708251953125,-0.33099365234375,8391,4876,-2095,-34,-6,-149
42871389,0.56298828125,0.2667236328125,-0.70263671875,-0.34381103515625,8106,5056,-1962,-35,-4,-156
42881365,0.5572509765625,0.27764892578125,-0.69622802734375,-0.35736083984375,7773,5278,-1835,-36,-2,-168
42891345,0.55078125,0.2896728515625,-0.68878173828125,-0.3719482421875,7429,5502,-1727,-38,-1,-184
42901333,0.54345703125,0.3028564453125,-0.68023681640625,-0.38751220703125,7079,5728,-1637,-40,1,-199
42911311,0.5355224609375,0.31671142578125,-0.67071533203125,-0.40386962890625,6713,5908,-1566,-43,1,-210
42921296,0.52703857421875,0.3306884765625,-0.660400390625,-0.42041015625,6334,6041,-1509,-45,2,-214
42931279,0.518310546875,0.34423828125,-0.649658203125,-0.43682861328125,5928,6119,-1464,-47,2,-211
42941260,0.50970458984375,0.35687255859375,-0.63873291015625,-0.45269775390625,5505,6141,-1424,-50,1,-203
42951250,0.50146484375,0.36822509765625,-0.62786865234375,-0.46771240234375,5057,6115,-1351,-51,0,-190
42961233,0.4937744140625,0.378173828125,-0.61724853515625,-0.4818115234375,4582,6063,-1284,-53,-1,-174
42971215,0.48675537109375,0.38677978515625,-0.60711669921875,-0.494873046875,4132,5991,-1201,-53,-2,-159
42981199,0.4803466796875,0.39410400390625,-0.5972900390625,-0.50714111328125,3752,5929,-1107,-54,-2,-146
42991184,0.474609375,0.400390625,-0.58782958984375,-0.5185546875,3406,5863,-999,-55,-2,-135
43001168,0.46923828125,0.406005859375,-0.578369140625,-0.52960205078125,3088,5809,-871,-57,-1,-130
43011151,0.4639892578125,0.411376953125,-0.5687255859375,-0.5404052734375,2825,5723,-766,-58,-1,-128
43021123,0.4588623046875,0.41650390625,-0.558837890625,-0.55108642578125,2613,5578,-658,-59,1,-128
43031104,0.45379638671875,0.421630859375,-0.5487060546875,-0.56146240234375,2395,5395,-570,-59,3,-127
43041085,0.4488525390625,0.42669677734375,-0.53839111328125,-0.571533203125,2196,5187,-473,-59,5,-125
43051069,0.44415283203125,0.431640625,-0.52801513671875,-0.5810546875,1968,4974,-384,-58,8,-120
43061049,0.4400634765625,0.436279296875,-0.517822265625,-0.58984375,1764,4761,-293,-57,11,-112
43071033,0.4366455078125,0.4404296875,-0.50799560546875,-0.5977783203125,1586,4548,-177,-55,14,-101
43081015,0.43408203125,0.44415283203125,-0.4986572265625,-0.60467529296875,1370,4355,-83,-53,17,-89
43090998,0.43231201171875,0.44744873046875,-0.48980712890625,-0.6107177734375,1146,4170,14,-51,19,-78
43100986,0.4310302734375,0.45068359375,-0.48138427734375,-0.615966796875,901,4014,98,-48,22,-71
43110969,0.43011474609375,0.453857421875,-0.4732666015625,-0.62054443359375,634,3886,209,-44,24,-65
43120945,0.4293212890625,0.45709228515625,-0.46533203125,-0.62469482421875,340,3819,346,-41,26,-62
43130929,0.428466796875,0.46051025390625,-0.45751953125,-0.62847900390625,33,3806,469,-38,28,-60
43140910,0.42755126953125,0.46417236328125,-0.4498291015625,-0.6319580078125,-302,3840,619,-35,29,-59
43150892,0.42633056640625,0.4681396484375,-0.442138671875,-0.63531494140625,-622,3886,739,-32,30,-60
43160875,0.42486572265625,0.47222900390625,-0.43450927734375,-0.63848876953125,-922,3949,850,-30,30,-62
43170857,0.4227294921875,0.47674560546875,-0.42669677734375,-0.641845703125,-1262,4044,956,-27,29,-68
43180840,0.41961669921875,0.48162841796875,-0.41851806640625,-0.6456298828125,-1610,4138,1042,-26,27,-78
43190822,0.415283203125,0.4869384765625,-0.4097900390625,-0.64996337890625,-1947,4223,1128,-24,24,-89
43200803,0.4097900390625,0.4925537109375,-0.400634765625,-0.65496826171875,-2262,4303,1204,-23,21,-99
43210787,0.40338134765625,0.49822998046875,-0.39111328125,-0.66033935546875,-2552,4387,1285,-22,17,-106
43220768,0.3963623046875,0.503662109375,-0.3817138671875,-0.66595458984375,-2820,4461,1351,-21,13,-107
43230758,0.3892822265625,0.508544921875,-0.3726806640625,-0.6715087890625,-3087,4530,1442,-19,9,-103
43240740,0.38226318359375,0.5128173828125,-0.36431884765625,-0.6768798828125,-3358,4608,1498,-18,4,-96
43250717,0.37548828125,0.5164794921875,-0.35662841796875,-0.68194580078125,-3625,4677,1562,-16,1,-89
43260700,0.368896484375,0.51947021484375,-0.34954833984375,-0.6868896484375,-3893,4719,1648,-15,-4,-83
43270678,0.3624267578125,0.52197265625,-0.343017578125,-0.69171142578125,-4126,4734,1705,-13,-7,-78
43280664,0.3560791015625,0.5240478515625,-0.337158203125,-0.69635009765625,-4310,4701,1757,-11,-11,-73
43290646,0.3499755859375,0.52557373046875,-0.3319091796875,-0.7008056640625,-4449,4668,1804,-9,-13,-66
43300631,0.34429931640625,0.5267333984375,-0.3275146484375,-0.70477294921875,-4447,4632,1849,-6,-14,-58
43310611,0.33990478515625,0.52740478515625,-0.32427978515625,-0.70794677734375,-4159,4597,2003,-4,-11,-43
43320597,0.3377685546875,0.52783203125,-0.322265625,-0.70953369140625,-3699,4556,2237,-1,1,-21
43330575,0.33856201171875,0.52850341796875,-0.32135009765625,-0.7091064453125,-3314,4525,2436,-1,19,4
43340553,0.3419189453125,0.52984619140625,-0.32110595703125,-0.70660400390625,-3237,4516,2529,-1,36,25
43350537,0.3465576171875,0.5321044921875,-0.32098388671875,-0.70269775390625,-3535,4547,2496,-1,47,35
43360524,0.3511962890625,0.53515625,-0.32049560546875,-0.6982421875,-4083,4627,2396,0,51,34
43370505,0.35504150390625,0.53875732421875,-0.3194580078125,-0.69403076171875,-4664,4696,2278,1,50,27
43380490,0.35797119140625,0.5423583984375,-0.318115234375,-0.6903076171875,-5153,4757,2181,2,46,21
43390470,0.3602294921875,0.5457763671875,-0.3167724609375,-0.68701171875,-5540,4827,2090,3,40,17
43400450,0.3619384765625,0.54888916015625,-0.3157958984375,-0.68414306640625,-5860,4899,2011,5,34,16
43410431,0.36328125,0.5513916015625,-0.31512451171875,-0.68170166015625,-6143,4992,1952,6,27,17
43420422,0.36431884765625,0.5533447265625,-0.31494140625,-0.67962646484375,-6411,5092,1895,7,19,17
43430405,0.36492919921875,0.5546875,-0.31512451171875,-0.6781005859375,-6623,5196,1857,8,11,17
43440388,0.36529541015625,0.55535888671875,-0.315673828125,-0.6771240234375,-6787,5287,1842,8,3,18
43450364,0.36553955078125,0.5552978515625,-0.31689453125,-0.67645263671875,-6844,5345,1808,8,-4,21
43460344,0.36602783203125,0.554443359375,-0.31878662109375,-0.676025390625,-6828,5372,1763,8,-11,27
43470324,0.36688232421875,0.5526123046875,-0.3216552734375,-0.67572021484375,-6740,5373,1738,9,-18,36
43480308,0.3681640625,0.54998779296875,-0.32537841796875,-0.67535400390625,-6599,5315,1710,9,-24,44
43490290,0.36993408203125,0.546630859375,-0.3299560546875,-0.6749267578125,-6396,5221,1690,10,-29,52
43500273,0.3721923828125,0.54241943359375,-0.33538818359375,-0.67437744140625,-6125,5120,1659,10,-34,61
43510256,0.375,0.5374755859375,-0.34161376953125,-0.67364501953125,-5813,5007,1640,11,-37,69
43520238,0.378173828125,0.531982421875,-0.34857177734375,-0.67266845703125,-5475,4902,1609,12,-41,76
43530228,0.38177490234375,0.52593994140625,-0.35614013671875,-0.67144775390625,-5119,4796,1577,12,-43,82
43540212,0.38555908203125,0.51959228515625,-0.36407470703125,-0.669921875,-4738,4691,1540,13,-43,85
43550190,0.38958740234375,0.51300048828125,-0.37237548828125,-0.66815185546875,-4339,4605,1505,14,-44,88
43560183,0.39373779296875,0.5062255859375,-0.38092041015625,-0.66607666015625,-3928,4523,1468,15,-44,90
43570168,0.39794921875,0.49932861328125,-0.38958740234375,-0.66375732421875,-3552,4465,1432,16,-43,92
43580148,0.4022216796875,0.492431640625,-0.3983154296875,-0.6611328125,-3191,4394,1400,17,-42,92
43590116,0.4063720703125,0.485595703125,-0.40704345703125,-0.6583251953125,-2869,4373,1359,18,-41,91
43600099,0.41033935546875,0.47900390625,-0.41571044921875,-0.6552734375,-2584,4360,1293,20,-39,89
43610084,0.41424560546875,0.47259521484375,-0.42425537109375,-0.6519775390625,-2302,4364,1231,21,-37,89
43620062,0.418212890625,0.46624755859375,-0.43292236328125,-0.6483154296875,-2003,4414,1169,23,-35,90
43630051,0.42236328125,0.46002197265625,-0.441650390625,-0.6441650390625,-1742,4483,1125,23,-33,92
43640031,0.42681884765625,0.45367431640625,-0.450439453125,-0.6396484375,-1445,4550,1088,24,-31,95
43650014,0.4317626953125,0.447021484375,-0.45953369140625,-0.634521484375,-1119,4629,1035,25,-29,101
43659996,0.43731689453125,0.44000244140625,-0.4688720703125,-0.62872314453125,-803,4685,973,25,-27,110
43669986,0.44378662109375,0.43243408203125,-0.478759765625,-0.62200927734375,-485,4717,879,26,-25,121
43679960,0.4510498046875,0.42425537109375,-0.48907470703125,-0.61431884765625,-171,4756,767,26,-22,132
43689944,0.45904541015625,0.41571044921875,-0.49969482421875,-0.60565185546875,110,4807,660,27,-20,141
43699926,0.46746826171875,0.40667724609375,-0.51043701171875,-0.59625244140625,374,4864,551,28,-18,147
43709910,0.47601318359375,0.3975830078125,-0.52117919921875,-0.5863037109375,662,4942,448,28,-16,149
43719892,0.484619140625,0.38824462890625,-0.53179931640625,-0.57586669921875,1016,4997,324,29,-15,151
43729874,0.493408203125,0.37860107421875,-0.54248046875,-0.56475830078125,1383,5001,171,29,-14,156
43739859,0.5023193359375,0.36859130859375,-0.55328369140625,-0.552978515625,1744,4979,12,31,-12,161
43749841,0.51129150390625,0.35821533203125,-0.56414794921875,-0.54034423828125,2131,4942,-128,33,-12,165
43759825,0.52020263671875,0.3475341796875,-0.5751953125,-0.52703857421875,2585,4898,-275,36,-12,168
43769807,0.52886962890625,0.33660888671875,-0.58642578125,-0.512939453125,3066,4899,-450,39,-12,170
43779789,0.53704833984375,0.32574462890625,-0.5975341796875,-0.4984130859375,3530,4991,-593,41,-13,167
43789769,0.54449462890625,0.315185546875,-0.60821533203125,-0.48406982421875,3987,5143,-682,42,-14,160
43799760,0.55108642578125,0.30511474609375,-0.61822509765625,-0.47015380859375,4398,5284,-709,42,-14,149
43809740,0.556640625,0.29583740234375,-0.62744140625,-0.4571533203125,4725,5376,-766,41,-15,136
43819718,0.56121826171875,0.2874755859375,-0.6358642578125,-0.44500732421875,4993,5397,-831,40,-15,122
43829702,0.56500244140625,0.2799072265625,-0.64373779296875,-0.43365478515625,5214,5379,-885,40,-16,111
43839682,0.56817626953125,0.2728271484375,-0.65130615234375,-0.422607421875,5471,5377,-946,41,-16,106
43849665,0.5712890625,0.26544189453125,-0.6588134765625,-0.4112548828125,5806,5384,-1021,41,-17,110
43859648,0.57476806640625,0.2572021484375,-0.66644287109375,-0.39923095703125,6145,5465,-1073,40,-17,121
43869629,0.5787353515625,0.2476806640625,-0.67413330078125,-0.38629150390625,6411,5582,-1059,39,-17,135
43879611,0.5831298828125,0.23712158203125,-0.6817626953125,-0.372802734375,6625,5667,-1050,36,-17,145
43889593,0.587646484375,0.225830078125,-0.68902587890625,-0.3590087890625,6753,5686,-1067,33,-16,151
43899576,0.5921630859375,0.214111328125,-0.6959228515625,-0.34521484375,6845,5618,-1088,31,-16,152
43909557,0.59637451171875,0.202392578125,-0.70245361328125,-0.33154296875,6934,5468,-1132,29,-16,150
43919544,0.60040283203125,0.1905517578125,-0.70867919921875,-0.31781005859375,7051,5305,-1161,29,-16,150
43929528,0.604248046875,0.1783447265625,-0.71466064453125,-0.3038330078125,7314,5139,-1194,28,-16,154
43939510,0.60821533203125,0.165283203125,-0.720458984375,-0.28924560546875,7647,5064,-1208,27,-16,162
43949492,0.61224365234375,0.15167236328125,-0.72589111328125,-0.2744140625,7972,5067,-1188,25,-15,166
43959475,0.61614990234375,0.1378173828125,-0.730712890625,-0.25982666015625,8283,5100,-1144,21,-14,166
43969457,0.619873046875,0.12420654296875,-0.7347412109375,-0.24591064453125,8562,5056,-1095,18,-12,160
43979443,0.62335205078125,0.11114501953125,-0.73809814453125,-0.23297119140625,8805,4929,-1082,13,-10,149
43989427,0.62640380859375,0.098876953125,-0.74090576171875,-0.22113037109375,9009,4716,-1116,10,-9,137
43999411,0.62921142578125,0.08746337890625,-0.7431640625,-0.210205078125,9199,4459,-1140,8,-7,127
44009392,0.63177490234375,0.0765380859375,-0.74505615234375,-0.19989013671875,9398,4162,-1181,7,-6,121
44019367,0.6341552734375,0.065673828125,-0.7467041015625,-0.18963623046875,9578,3910,-1230,6,-5,121
44029351,0.63665771484375,0.054443359375,-0.74810791015625,-0.17919921875,9765,3722,-1229,5,-4,126
44041989,0.63934326171875,0.04248046875,-0.7491455078125,-0.168212890625,9986,3582,-1195,5,-2,135
44049315,0.64227294921875,0.02960205078125,-0.74969482421875,-0.15667724609375,10196,3414,-1110,2,0,145
44059291,0.64544677734375,0.0157470703125,-0.74981689453125,-0.14453125,10357,3211,-1043,0,2,154
44069273,0.648681640625,0.00128173828125,-0.74951171875,-0.13214111328125,10433,2919,-993,-1,4,158
44079253,0.65179443359375,-0.01324462890625,-0.748779296875,-0.1197509765625,10425,2566,-935,-3,6,157
44089232,0.65478515625,-0.0274658203125,-0.74761962890625,-0.10772705078125,10400,2188,-910,-3,7,152
44099225,0.65740966796875,-0.04107666015625,-0.74627685546875,-0.0960693359375,10360,1765,-897,-3,7,146
44109207,0.65985107421875,-0.05419921875,-0.74462890625,-0.084716796875,10258,1332,-874,-2,8,141
44119186,0.662109375,-0.06683349609375,-0.7427978515625,-0.07366943359375,10162,959,-850,-1,8,137
44129176,0.66412353515625,-0.07916259765625,-0.74078369140625,-0.06268310546875,10074,593,-836,-1,8,135
44139160,0.66595458984375,-0.091552734375,-0.73858642578125,-0.05157470703125,10038,183,-857,-1,8,136
44149139,0.66741943359375,-0.10418701171875,-0.73626708984375,-0.04010009765625,10105,-262,-954,0,7,139
44159114,0.6685791015625,-0.11712646484375,-0.73382568359375,-0.0281982421875,10176,-730,-1070,1,5,143
44169097,0.66925048828125,-0.130126953125,-0.73138427734375,-0.01605224609375,10211,-1155,-1164,1,3,144
44179079,0.6695556640625,-0.1427001953125,-0.72894287109375,-0.0040283203125,10205,-1505,-1237,2,1,140
44189062,0.66949462890625,-0.15478515625,-0.72650146484375,0.0074462890625,10189,-1789,-1272,2,-1,135
44199045,0.6690673828125,-0.16619873046875,-0.72418212890625,0.018310546875,10179,-2045,-1302,2,-3,127
44209024,0.6683349609375,-0.1768798828125,-0.721923828125,0.028564453125,10179,-2291,-1310,1,-4,120
44219006,0.66741943359375,-0.1868896484375,-0.7198486328125,0.0380859375,10182,-2502,-1335,0,-6,113
44228990,0.666259765625,-0.1962890625,-0.7178955078125,0.0469970703125,10161,-2708,-1355,0,-7,106
44238977,0.66485595703125,-0.20501708984375,-0.7161865234375,0.05517578125,10106,-2888,-1371,-1,-8,98
44248953,0.663330078125,-0.21295166015625,-0.71466064453125,0.06256103515625,10022,-3039,-1419,-2,-9,88
44258934,0.66168212890625,-0.21990966796875,-0.71343994140625,0.06903076171875,9926,-3136,-1452,-2,-10,78
44268918,0.66009521484375,-0.22589111328125,-0.7125244140625,0.074462890625,9830,-3192,-1452,-3,-11,67
44278899,0.65850830078125,-0.23089599609375,-0.71197509765625,0.07891845703125,9743,-3235,-1449,-3,-11,55
44288882,0.6568603515625,-0.2349853515625,-0.711669921875,0.08245849609375,9647,-3251,-1426,-5,-12,46
44298865,0.6552734375,-0.2384033203125,-0.71173095703125,0.08526611328125,9567,-3238,-1382,-5,-13,38
44308845,0.6536865234375,-0.24127197265625,-0.71197509765625,0.08740234375,9456,-3200,-1346,-7,-14,31
44318827,0.65203857421875,-0.24365234375,-0.71246337890625,0.08892822265625,9344,-3122,-1317,-8,-14,26
44328815,0.650390625,-0.2457275390625,-0.713134765625,0.08990478515625,9234,-3051,-1311,-9,-15,21
44338799,0.648681640625,-0.2474365234375,-0.7139892578125,0.0904541015625,9118,-2976,-1310,-10,-15,17
