subject,Ian Lake
arm,left
label,1
hz,100.17331355482156
time,3.643685

timestamp_us,q0,q1,q2,q3,ax,ay,az,gx,gy,gz
57797602,-0.21282958984375,0.33984375,0.633544921875,-0.66168212890625,-1448,-8007,-337,0,0,1
57807586,-0.21282958984375,0.3399658203125,0.6334228515625,-0.6617431640625,-1436,-7995,-335,0,0,1
57817568,-0.21282958984375,0.340087890625,0.63336181640625,-0.6617431640625,-1429,-7987,-331,0,0,0
57827551,-0.21282958984375,0.3402099609375,0.63323974609375,-0.66180419921875,-1423,-7992,-325,0,0,1
57837536,-0.21282958984375,0.34027099609375,0.6331787109375,-0.66180419921875,-1432,-7993,-324,0,0,0
57847517,-0.212890625,0.34039306640625,0.63311767578125,-0.66180419921875,-1428,-7997,-308,0,0,0
57857503,-0.21295166015625,0.34039306640625,0.633056640625,-0.661865234375,-1433,-8003,-283,0,0,-1
57867479,-0.21307373046875,0.34033203125,0.63299560546875,-0.661865234375,-1427,-8002,-266,1,0,-1
57877461,-0.2132568359375,0.34027099609375,0.6329345703125,-0.661865234375,-1434,-8006,-247,0,0,-2
57887444,-0.21356201171875,0.34014892578125,0.6329345703125,-0.661865234375,-1426,-8021,-228,0,0,-2
57897432,-0.21380615234375,0.34002685546875,0.6329345703125,-0.661865234375,-1423,-8043,-205,0,0,-2
57907417,-0.2139892578125,0.33990478515625,0.6329345703125,-0.661865234375,-1428,-8058,-180,0,0,-1
57917407,-0.214111328125,0.33990478515625,0.6328125,-0.66192626953125,-1421,-8089,-152,0,1,0
57927385,-0.2142333984375,0.3399658203125,0.63262939453125,-0.66204833984375,-1425,-8121,-140,1,0,1
57937360,-0.2142333984375,0.340087890625,0.6324462890625,-0.66217041015625,-1413,-8119,-137,1,1,1
57947344,-0.21429443359375,0.3402099609375,0.6322021484375,-0.66229248046875,-1424,-8113,-149,1,0,1
57957323,-0.2144775390625,0.34027099609375,0.6319580078125,-0.6624755859375,-1415,-8102,-156,2,1,0
57967308,-0.21466064453125,0.34033203125,0.63165283203125,-0.66259765625,-1417,-8099,-164,2,1,0
57977291,-0.2149658203125,0.34033203125,0.63140869140625,-0.66278076171875,-1413,-8074,-162,3,1,-1
57987271,-0.21539306640625,0.34027099609375,0.63104248046875,-0.66302490234375,-1422,-8044,-156,3,2,-2
57997255,-0.2158203125,0.34014892578125,0.63079833984375,-0.6632080078125,-1428,-8023,-174,4,1,-2
58007232,-0.21630859375,0.34002685546875,0.6304931640625,-0.66339111328125,-1434,-8001,-190,4,1,-3
58017226,-0.216796875,0.33990478515625,0.63018798828125,-0.66357421875,-1431,-7991,-205,4,1,-2
58027207,-0.21728515625,0.3397216796875,0.6298828125,-0.663818359375,-1433,-7978,-206,4,1,-3
58037187,-0.2177734375,0.339599609375,0.62957763671875,-0.66400146484375,-1436,-7954,-218,4,1,-3
58047179,-0.21826171875,0.33941650390625,0.6292724609375,-0.6641845703125,-1432,-7935,-230,4,1,-3
58057168,-0.21868896484375,0.33929443359375,0.62896728515625,-0.6644287109375,-1446,-7922,-233,4,1,-2
58067137,-0.21905517578125,0.3392333984375,0.628662109375,-0.66461181640625,-1450,-7906,-242,4,1,-2
58077115,-0.21942138671875,0.339111328125,0.62835693359375,-0.664794921875,-1452,-7908,-233,4,1,-2
58087099,-0.2197265625,0.339111328125,0.6280517578125,-0.6650390625,-1461,-7911,-244,4,1,-1
58097081,-0.219970703125,0.33917236328125,0.62774658203125,-0.66522216796875,-1474,-7902,-253,3,0,-1
58107063,-0.22015380859375,0.33917236328125,0.62744140625,-0.66546630859375,-1484,-7872,-263,4,1,-1
58117045,-0.22039794921875,0.33917236328125,0.62713623046875,-0.6656494140625,-1482,-7857,-263,3,0,-1
58127029,-0.22064208984375,0.33917236328125,0.62689208984375,-0.665771484375,-1485,-7839,-254,3,1,-2
58137011,-0.220947265625,0.33905029296875,0.626708984375,-0.6658935546875,-1493,-7828,-248,2,1,-3
58146995,-0.2213134765625,0.33892822265625,0.62664794921875,-0.66595458984375,-1496,-7819,-249,2,0,-3
58156983,-0.2216796875,0.3387451171875,0.6265869140625,-0.66595458984375,-1505,-7803,-227,2,0,-4
58166957,-0.22210693359375,0.3385009765625,0.6265869140625,-0.66595458984375,-1499,-7792,-208,1,1,-5
58176942,-0.2225341796875,0.33831787109375,0.6265869140625,-0.6658935546875,-1502,-7794,-207,1,1,-5
58186925,-0.22296142578125,0.33807373046875,0.626708984375,-0.665771484375,-1490,-7793,-214,0,1,-5
58196905,-0.22332763671875,0.33795166015625,0.62677001953125,-0.66558837890625,-1479,-7801,-219,0,0,-4
58206890,-0.22369384765625,0.33782958984375,0.62689208984375,-0.66546630859375,-1462,-7818,-213,0,1,-4
58216874,-0.223876953125,0.33782958984375,0.626953125,-0.66534423828125,-1471,-7847,-197,-1,1,-2
58226854,-0.2239990234375,0.33795166015625,0.626953125,-0.66522216796875,-1468,-7880,-197,-1,1,-1
58236842,-0.2239990234375,0.33819580078125,0.62689208984375,-0.6651611328125,-1487,-7916,-209,-1,1,1
58246823,-0.22393798828125,0.33856201171875,0.62677001953125,-0.66510009765625,-1497,-7971,-227,-1,1,2
58256807,-0.2237548828125,0.3389892578125,0.62664794921875,-0.6650390625,-1502,-8003,-248,0,2,2
58266792,-0.2236328125,0.33941650390625,0.62646484375,-0.6650390625,-1486,-8029,-257,0,2,3
58276769,-0.22357177734375,0.33984375,0.6263427734375,-0.6650390625,-1499,-8030,-250,0,2,2
58286759,-0.2236328125,0.34014892578125,0.62615966796875,-0.66497802734375,-1512,-8025,-247,0,2,0
58296743,-0.223876953125,0.34027099609375,0.6260986328125,-0.6649169921875,-1512,-8037,-246,1,2,-2
58306715,-0.22430419921875,0.3402099609375,0.62603759765625,-0.66485595703125,-1524,-8041,-250,1,2,-4
58316695,-0.22491455078125,0.340087890625,0.6259765625,-0.66473388671875,-1514,-8049,-255,2,2,-5
58326680,-0.2255859375,0.33984375,0.6259765625,-0.66461181640625,-1519,-8076,-258,2,2,-6
58336662,-0.226318359375,0.339599609375,0.6259765625,-0.66455078125,-1514,-8065,-269,2,2,-7
58346646,-0.22711181640625,0.33929443359375,0.62591552734375,-0.6644287109375,-1518,-8059,-281,3,2,-7
58356630,-0.2279052734375,0.33905029296875,0.6258544921875,-0.6644287109375,-1515,-8040,-269,3,2,-6
58366609,-0.2286376953125,0.3388671875,0.62567138671875,-0.66436767578125,-1513,-8011,-262,3,2,-6
58376594,-0.229248046875,0.3387451171875,0.62548828125,-0.6644287109375,-1513,-8002,-247,4,2,-5
58386579,-0.22979736328125,0.33868408203125,0.625244140625,-0.66448974609375,-1513,-7982,-247,3,2,-3
58396562,-0.23028564453125,0.3387451171875,0.6248779296875,-0.66461181640625,-1511,-7954,-230,3,2,-2
58406549,-0.2305908203125,0.3389892578125,0.62451171875,-0.66473388671875,-1495,-7925,-216,3,3,0
58416527,-0.2308349609375,0.33929443359375,0.62408447265625,-0.6649169921875,-1482,-7894,-222,3,3,1
58426511,-0.23095703125,0.33966064453125,0.6236572265625,-0.6650390625,-1487,-7875,-215,3,3,2
58436493,-0.23095703125,0.34014892578125,0.62322998046875,-0.66522216796875,-1492,-7849,-201,2,2,2
58446475,-0.23095703125,0.340576171875,0.622802734375,-0.6654052734375,-1502,-7844,-184,2,2,3
58456457,-0.23095703125,0.341064453125,0.6224365234375,-0.66552734375,-1510,-7842,-171,2,2,2
58466443,-0.23095703125,0.34149169921875,0.6220703125,-0.66558837890625,-1504,-7843,-164,1,3,2
58476429,-0.23095703125,0.342041015625,0.621826171875,-0.66558837890625,-1506,-7834,-173,1,3,2
58486413,-0.23089599609375,0.342529296875,0.62152099609375,-0.66558837890625,-1516,-7828,-166,0,2,2
58496396,-0.2308349609375,0.343017578125,0.621337890625,-0.66558837890625,-1522,-7841,-173,0,2,2
58506373,-0.230712890625,0.343505859375,0.62115478515625,-0.66546630859375,-1533,-7856,-171,-1,2,2
58516353,-0.23065185546875,0.343994140625,0.62109375,-0.66534423828125,-1541,-7875,-175,-2,2,1
58526338,-0.23065185546875,0.3443603515625,0.62109375,-0.6651611328125,-1553,-7894,-180,-2,2,0
58536322,-0.230712890625,0.34466552734375,0.62109375,-0.66497802734375,-1570,-7902,-183,-2,2,-1
58546303,-0.230712890625,0.344970703125,0.62115478515625,-0.664794921875,-1580,-7929,-191,-2,2,0
58556287,-0.23065185546875,0.3453369140625,0.6212158203125,-0.66455078125,-1584,-7963,-199,-2,1,0
58566269,-0.23052978515625,0.34564208984375,0.6212158203125,-0.6644287109375,-1604,-7982,-196,-2,1,1
58576250,-0.2303466796875,0.34600830078125,0.6212158203125,-0.664306640625,-1606,-8007,-194,-2,1,2
58586236,-0.2301025390625,0.34637451171875,0.62115478515625,-0.66424560546875,-1604,-8015,-191,-2,0,2
58596219,-0.2298583984375,0.34674072265625,0.62115478515625,-0.6641845703125,-1609,-8008,-188,-1,0,2
58606203,-0.2296142578125,0.34698486328125,0.62109375,-0.66412353515625,-1611,-8015,-178,-1,0,1
58616184,-0.2294921875,0.34716796875,0.62109375,-0.6640625,-1625,-8021,-166,-1,0,0
58626182,-0.22943115234375,0.3472900390625,0.62115478515625,-0.66400146484375,-1630,-8019,-170,-1,-1,-1
58636168,-0.2293701171875,0.34735107421875,0.62115478515625,-0.66400146484375,-1626,-8037,-173,0,-1,-1
58646138,-0.22930908203125,0.34735107421875,0.62115478515625,-0.6640625,-1618,-8034,-168,0,-1,-1
58656116,-0.229248046875,0.34735107421875,0.62109375,-0.66412353515625,-1612,-8027,-188,1,-1,0
58666096,-0.22906494140625,0.347412109375,0.62103271484375,-0.6641845703125,-1595,-7999,-180,1,-1,1
58676077,-0.22894287109375,0.34747314453125,0.62091064453125,-0.66436767578125,-1593,-7970,-173,1,-1,1
58686061,-0.228759765625,0.34747314453125,0.6207275390625,-0.66448974609375,-1591,-7955,-166,1,-2,0
58696045,-0.2286376953125,0.34747314453125,0.62060546875,-0.6646728515625,-1600,-7959,-179,1,-1,1
58706023,-0.228515625,0.34747314453125,0.6204833984375,-0.66485595703125,-1591,-7980,-177,1,-2,0
58716007,-0.22833251953125,0.34747314453125,0.62042236328125,-0.66497802734375,-1586,-7989,-188,1,-2,0
58725991,-0.22821044921875,0.347412109375,0.62030029296875,-0.6651611328125,-1568,-7993,-180,1,-2,0
58735977,-0.22808837890625,0.3472900390625,0.6202392578125,-0.66534423828125,-1534,-7990,-164,1,-2,0
58745953,-0.22796630859375,0.34716796875,0.6201171875,-0.66558837890625,-1508,-8004,-157,1,-2,0
58755937,-0.227783203125,0.3470458984375,0.6199951171875,-0.665771484375,-1481,-8025,-126,1,-2,1
58765920,-0.22772216796875,0.34686279296875,0.61993408203125,-0.66595458984375,-1455,-8048,-101,1,-2,0
58775906,-0.22772216796875,0.34661865234375,0.61981201171875,-0.66619873046875,-1429,-8096,-79,2,-2,-1
58785883,-0.227783203125,0.3463134765625,0.6197509765625,-0.66644287109375,-1402,-8173,-43,2,-2,-1
58795872,-0.2279052734375,0.345947265625,0.61962890625,-0.66668701171875,-1376,-8273,-9,2,-2,-1
58805852,-0.2281494140625,0.34564208984375,0.61944580078125,-0.66693115234375,-1332,-8363,36,3,-2,-1
58815833,-0.22845458984375,0.34521484375,0.61920166015625,-0.667236328125,-1280,-8442,100,3,-1,-2
58825815,-0.22894287109375,0.34478759765625,0.61883544921875,-0.66766357421875,-1230,-8515,160,4,-1,-2
58835799,-0.2294921875,0.34429931640625,0.618408203125,-0.6680908203125,-1177,-8576,213,6,0,-2
58845780,-0.230224609375,0.34375,0.61785888671875,-0.66864013671875,-1140,-8690,280,7,0,-3
58855760,-0.2310791015625,0.34320068359375,0.6171875,-0.669189453125,-1097,-8829,310,8,1,-3
58865752,-0.232177734375,0.342529296875,0.616455078125,-0.66986083984375,-1036,-8961,345,10,1,-4
58875736,-0.2335205078125,0.34173583984375,0.6156005859375,-0.67059326171875,-928,-9111,392,12,2,-5
58885711,-0.23516845703125,0.3406982421875,0.61468505859375,-0.67144775390625,-800,-9231,468,14,2,-7
58895693,-0.23712158203125,0.33935546875,0.6136474609375,-0.67236328125,-655,-9337,574,16,2,-9
58905675,-0.2396240234375,0.337646484375,0.61248779296875,-0.67340087890625,-503,-9409,695,19,3,-13
58915657,-0.24261474609375,0.33551025390625,0.611328125,-0.6744384765625,-400,-9479,795,21,3,-18
58925641,-0.24627685546875,0.33294677734375,0.61016845703125,-0.6754150390625,-334,-9513,891,24,4,-25
58935623,-0.2506103515625,0.329833984375,0.6090087890625,-0.6763916015625,-287,-9516,955,27,5,-32
58945606,-0.255615234375,0.32623291015625,0.60784912109375,-0.67730712890625,-258,-9473,1027,29,5,-38
58955594,-0.26123046875,0.32220458984375,0.6065673828125,-0.67822265625,-245,-9378,1109,32,6,-44
58965575,-0.26727294921875,0.31781005859375,0.60528564453125,-0.6790771484375,-258,-9252,1179,34,7,-49
58975561,-0.273681640625,0.313232421875,0.60382080078125,-0.67999267578125,-263,-9132,1262,36,7,-51
58985545,-0.2801513671875,0.3084716796875,0.6021728515625,-0.6810302734375,-252,-9045,1354,38,7,-51
58995525,-0.28656005859375,0.3038330078125,0.60028076171875,-0.68206787109375,-235,-8969,1438,39,7,-50
59005509,-0.2926025390625,0.2994384765625,0.59814453125,-0.683349609375,-205,-8913,1519,40,7,-44
59015493,-0.298095703125,0.29541015625,0.595703125,-0.68487548828125,-161,-8878,1597,41,6,-38
59025474,-0.3028564453125,0.291748046875,0.593017578125,-0.6866455078125,-119,-8822,1654,41,5,-31
59035456,-0.3070068359375,0.2884521484375,0.590087890625,-0.688720703125,-97,-8776,1714,41,3,-25
59045443,-0.3106689453125,0.28546142578125,0.58697509765625,-0.69097900390625,-120,-8739,1766,42,2,-21
59055426,-0.31402587890625,0.282470703125,0.5838623046875,-0.69329833984375,-150,-8762,1808,42,1,-20
59065410,-0.3172607421875,0.27935791015625,0.58087158203125,-0.69561767578125,-193,-8802,1843,41,-1,-21
59075389,-0.32049560546875,0.27593994140625,0.5780029296875,-0.6978759765625,-229,-8854,1881,41,-2,-24
59085369,-0.32379150390625,0.27227783203125,0.5753173828125,-0.70001220703125,-270,-8913,1918,41,-5,-27
59095351,-0.32720947265625,0.26824951171875,0.5728759765625,-0.70196533203125,-261,-8971,1963,40,-6,-30
59105334,-0.3306884765625,0.26385498046875,0.5706787109375,-0.703857421875,-226,-9029,1994,40,-8,-33
59115318,-0.3343505859375,0.2591552734375,0.56866455078125,-0.70550537109375,-188,-9101,2021,39,-9,-36
59125300,-0.33807373046875,0.25408935546875,0.56683349609375,-0.70703125,-127,-9181,2058,39,-11,-39
59135287,-0.34197998046875,0.2486572265625,0.56524658203125,-0.7083740234375,-60,-9264,2095,38,-13,-43
59145267,-0.34600830078125,0.24285888671875,0.5638427734375,-0.70953369140625,10,-9345,2119,38,-14,-46
59155250,-0.35003662109375,0.23675537109375,0.5626220703125,-0.7105712890625,68,-9441,2155,37,-17,-49
59165237,-0.35418701171875,0.2303466796875,0.5616455078125,-0.71142578125,131,-9550,2183,37,-18,-52
59175221,-0.3582763671875,0.2236328125,0.56085205078125,-0.71209716796875,215,-9663,2214,37,-21,-54
59185203,-0.36248779296875,0.21649169921875,0.5601806640625,-0.71270751953125,305,-9785,2274,36,-23,-57
59195181,-0.36676025390625,0.208984375,0.5596923828125,-0.713134765625,407,-9928,2323,36,-25,-61
59205175,-0.37109375,0.20111083984375,0.5594482421875,-0.71331787109375,510,-10081,2367,36,-27,-64
59215156,-0.37542724609375,0.19287109375,0.5594482421875,-0.71337890625,621,-10256,2384,35,-30,-67
59225134,-0.3798828125,0.18408203125,0.5595703125,-0.7132568359375,748,-10411,2419,36,-32,-71
59235109,-0.384521484375,0.17474365234375,0.55987548828125,-0.712890625,884,-10568,2451,36,-35,-76
59245093,-0.389404296875,0.16485595703125,0.560302734375,-0.71221923828125,1040,-10747,2500,37,-37,-82
59255076,-0.39447021484375,0.15435791015625,0.5609130859375,-0.7113037109375,1207,-10926,2529,37,-40,-88
59265056,-0.4000244140625,0.14306640625,0.5615234375,-0.7100830078125,1386,-11068,2550,39,-42,-95
59275045,-0.406005859375,0.13092041015625,0.562255859375,-0.70843505859375,1567,-11206,2548,41,-45,-104
59285023,-0.41259765625,0.11798095703125,0.56292724609375,-0.7064208984375,1755,-11370,2534,43,-46,-114
59295009,-0.419677734375,0.10418701171875,0.56353759765625,-0.70391845703125,1968,-11529,2519,46,-47,-122
59304993,-0.42706298828125,0.08966064453125,0.56390380859375,-0.70111083984375,2200,-11690,2500,49,-49,-129
59314983,-0.4346923828125,0.074462890625,0.5640869140625,-0.69805908203125,2425,-11820,2451,52,-51,-134
59324960,-0.4425048828125,0.0587158203125,0.56396484375,-0.69476318359375,2690,-11823,2409,56,-52,-139
59334944,-0.45050048828125,0.042236328125,0.5634765625,-0.69122314453125,2918,-11664,2400,59,-53,-145
59344925,-0.458984375,0.02496337890625,0.5625,-0.687255859375,3137,-11388,2399,62,-54,-153
59354909,-0.46807861328125,0.0068359375,0.56109619140625,-0.68267822265625,3332,-11002,2389,65,-54,-164
59364892,-0.47796630859375,-0.01239013671875,0.5592041015625,-0.67730712890625,3532,-10566,2385,67,-54,-176
59374874,-0.48858642578125,-0.03240966796875,0.55670166015625,-0.671142578125,3716,-10095,2410,70,-53,-187
59384855,-0.49981689453125,-0.05322265625,0.55352783203125,-0.66412353515625,3916,-9543,2442,71,-52,-197
59394839,-0.5115966796875,-0.07470703125,0.54962158203125,-0.65625,4126,-8925,2479,73,-51,-205
59404821,-0.52374267578125,-0.09649658203125,0.5450439453125,-0.6475830078125,4329,-8289,2542,73,-48,-211
59414805,-0.5361328125,-0.118408203125,0.53973388671875,-0.63818359375,4509,-7632,2616,73,-46,-216
59424786,-0.54864501953125,-0.14019775390625,0.53369140625,-0.62811279296875,4644,-6939,2691,72,-42,-218
59434765,-0.5611572265625,-0.16168212890625,0.52703857421875,-0.61749267578125,4761,-6244,2764,70,-39,-219
59444759,-0.57354736328125,-0.1826171875,0.51983642578125,-0.60626220703125,4858,-5568,2821,68,-35,-219
59454740,-0.58575439453125,-0.202880859375,0.5120849609375,-0.5946044921875,4919,-4919,2888,65,-31,-217
59464718,-0.59765625,-0.2222900390625,0.50396728515625,-0.5826416015625,4954,-4301,2928,61,-28,-212
59474700,-0.6092529296875,-0.24078369140625,0.49554443359375,-0.57037353515625,4992,-3700,2964,58,-23,-209
59484683,-0.62054443359375,-0.25836181640625,0.48681640625,-0.55780029296875,5003,-3174,2985,54,-20,-206
59494665,-0.63153076171875,-0.2750244140625,0.47796630859375,-0.54510498046875,4994,-2719,2994,50,-17,-202
59504648,-0.64208984375,-0.2906494140625,0.468994140625,-0.53228759765625,4960,-2295,2984,45,-14,-196
59514630,-0.65234375,-0.30535888671875,0.4599609375,-0.51934814453125,4882,-1917,2947,42,-11,-192
59524614,-0.662109375,-0.3192138671875,0.450927734375,-0.50640869140625,4814,-1625,2904,38,-9,-188
59534596,-0.67144775390625,-0.33221435546875,0.44195556640625,-0.49346923828125,4768,-1386,2878,35,-8,-182
59544581,-0.6802978515625,-0.34442138671875,0.43310546875,-0.480712890625,4716,-1184,2833,33,-7,-177
59554563,-0.6885986328125,-0.3560791015625,0.42431640625,-0.468017578125,4652,-1007,2784,31,-7,-172
59564544,-0.69647216796875,-0.3671875,0.41571044921875,-0.45538330078125,4607,-859,2717,30,-7,-168
59574528,-0.70379638671875,-0.3778076171875,0.4072265625,-0.44287109375,4562,-728,2657,29,-7,-164
59584511,-0.710693359375,-0.38818359375,0.39886474609375,-0.43035888671875,4517,-587,2600,29,-8,-162
59594493,-0.71722412109375,-0.39837646484375,0.3905029296875,-0.417724609375,4479,-413,2541,28,-9,-161
59604476,-0.72344970703125,-0.40850830078125,0.38214111328125,-0.40472412109375,4414,-217,2490,28,-11,-162
59614458,-0.7294921875,-0.41876220703125,0.37353515625,-0.39117431640625,4353,-6,2435,28,-12,-166
59624443,-0.7353515625,-0.42919921875,0.36468505859375,-0.37701416015625,4274,183,2378,29,-14,-171
59634431,-0.74090576171875,-0.43975830078125,0.35565185546875,-0.36224365234375,4196,397,2298,30,-16,-175
59644413,-0.7462158203125,-0.4505615234375,0.34637451171875,-0.34686279296875,4146,630,2223,30,-18,-178
59654394,-0.75103759765625,-0.46142578125,0.33697509765625,-0.3309326171875,4102,889,2140,31,-20,-180
59664372,-0.75543212890625,-0.472412109375,0.32745361328125,-0.3145751953125,4036,1146,2065,33,-23,-183
59674354,-0.7593994140625,-0.4835205078125,0.3177490234375,-0.29766845703125,3956,1403,1982,34,-25,-185
59684337,-0.76287841796875,-0.49468994140625,0.307861328125,-0.2802734375,3869,1668,1891,35,-27,-188
59694319,-0.76593017578125,-0.5059814453125,0.29766845703125,-0.2623291015625,3745,1952,1813,37,-29,-192
59704303,-0.76849365234375,-0.51727294921875,0.28717041015625,-0.2437744140625,3567,2259,1731,37,-30,-195
59714287,-0.7706298828125,-0.528564453125,0.27630615234375,-0.22467041015625,3364,2576,1654,39,-32,-197
59724267,-0.772216796875,-0.53973388671875,0.26519775390625,-0.2052001953125,3137,2887,1564,39,-33,-199
59734250,-0.773193359375,-0.5506591796875,0.25408935546875,-0.1856689453125,2882,3225,1485,40,-33,-195
59744239,-0.7735595703125,-0.56109619140625,0.24310302734375,-0.16650390625,2598,3584,1429,40,-34,-188
59754222,-0.7733154296875,-0.57086181640625,0.2327880859375,-0.1483154296875,2307,3962,1383,40,-34,-174
59764206,-0.77239990234375,-0.57977294921875,0.2235107421875,-0.1317138671875,2004,4338,1383,39,-33,-153
59774184,-0.77099609375,-0.587646484375,0.2158203125,-0.117431640625,1689,4673,1394,38,-33,-126
59784176,-0.76904296875,-0.5943603515625,0.2100830078125,-0.1058349609375,1371,4933,1375,36,-32,-95
59794157,-0.76678466796875,-0.60003662109375,0.20660400390625,-0.09716796875,1055,5133,1339,34,-31,-64
59804136,-0.7642822265625,-0.60467529296875,0.20501708984375,-0.091064453125,758,5299,1322,32,-31,-36
59814110,-0.7615966796875,-0.608642578125,0.2049560546875,-0.08697509765625,499,5449,1311,30,-30,-17
59824092,-0.759033203125,-0.61199951171875,0.20574951171875,-0.08404541015625,287,5583,1324,28,-29,-6
59834071,-0.75653076171875,-0.61505126953125,0.206787109375,-0.08172607421875,117,5713,1343,27,-27,-2
59844055,-0.7542724609375,-0.6177978515625,0.2076416015625,-0.07952880859375,-24,5850,1358,24,-25,-2
59854045,-0.75225830078125,-0.620361328125,0.2081298828125,-0.07733154296875,-117,5984,1391,23,-22,-4
59864024,-0.75054931640625,-0.6226806640625,0.208251953125,-0.0750732421875,-177,6103,1433,20,-19,-5
59874007,-0.74908447265625,-0.62469482421875,0.208251953125,-0.07318115234375,-206,6200,1450,17,-16,-3
59883991,-0.747802734375,-0.62628173828125,0.2083740234375,-0.07196044921875,-197,6284,1455,15,-12,4
59893975,-0.7467041015625,-0.62744140625,0.208984375,-0.07177734375,-179,6367,1425,13,-9,14
59903951,-0.74566650390625,-0.62811279296875,0.210205078125,-0.07281494140625,-147,6416,1386,11,-6,26
59913933,-0.74468994140625,-0.6282958984375,0.2122802734375,-0.0753173828125,-88,6419,1325,9,-3,39
59923915,-0.7437744140625,-0.62786865234375,0.21533203125,-0.079345703125,11,6359,1232,7,-1,55
59933903,-0.7427978515625,-0.62689208984375,0.21942138671875,-0.0849609375,124,6283,1135,6,2,70
59943882,-0.74169921875,-0.62530517578125,0.22454833984375,-0.09222412109375,265,6160,1042,5,4,86
59953864,-0.740478515625,-0.6231689453125,0.230712890625,-0.10101318359375,441,6005,944,4,6,101
59963848,-0.739013671875,-0.6204833984375,0.23785400390625,-0.1112060546875,629,5812,848,4,7,114
59973830,-0.73724365234375,-0.6173095703125,0.245849609375,-0.1226806640625,847,5596,737,4,9,126
59983815,-0.735107421875,-0.61370849609375,0.2545166015625,-0.13525390625,1067,5391,635,4,10,136
59993798,-0.73260498046875,-0.60968017578125,0.26373291015625,-0.148681640625,1305,5197,553,5,11,145
60003781,-0.729736328125,-0.605224609375,0.2733154296875,-0.162841796875,1546,5008,483,5,12,151
60013760,-0.72650146484375,-0.60040283203125,0.28326416015625,-0.1776123046875,1806,4852,412,5,13,157
60023753,-0.722900390625,-0.59515380859375,0.29345703125,-0.19281005859375,2060,4715,354,5,14,163
60033736,-0.71893310546875,-0.58935546875,0.30401611328125,-0.20843505859375,2319,4569,342,4,14,168
60043712,-0.7147216796875,-0.58306884765625,0.31463623046875,-0.22430419921875,2583,4431,343,3,15,170
60056989,-0.71026611328125,-0.57623291015625,0.32525634765625,-0.240234375,2863,4274,339,1,15,172
60063675,-0.70556640625,-0.56903076171875,0.3359375,-0.256103515625,3163,4072,333,-1,15,172
60073656,-0.70062255859375,-0.56121826171875,0.3468017578125,-0.2720947265625,3479,3836,302,-3,15,176
60083639,-0.69525146484375,-0.55279541015625,0.35784912109375,-0.2882080078125,3817,3600,273,-5,16,179
60093622,-0.68951416015625,-0.54364013671875,0.3692626953125,-0.3045654296875,4176,3358,259,-7,15,185
60103603,-0.68316650390625,-0.53363037109375,0.38116455078125,-0.32135009765625,4548,3092,267,-9,15,194
60113587,-0.67620849609375,-0.5225830078125,0.3936767578125,-0.33868408203125,4925,2753,290,-12,14,203
60123569,-0.66851806640625,-0.51068115234375,0.4066162109375,-0.3564453125,5281,2367,271,-13,14,211
60133552,-0.65997314453125,-0.49786376953125,0.41998291015625,-0.37445068359375,5653,1994,263,-14,14,218
60143536,-0.65087890625,-0.48443603515625,0.433349609375,-0.3924560546875,5980,1598,314,-15,13,220
60153517,-0.64129638671875,-0.470458984375,0.4464111328125,-0.41015625,6277,1120,369,-16,13,220
60163500,-0.6312255859375,-0.45611572265625,0.45928955078125,-0.4273681640625,6597,630,400,-17,13,218
60173483,-0.6207275390625,-0.44140625,0.4718017578125,-0.4442138671875,6902,145,450,-17,12,217
60183464,-0.6097412109375,-0.42645263671875,0.4840087890625,-0.46063232421875,7160,-292,515,-17,11,217
60193447,-0.5985107421875,-0.41143798828125,0.49566650390625,-0.476318359375,7336,-666,614,-17,10,211
60203425,-0.58734130859375,-0.3968505859375,0.506591796875,-0.4908447265625,7414,-1082,688,-17,8,200
60213419,-0.57659912109375,-0.3829345703125,0.5167236328125,-0.50396728515625,7512,-1538,756,-17,6,185
60223401,-0.56634521484375,-0.3697509765625,0.52593994140625,-0.5157470703125,7645,-1973,848,-18,4,170
60233384,-0.55645751953125,-0.35711669921875,0.53466796875,-0.52630615234375,7815,-2380,929,-19,3,161
60243361,-0.5465087890625,-0.34466552734375,0.54315185546875,-0.5362548828125,7962,-2701,1024,-20,1,159
60253346,-0.53643798828125,-0.33221435546875,0.551513671875,-0.545654296875,8047,-2933,1127,-22,-1,159
60263322,-0.5262451171875,-0.31976318359375,0.55975341796875,-0.5545654296875,8103,-3199,1199,-23,-4,157
60273307,-0.51611328125,-0.3076171875,0.56781005859375,-0.56268310546875,8122,-3466,1249,-25,-5,150
60283288,-0.50640869140625,-0.29595947265625,0.57550048828125,-0.56988525390625,8130,-3707,1311,-27,-7,141
60293272,-0.497314453125,-0.2850341796875,0.582763671875,-0.5760498046875,8152,-3947,1375,-29,-8,130
60303255,-0.4888916015625,-0.27471923828125,0.589599609375,-0.581298828125,8133,-4123,1463,-30,-9,120
60313233,-0.48114013671875,-0.26495361328125,0.5960693359375,-0.585693359375,8097,-4356,1518,-32,-9,111
60323224,-0.4735107421875,-0.25537109375,0.6024169921875,-0.58966064453125,8075,-4689,1508,-33,-9,108
60333210,-0.46563720703125,-0.24566650390625,0.60882568359375,-0.593505859375,8074,-5049,1489,-34,-10,110
60343189,-0.45721435546875,-0.2354736328125,0.61529541015625,-0.597412109375,8087,-5385,1471,-34,-11,116
60353181,-0.44818115234375,-0.22479248046875,0.62188720703125,-0.6015625,8082,-5635,1451,-34,-11,124
60363168,-0.438720703125,-0.2137451171875,0.62841796875,-0.6058349609375,8033,-5744,1463,-35,-11,129
60373147,-0.42919921875,-0.2025146484375,0.63470458984375,-0.60986328125,7942,-5821,1508,-36,-10,129
60383118,-0.41998291015625,-0.19122314453125,0.6407470703125,-0.61358642578125,7821,-5982,1522,-37,-9,126
60393102,-0.41107177734375,-0.1800537109375,0.64654541015625,-0.616943359375,7683,-6310,1477,-38,-7,120
60403084,-0.40252685546875,-0.1690673828125,0.652099609375,-0.61981201171875,7540,-6647,1369,-38,-6,114
60413066,-0.39434814453125,-0.1585693359375,0.65740966796875,-0.62225341796875,7390,-6897,1256,-37,-5,108
60423048,-0.38665771484375,-0.14874267578125,0.6622314453125,-0.62432861328125,7243,-7112,1149,-36,-5,100
60433033,-0.3795166015625,-0.1396484375,0.666748046875,-0.62603759765625,7103,-7283,1061,-34,-5,93
60443014,-0.37310791015625,-0.13140869140625,0.6707763671875,-0.6273193359375,6957,-7430,1003,-32,-5,82
60452997,-0.36749267578125,-0.12396240234375,0.67437744140625,-0.62835693359375,6812,-7679,932,-30,-3,72
60462986,-0.36236572265625,-0.11712646484375,0.67755126953125,-0.62921142578125,6703,-7968,838,-27,-2,65
60472968,-0.35760498046875,-0.11065673828125,0.680419921875,-0.6300048828125,6596,-8225,725,-24,-1,62
60482951,-0.35284423828125,-0.10430908203125,0.68292236328125,-0.63104248046875,6503,-8436,607,-21,0,62
60492930,-0.34783935546875,-0.09783935546875,0.685302734375,-0.63232421875,6391,-8534,512,-18,0,66
60502913,-0.3426513671875,-0.09136962890625,0.687255859375,-0.63397216796875,6276,-8461,481,-15,0,69
60512895,-0.33758544921875,-0.0850830078125,0.68890380859375,-0.63580322265625,6139,-8315,495,-12,0,68
60522879,-0.3328857421875,-0.0791015625,0.69024658203125,-0.6375732421875,5983,-8134,543,-11,1,63
60532860,-0.3287353515625,-0.0736083984375,0.69122314453125,-0.6392822265625,5833,-8051,583,-10,3,58
60542843,-0.3250732421875,-0.06829833984375,0.69207763671875,-0.640869140625,5696,-8116,524,-8,5,53
60552825,-0.32147216796875,-0.06304931640625,0.69281005859375,-0.64239501953125,5597,-8193,415,-7,6,54
60562810,-0.31756591796875,-0.05743408203125,0.6934814453125,-0.6441650390625,5470,-8220,305,-6,7,59
60572791,-0.31329345703125,-0.05133056640625,0.69403076171875,-0.64617919921875,5341,-8153,231,-5,7,64
60582778,-0.3087158203125,-0.04498291015625,0.69451904296875,-0.64837646484375,5157,-7963,196,-4,7,68
60592763,-0.30413818359375,-0.03857421875,0.69488525390625,-0.6505126953125,4953,-7683,208,-4,7,67
60602747,-0.30010986328125,-0.03265380859375,0.69512939453125,-0.65240478515625,4741,-7340,265,-5,8,61
60612727,-0.296875,-0.02734375,0.6953125,-0.65399169921875,4512,-7032,333,-6,9,52
60622703,-0.29443359375,-0.02252197265625,0.6954345703125,-0.6551513671875,4296,-6842,364,-7,11,43
60632685,-0.29248046875,-0.01800537109375,0.69561767578125,-0.65594482421875,4100,-6786,323,-8,13,38
60642669,-0.2906494140625,-0.01336669921875,0.6959228515625,-0.65655517578125,3938,-6821,264,-9,14,39
60652653,-0.288330078125,-0.00811767578125,0.69635009765625,-0.6572265625,3796,-6926,173,-11,14,46
60662636,-0.28509521484375,-0.00201416015625,0.6968994140625,-0.6580810546875,3666,-7063,86,-12,14,57
60672618,-0.281005859375,0.00506591796875,0.697509765625,-0.6591796875,3537,-7166,7,-13,13,67
60682600,-0.27618408203125,0.01287841796875,0.6981201171875,-0.66046142578125,3388,-7232,-53,-14,13,75
60692582,-0.27093505859375,0.02105712890625,0.69879150390625,-0.6617431640625,3212,-7324,-97,-15,13,78
60702567,-0.265625,0.02935791015625,0.699462890625,-0.662841796875,3045,-7504,-194,-16,13,77
60712547,-0.2603759765625,0.03753662109375,0.7001953125,-0.6636962890625,2925,-7748,-324,-16,13,76
60722536,-0.255126953125,0.045654296875,0.700927734375,-0.66448974609375,2826,-8009,-437,-16,13,76
60732517,-0.24969482421875,0.0538330078125,0.70166015625,-0.6651611328125,2734,-8285,-544,-16,12,78
60742501,-0.243896484375,0.062255859375,0.70233154296875,-0.6658935546875,2640,-8562,-619,-16,11,81
60752484,-0.23773193359375,0.0709228515625,0.702880859375,-0.6666259765625,2511,-8813,-661,-16,10,84
60762466,-0.23138427734375,0.0794677734375,0.703369140625,-0.6673583984375,2397,-8992,-660,-17,9,84
60772450,-0.22528076171875,0.08782958984375,0.70379638671875,-0.66796875,2270,-9132,-629,-17,9,81
60782430,-0.21954345703125,0.0955810546875,0.7042236328125,-0.6683349609375,2129,-9248,-616,-17,8,74
60792420,-0.2144775390625,0.1025390625,0.7047119140625,-0.66851806640625,2009,-9355,-587,-17,7,65
60802403,-0.2100830078125,0.108642578125,0.7052001953125,-0.66839599609375,1908,-9476,-584,-16,7,57
60812386,-0.206298828125,0.1138916015625,0.7056884765625,-0.66815185546875,1836,-9577,-561,-16,6,48
60822362,-0.203125,0.11834716796875,0.70623779296875,-0.66778564453125,1757,-9590,-516,-15,5,41
60832344,-0.2005615234375,0.1220703125,0.706787109375,-0.6673583984375,1677,-9556,-440,-14,4,33
60842328,-0.1986083984375,0.1248779296875,0.70733642578125,-0.666748046875,1613,-9473,-358,-14,3,24
60852310,-0.19732666015625,0.12689208984375,0.70794677734375,-0.6661376953125,1534,-9365,-248,-13,2,15
60862293,-0.19671630859375,0.1280517578125,0.70867919921875,-0.66534423828125,1473,-9237,-157,-12,1,7
60872270,-0.19659423828125,0.1285400390625,0.7093505859375,-0.66455078125,1415,-9093,-65,-12,1,0
60882253,-0.1968994140625,0.12847900390625,0.7100830078125,-0.6636962890625,1383,-8954,12,-11,0,-4
60892231,-0.197265625,0.12811279296875,0.7108154296875,-0.66290283203125,1344,-8809,78,-10,-1,-5
60902220,-0.197509765625,0.12774658203125,0.71142578125,-0.6622314453125,1318,-8666,141,-9,-2,-4
60912203,-0.19757080078125,0.12744140625,0.71197509765625,-0.66168212890625,1324,-8525,198,-9,-2,-2
60922186,-0.19732666015625,0.12738037109375,0.71240234375,-0.66131591796875,1330,-8421,254,-8,-3,3
60932175,-0.1966552734375,0.12774658203125,0.71270751953125,-0.6611328125,1323,-8368,294,-7,-4,7
60942159,-0.19561767578125,0.12835693359375,0.712890625,-0.66107177734375,1299,-8346,307,-7,-4,11
60952140,-0.19439697265625,0.12921142578125,0.71295166015625,-0.66119384765625,1261,-8349,314,-6,-4,13
60962116,-0.19305419921875,0.130126953125,0.71295166015625,-0.66143798828125,1232,-8357,281,-4,-4,14
60972101,-0.19171142578125,0.131103515625,0.712890625,-0.6617431640625,1201,-8374,257,-3,-4,14
60982083,-0.19049072265625,0.1319580078125,0.71270751953125,-0.662109375,1177,-8399,233,-2,-4,13
60992060,-0.1893310546875,0.1326904296875,0.71246337890625,-0.66253662109375,1148,-8441,192,-1,-3,11
61002046,-0.1884765625,0.13323974609375,0.712158203125,-0.66302490234375,1114,-8476,152,0,-3,9
61012027,-0.187744140625,0.1336669921875,0.7117919921875,-0.66351318359375,1091,-8514,92,1,-2,7
61022011,-0.18719482421875,0.134033203125,0.71142578125,-0.66400146484375,1064,-8552,34,2,-2,7
61031992,-0.186767578125,0.13433837890625,0.71099853515625,-0.66448974609375,1034,-8574,-29,3,-1,5
61041981,-0.18634033203125,0.1346435546875,0.71051025390625,-0.6650390625,1007,-8594,-97,4,-1,5
61051961,-0.18603515625,0.135009765625,0.70989990234375,-0.66571044921875,980,-8614,-139,5,0,6
61061943,-0.18560791015625,0.13568115234375,0.70928955078125,-0.6663818359375,944,-8637,-196,6,1,8
61071926,-0.18505859375,0.13653564453125,0.70849609375,-0.66717529296875,915,-8641,-245,6,2,11
61081907,-0.1844482421875,0.13763427734375,0.7076416015625,-0.66802978515625,911,-8617,-288,7,2,13
61091890,-0.1837158203125,0.138916015625,0.70672607421875,-0.6689453125,885,-8580,-327,8,3,15
61101873,-0.18292236328125,0.140380859375,0.7056884765625,-0.66998291015625,859,-8516,-352,8,4,16
61111857,-0.18218994140625,0.14190673828125,0.70465087890625,-0.67095947265625,831,-8442,-373,8,4,15
61121838,-0.181640625,0.14337158203125,0.70355224609375,-0.671875,809,-8364,-382,9,5,14
61131822,-0.181396484375,0.14471435546875,0.7025146484375,-0.67279052734375,771,-8281,-377,9,6,11
61141804,-0.1815185546875,0.14581298828125,0.70147705078125,-0.673583984375,749,-8205,-353,9,7,8
61151786,-0.18194580078125,0.146728515625,0.700439453125,-0.67437744140625,702,-8121,-329,9,8,4
61161766,-0.1827392578125,0.1474609375,0.699462890625,-0.67498779296875,651,-8059,-299,9,9,1
61171753,-0.1837158203125,0.14813232421875,0.698486328125,-0.67559814453125,600,-7991,-270,8,10,0
61181735,-0.18475341796875,0.14886474609375,0.69757080078125,-0.67608642578125,551,-7931,-263,8,11,0
61191712,-0.185791015625,0.1497802734375,0.69659423828125,-0.6766357421875,517,-7874,-266,8,11,1
61201699,-0.1866455078125,0.15093994140625,0.69561767578125,-0.6771240234375,485,-7837,-289,8,12,4
61211683,-0.18719482421875,0.1524658203125,0.694580078125,-0.67767333984375,474,-7825,-315,8,12,8
61221667,-0.18743896484375,0.15435791015625,0.6934814453125,-0.67828369140625,463,-7812,-341,7,12,12
61231649,-0.1873779296875,0.1566162109375,0.69232177734375,-0.678955078125,437,-7804,-351,8,13,16
61241632,-0.18707275390625,0.15911865234375,0.691162109375,-0.6796875,410,-7797,-354,7,13,19
61251616,-0.1866455078125,0.16180419921875,0.68994140625,-0.680419921875,377,-7801,-357,7,13,20
61261598,-0.18621826171875,0.16461181640625,0.688720703125,-0.68109130859375,323,-7800,-350,6,14,20
61271581,-0.18585205078125,0.1673583984375,0.68756103515625,-0.68170166015625,279,-7818,-340,6,14,19
61281564,-0.185546875,0.1700439453125,0.68646240234375,-0.68218994140625,220,-7830,-335,5,14,18
61291548,-0.18536376953125,0.1727294921875,0.6854248046875,-0.6826171875,175,-7828,-332,5,14,17
61301530,-0.1851806640625,0.17529296875,0.6844482421875,-0.6829833984375,132,-7815,-328,4,14,16
61311514,-0.18511962890625,0.17791748046875,0.68353271484375,-0.68328857421875,85,-7796,-314,3,15,16
61321495,-0.18499755859375,0.18048095703125,0.68267822265625,-0.6834716796875,46,-7783,-306,2,15,16
61331478,-0.18499755859375,0.18304443359375,0.68194580078125,-0.68359375,-14,-7740,-299,2,15,14
61341460,-0.1849365234375,0.185546875,0.6812744140625,-0.68359375,-68,-7741,-314,1,14,14
61351443,-0.18487548828125,0.18804931640625,0.6806640625,-0.68353271484375,-128,-7744,-307,0,14,14
61361432,-0.18475341796875,0.1905517578125,0.68011474609375,-0.683349609375,-188,-7763,-314,-1,14,14
61371413,-0.18450927734375,0.193115234375,0.6796875,-0.68310546875,-244,-7793,-313,-2,13,15
61381395,-0.18414306640625,0.19573974609375,0.6793212890625,-0.682861328125,-286,-7811,-318,-4,13,16
61391371,-0.18359375,0.19842529296875,0.6790771484375,-0.6824951171875,-335,-7848,-324,-5,12,16
61401353,-0.18304443359375,0.20111083984375,0.6788330078125,-0.68206787109375,-365,-7855,-324,-6,12,16
61411336,-0.18243408203125,0.20367431640625,0.67877197265625,-0.68157958984375,-395,-7856,-325,-7,11,15
61421319,-0.181884765625,0.20611572265625,0.67877197265625,-0.68096923828125,-422,-7868,-319,-8,11,13
61431302,-0.1815185546875,0.20831298828125,0.678955078125,-0.68023681640625,-449,-7866,-303,-8,11,11
61441287,-0.18133544921875,0.210205078125,0.67919921875,-0.679443359375,-488,-7863,-266,-9,10,8
