subject,Ian Lake
arm,right
label,0
hz,100.17201891578627
time,5.560435

timestamp_us,q0,q1,q2,q3,ax,ay,az,gx,gy,gz
503527533,-0.03460693359375,-0.70947265625,-0.19927978515625,0.67510986328125,-8269,-1473,-515,-19,-24,-1
503537519,-0.0374755859375,-0.70751953125,-0.2000732421875,0.6767578125,-8229,-1533,-523,-20,-25,9
503547500,-0.04107666015625,-0.70562744140625,-0.20037841796875,0.678466796875,-8199,-1582,-538,-21,-27,15
503557484,-0.0450439453125,-0.7037353515625,-0.20037841796875,0.68011474609375,-8162,-1624,-556,-21,-27,19
503567472,-0.04931640625,-0.70184326171875,-0.20025634765625,0.68182373046875,-8120,-1643,-577,-22,-28,20
503577456,-0.05352783203125,-0.69989013671875,-0.2003173828125,0.68353271484375,-8079,-1653,-601,-23,-29,18
503587437,-0.0574951171875,-0.69781494140625,-0.20068359375,0.6851806640625,-8017,-1646,-624,-24,-29,15
503597414,-0.06109619140625,-0.695556640625,-0.2015380859375,0.6868896484375,-7944,-1655,-645,-24,-29,10
503607399,-0.06427001953125,-0.6932373046875,-0.202880859375,0.6885986328125,-7897,-1675,-664,-25,-29,4
503617385,-0.06695556640625,-0.69073486328125,-0.204833984375,0.69024658203125,-7838,-1698,-673,-25,-29,-2
503627362,-0.069091796875,-0.68817138671875,-0.207275390625,0.69189453125,-7771,-1720,-700,-25,-29,-8
503637343,-0.07080078125,-0.6854248046875,-0.210205078125,0.69354248046875,-7717,-1742,-713,-25,-28,-13
503647327,-0.0721435546875,-0.6826171875,-0.2135009765625,0.69512939453125,-7666,-1770,-704,-25,-28,-17
503657313,-0.0732421875,-0.6798095703125,-0.217041015625,0.69671630859375,-7621,-1797,-684,-25,-27,-19
503667294,-0.07415771484375,-0.677001953125,-0.22064208984375,0.6982421875,-7596,-1851,-670,-25,-26,-20
503677275,-0.0750732421875,-0.6741943359375,-0.2242431640625,0.69964599609375,-7599,-1917,-660,-25,-26,-19
503687267,-0.07598876953125,-0.6715087890625,-0.227783203125,0.7010498046875,-7609,-1974,-643,-24,-25,-19
503697248,-0.076904296875,-0.6688232421875,-0.231201171875,0.702392578125,-7604,-2020,-621,-24,-25,-18
503707240,-0.0777587890625,-0.666259765625,-0.23455810546875,0.70361328125,-7613,-2058,-592,-23,-23,-18
503717225,-0.07861328125,-0.66375732421875,-0.23779296875,0.70477294921875,-7619,-2094,-563,-22,-22,-18
503727208,-0.079345703125,-0.661376953125,-0.240966796875,0.705810546875,-7606,-2122,-530,-22,-21,-17
503737191,-0.080078125,-0.65911865234375,-0.24407958984375,0.706787109375,-7585,-2151,-487,-21,-20,-17
503747161,-0.08074951171875,-0.65704345703125,-0.2470703125,0.7076416015625,-7563,-2187,-452,-20,-18,-16
503757144,-0.0814208984375,-0.6551513671875,-0.2498779296875,0.7083740234375,-7516,-2206,-401,-20,-16,-14
503767128,-0.0821533203125,-0.6534423828125,-0.25250244140625,0.70892333984375,-7455,-2224,-347,-19,-14,-12
503777109,-0.0830078125,-0.6519775390625,-0.2548828125,0.70928955078125,-7400,-2239,-296,-18,-12,-10
503787093,-0.0838623046875,-0.6507568359375,-0.25701904296875,0.70953369140625,-7358,-2276,-258,-18,-10,-7
503797074,-0.08477783203125,-0.6497802734375,-0.25897216796875,0.7095947265625,-7337,-2314,-225,-17,-8,-5
503807058,-0.0858154296875,-0.64910888671875,-0.2607421875,0.70947265625,-7328,-2371,-225,-16,-6,-3
503817038,-0.0867919921875,-0.648681640625,-0.26226806640625,0.70916748046875,-7365,-2444,-225,-15,-3,-1
503827029,-0.08782958984375,-0.64849853515625,-0.26361083984375,0.70867919921875,-7420,-2532,-243,-14,-1,1
503837014,-0.0888671875,-0.6485595703125,-0.26483154296875,0.70806884765625,-7459,-2569,-255,-13,1,2
503846988,-0.08966064453125,-0.6488037109375,-0.2659912109375,0.70733642578125,-7472,-2572,-270,-12,3,1
503856974,-0.090087890625,-0.64910888671875,-0.2672119140625,0.70648193359375,-7467,-2548,-298,-11,5,-2
503866950,-0.0902099609375,-0.6495361328125,-0.2685546875,0.70556640625,-7466,-2499,-306,-10,6,-4
503876934,-0.09002685546875,-0.6500244140625,-0.27001953125,0.70465087890625,-7496,-2473,-326,-8,7,-7
503886919,-0.08941650390625,-0.6505126953125,-0.271484375,0.70367431640625,-7521,-2459,-299,-7,9,-10
503896903,-0.08843994140625,-0.65093994140625,-0.2730712890625,0.7027587890625,-7569,-2470,-307,-5,9,-12
503906884,-0.08721923828125,-0.6514892578125,-0.27459716796875,0.7017822265625,-7629,-2494,-306,-4,11,-13
503916867,-0.0858154296875,-0.652099609375,-0.27606201171875,0.70086669921875,-7687,-2538,-308,-2,11,-13
503926848,-0.08428955078125,-0.65277099609375,-0.27740478515625,0.69989013671875,-7776,-2574,-334,-1,11,-13
503936834,-0.08270263671875,-0.6534423828125,-0.27850341796875,0.69903564453125,-7854,-2612,-351,1,11,-12
503946819,-0.0810546875,-0.65411376953125,-0.27947998046875,0.69818115234375,-7919,-2641,-337,2,11,-12
503956803,-0.0794677734375,-0.6549072265625,-0.2801513671875,0.6973876953125,-7982,-2643,-348,4,11,-9
503966789,-0.0780029296875,-0.65576171875,-0.28045654296875,0.69659423828125,-8024,-2641,-350,5,11,-7
503976770,-0.07672119140625,-0.6566162109375,-0.28045654296875,0.6959228515625,-8065,-2616,-330,6,10,-4
503986745,-0.07562255859375,-0.65753173828125,-0.28021240234375,0.6953125,-8090,-2596,-314,6,10,-2
503996733,-0.07470703125,-0.65850830078125,-0.2796630859375,0.6947021484375,-8109,-2573,-308,7,9,0
504006711,-0.07391357421875,-0.659423828125,-0.27886962890625,0.6942138671875,-8119,-2559,-315,8,8,2
504016693,-0.0732421875,-0.66033935546875,-0.27801513671875,0.69378662109375,-8124,-2566,-318,8,8,3
504026678,-0.072509765625,-0.66119384765625,-0.277099609375,0.693359375,-8157,-2565,-308,8,7,3
504036658,-0.07177734375,-0.66192626953125,-0.27618408203125,0.693115234375,-8163,-2549,-291,9,6,2
504046642,-0.07098388671875,-0.66259765625,-0.27532958984375,0.69293212890625,-8177,-2539,-280,9,5,1
504056626,-0.0699462890625,-0.66302490234375,-0.274658203125,0.69287109375,-8206,-2538,-260,9,4,-2
504066606,-0.06884765625,-0.66339111328125,-0.27410888671875,0.69287109375,-8214,-2530,-255,9,3,-4
504076590,-0.06744384765625,-0.66351318359375,-0.27386474609375,0.69293212890625,-8208,-2526,-251,9,3,-7
504086577,-0.06585693359375,-0.66357421875,-0.2738037109375,0.693115234375,-8184,-2531,-255,9,2,-9
504096553,-0.064208984375,-0.66351318359375,-0.27386474609375,0.69329833984375,-8159,-2540,-247,9,2,-11
504106540,-0.0625,-0.66339111328125,-0.27398681640625,0.69354248046875,-8138,-2560,-250,8,2,-11
504116524,-0.06085205078125,-0.6632080078125,-0.27410888671875,0.69378662109375,-8091,-2570,-239,8,1,-10
504126506,-0.059326171875,-0.6630859375,-0.274169921875,0.6939697265625,-8041,-2562,-231,8,1,-9
504136490,-0.0579833984375,-0.66302490234375,-0.274169921875,0.6942138671875,-7998,-2553,-236,8,1,-8
504146469,-0.05682373046875,-0.66290283203125,-0.2740478515625,0.69439697265625,-7971,-2548,-235,7,0,-7
504156459,-0.0556640625,-0.66290283203125,-0.27392578125,0.694580078125,-7930,-2544,-244,6,1,-6
504166444,-0.0545654296875,-0.662841796875,-0.27392578125,0.6947021484375,-7893,-2542,-250,6,1,-7
504176425,-0.053466796875,-0.6627197265625,-0.27398681640625,0.69488525390625,-7862,-2543,-228,5,1,-8
504186403,-0.05224609375,-0.66265869140625,-0.27410888671875,0.69500732421875,-7834,-2543,-221,5,2,-8
504196386,-0.051025390625,-0.66259765625,-0.2742919921875,0.695068359375,-7806,-2563,-224,5,2,-9
504206367,-0.04974365234375,-0.66259765625,-0.2745361328125,0.695068359375,-7789,-2583,-218,5,2,-9
504216351,-0.04852294921875,-0.66259765625,-0.27471923828125,0.695068359375,-7783,-2605,-227,5,2,-8
504226335,-0.04730224609375,-0.66265869140625,-0.27484130859375,0.695068359375,-7760,-2632,-232,5,3,-7
504236317,-0.0462646484375,-0.66278076171875,-0.27490234375,0.69500732421875,-7752,-2650,-240,5,3,-6
504246301,-0.0452880859375,-0.6629638671875,-0.2747802734375,0.6949462890625,-7744,-2663,-236,5,3,-4
504256280,-0.04437255859375,-0.6632080078125,-0.27459716796875,0.69482421875,-7733,-2665,-242,5,3,-4
504266271,-0.04351806640625,-0.6634521484375,-0.2744140625,0.6947021484375,-7740,-2672,-240,5,3,-3
504276254,-0.04278564453125,-0.66375732421875,-0.27423095703125,0.69451904296875,-7753,-2669,-236,5,4,-3
504286240,-0.04205322265625,-0.6640625,-0.27398681640625,0.69439697265625,-7767,-2640,-235,4,3,-3
504296227,-0.04144287109375,-0.66436767578125,-0.27374267578125,0.69427490234375,-7771,-2623,-221,4,3,-2
504306208,-0.0408935546875,-0.6646728515625,-0.27349853515625,0.694091796875,-7757,-2612,-213,3,4,-1
504316191,-0.04046630859375,-0.66497802734375,-0.273193359375,0.6939697265625,-7768,-2597,-189,3,3,-1
504326162,-0.04010009765625,-0.66522216796875,-0.27301025390625,0.69378662109375,-7781,-2598,-188,2,3,-1
504336147,-0.03973388671875,-0.6654052734375,-0.27288818359375,0.69366455078125,-7805,-2613,-197,2,2,-2
504346128,-0.03936767578125,-0.66558837890625,-0.27294921875,0.6934814453125,-7842,-2618,-218,1,2,-3
504356115,-0.03887939453125,-0.6656494140625,-0.27313232421875,0.693359375,-7880,-2641,-210,1,2,-5
504366093,-0.038330078125,-0.6656494140625,-0.27349853515625,0.69329833984375,-7907,-2664,-214,0,1,-6
504376076,-0.0377197265625,-0.66552734375,-0.27398681640625,0.6932373046875,-7925,-2694,-225,0,1,-7
504386058,-0.0369873046875,-0.66534423828125,-0.2745361328125,0.6932373046875,-7944,-2732,-220,0,0,-9
504399030,-0.0362548828125,-0.66510009765625,-0.275146484375,0.69329833984375,-7970,-2773,-206,0,0,-8
504406030,-0.0355224609375,-0.664794921875,-0.275634765625,0.69342041015625,-7986,-2817,-220,0,-1,-8
504416011,-0.034912109375,-0.6644287109375,-0.27606201171875,0.693603515625,-8005,-2845,-212,1,-2,-7
504425989,-0.0343017578125,-0.66412353515625,-0.2763671875,0.69378662109375,-8013,-2872,-214,2,-2,-6
504435974,-0.03375244140625,-0.663818359375,-0.2764892578125,0.694091796875,-8018,-2891,-208,2,-3,-5
504445960,-0.033203125,-0.6634521484375,-0.27655029296875,0.6944580078125,-7998,-2901,-213,3,-3,-4
504455938,-0.03271484375,-0.6630859375,-0.276611328125,0.69482421875,-7943,-2891,-211,3,-3,-4
504465924,-0.03228759765625,-0.66278076171875,-0.27655029296875,0.6951904296875,-7904,-2867,-223,3,-3,-4
504475906,-0.03179931640625,-0.66241455078125,-0.27642822265625,0.695556640625,-7861,-2842,-219,3,-3,-4
504485889,-0.03143310546875,-0.66204833984375,-0.2763671875,0.6959228515625,-7820,-2824,-220,3,-4,-3
504495873,-0.03106689453125,-0.6617431640625,-0.2762451171875,0.6962890625,-7772,-2807,-221,3,-3,-3
504505855,-0.03076171875,-0.6614990234375,-0.276123046875,0.6966552734375,-7748,-2802,-215,3,-3,-2
504515837,-0.030517578125,-0.66119384765625,-0.2760009765625,0.69696044921875,-7721,-2794,-217,2,-3,-2
504525819,-0.0302734375,-0.66094970703125,-0.27593994140625,0.69720458984375,-7703,-2802,-229,2,-3,-2
504535800,-0.03009033203125,-0.66070556640625,-0.27593994140625,0.69744873046875,-7682,-2796,-246,1,-3,-2
504545793,-0.02984619140625,-0.66046142578125,-0.27593994140625,0.69769287109375,-7666,-2801,-249,1,-3,-3
504555774,-0.02960205078125,-0.6602783203125,-0.27606201171875,0.6978759765625,-7650,-2811,-255,1,-2,-3
504565752,-0.02935791015625,-0.65997314453125,-0.2762451171875,0.69805908203125,-7654,-2815,-251,0,-3,-4
504575734,-0.0289306640625,-0.65966796875,-0.27655029296875,0.6982421875,-7665,-2822,-259,0,-2,-5
504585717,-0.028564453125,-0.65936279296875,-0.27685546875,0.69842529296875,-7688,-2842,-271,0,-3,-6
504595700,-0.02813720703125,-0.6590576171875,-0.27716064453125,0.6986083984375,-7712,-2857,-285,1,-3,-5
504605681,-0.02783203125,-0.65875244140625,-0.27740478515625,0.69879150390625,-7728,-2884,-290,0,-3,-4
504615670,-0.027587890625,-0.65850830078125,-0.27764892578125,0.698974609375,-7735,-2892,-284,0,-3,-3
504625648,-0.02734375,-0.658203125,-0.27777099609375,0.69921875,-7728,-2896,-281,1,-3,-3
504635632,-0.02716064453125,-0.65789794921875,-0.27783203125,0.699462890625,-7714,-2895,-270,1,-4,-3
504645615,-0.02685546875,-0.65753173828125,-0.2779541015625,0.69976806640625,-7689,-2904,-251,1,-3,-4
504655597,-0.0264892578125,-0.6572265625,-0.27813720703125,0.70001220703125,-7662,-2888,-233,1,-3,-4
504665580,-0.026123046875,-0.6568603515625,-0.27838134765625,0.70025634765625,-7636,-2869,-213,1,-3,-5
504675562,-0.02569580078125,-0.65655517578125,-0.278564453125,0.70050048828125,-7609,-2851,-199,1,-2,-5
504685545,-0.0252685546875,-0.65631103515625,-0.2786865234375,0.70068359375,-7578,-2847,-192,1,-2,-4
504695528,-0.02490234375,-0.6561279296875,-0.27880859375,0.70086669921875,-7553,-2845,-180,2,-2,-4
504705511,-0.0245361328125,-0.65594482421875,-0.27886962890625,0.70098876953125,-7530,-2845,-153,1,-1,-3
504715493,-0.02423095703125,-0.65582275390625,-0.27886962890625,0.70111083984375,-7525,-2846,-143,1,-1,-3
504725483,-0.0238037109375,-0.65576171875,-0.2789306640625,0.701171875,-7531,-2862,-137,2,0,-3
504735467,-0.0234375,-0.65570068359375,-0.279052734375,0.701171875,-7553,-2873,-133,1,0,-4
504745451,-0.02301025390625,-0.65570068359375,-0.27911376953125,0.701171875,-7589,-2896,-148,1,0,-3
504755433,-0.02264404296875,-0.65570068359375,-0.2791748046875,0.701171875,-7617,-2901,-157,1,1,-3
504765407,-0.0224609375,-0.65576171875,-0.27911376953125,0.70111083984375,-7640,-2892,-157,1,1,-1
504775393,-0.0224609375,-0.65594482421875,-0.2789306640625,0.7010498046875,-7643,-2879,-161,1,0,1
504785374,-0.02264404296875,-0.6561279296875,-0.27862548828125,0.70098876953125,-7664,-2872,-166,0,0,2
504795359,-0.02288818359375,-0.65631103515625,-0.2781982421875,0.70098876953125,-7684,-2867,-155,0,0,3
504805339,-0.023193359375,-0.656494140625,-0.27783203125,0.700927734375,-7696,-2861,-161,0,0,3
504815327,-0.02337646484375,-0.6566162109375,-0.27752685546875,0.700927734375,-7712,-2858,-172,0,0,2
504825306,-0.0234375,-0.65667724609375,-0.2774658203125,0.70086669921875,-7710,-2866,-154,0,0,0
504835290,-0.02337646484375,-0.65667724609375,-0.2774658203125,0.70086669921875,-7726,-2867,-151,0,0,-2
504845276,-0.023193359375,-0.65667724609375,-0.277587890625,0.70086669921875,-7705,-2874,-149,0,0,-3
504855260,-0.0230712890625,-0.65655517578125,-0.2777099609375,0.700927734375,-7701,-2861,-133,-1,-1,-3
504865243,-0.02288818359375,-0.65643310546875,-0.27789306640625,0.70098876953125,-7685,-2862,-141,0,-1,-3
504875226,-0.022705078125,-0.65631103515625,-0.278076171875,0.7010498046875,-7668,-2852,-129,0,-1,-3
504885220,-0.02252197265625,-0.6561279296875,-0.27825927734375,0.70111083984375,-7660,-2863,-128,0,-2,-3
504895199,-0.0223388671875,-0.65594482421875,-0.27850341796875,0.70123291015625,-7646,-2873,-130,0,-2,-4
504905175,-0.02203369140625,-0.65576171875,-0.27880859375,0.7012939453125,-7648,-2888,-136,0,-1,-5
504915144,-0.0216064453125,-0.65545654296875,-0.27923583984375,0.70135498046875,-7648,-2903,-135,-1,-1,-6
504925128,-0.0211181640625,-0.6551513671875,-0.27972412109375,0.70147705078125,-7662,-2930,-153,0,-2,-7
504935117,-0.0205078125,-0.65484619140625,-0.2802734375,0.7015380859375,-7679,-2963,-173,0,-2,-8
504945101,-0.01995849609375,-0.654541015625,-0.2808837890625,0.70159912109375,-7690,-3002,-187,0,-2,-7
504955085,-0.01947021484375,-0.654296875,-0.2813720703125,0.70166015625,-7705,-3029,-223,-1,-2,-6
504965067,-0.01904296875,-0.65411376953125,-0.28179931640625,0.70172119140625,-7708,-3051,-247,0,-2,-5
504975048,-0.01885986328125,-0.65399169921875,-0.281982421875,0.70172119140625,-7685,-3059,-271,0,-1,-2
504985035,-0.018798828125,-0.65399169921875,-0.28192138671875,0.7017822265625,-7649,-3051,-288,1,-1,0
504995018,-0.0189208984375,-0.654052734375,-0.28167724609375,0.7017822265625,-7618,-3023,-292,1,-1,2
505004995,-0.0191650390625,-0.65423583984375,-0.28125,0.7017822265625,-7591,-2998,-300,1,-1,3
505014979,-0.0194091796875,-0.6544189453125,-0.28082275390625,0.7017822265625,-7563,-2974,-285,1,-1,4
505024962,-0.01971435546875,-0.65460205078125,-0.2803955078125,0.7017822265625,-7548,-2968,-280,1,-1,4
505034946,-0.01995849609375,-0.65478515625,-0.280029296875,0.70172119140625,-7545,-2958,-266,0,0,3
505044927,-0.0201416015625,-0.655029296875,-0.27978515625,0.70166015625,-7544,-2964,-264,0,0,2
505054912,-0.02032470703125,-0.65521240234375,-0.279541015625,0.7015380859375,-7563,-2967,-262,0,1,2
505064895,-0.02044677734375,-0.65545654296875,-0.2794189453125,0.70135498046875,-7554,-2960,-250,-1,1,2
505074875,-0.0206298828125,-0.65570068359375,-0.27923583984375,0.70123291015625,-7539,-2948,-229,-1,1,2
505084862,-0.02081298828125,-0.65594482421875,-0.27899169921875,0.7010498046875,-7524,-2909,-215,0,1,2
505094844,-0.02105712890625,-0.65618896484375,-0.27880859375,0.700927734375,-7517,-2881,-194,-1,1,2
505104823,-0.02130126953125,-0.65643310546875,-0.27862548828125,0.70074462890625,-7501,-2847,-185,-1,1,2
505114803,-0.02142333984375,-0.65667724609375,-0.2784423828125,0.7005615234375,-7508,-2829,-162,-1,1,1
505124798,-0.02154541015625,-0.65679931640625,-0.2784423828125,0.700439453125,-7527,-2810,-129,-1,1,-1
505134776,-0.02154541015625,-0.6568603515625,-0.278564453125,0.7003173828125,-7553,-2812,-115,-2,1,-2
505144754,-0.0213623046875,-0.65692138671875,-0.27886962890625,0.70013427734375,-7599,-2824,-116,-2,1,-4
505154732,-0.02105712890625,-0.65692138671875,-0.27935791015625,0.70001220703125,-7640,-2838,-117,-2,1,-6
505164715,-0.02069091796875,-0.65679931640625,-0.27996826171875,0.6998291015625,-7701,-2855,-129,-2,1,-7
505174697,-0.02032470703125,-0.65667724609375,-0.2806396484375,0.69970703125,-7766,-2870,-139,-2,1,-7
505184680,-0.02001953125,-0.6566162109375,-0.28131103515625,0.69952392578125,-7815,-2869,-157,-3,0,-7
505194670,-0.01983642578125,-0.65643310546875,-0.28192138671875,0.69940185546875,-7862,-2862,-155,-3,0,-6
505204651,-0.01983642578125,-0.65631103515625,-0.282470703125,0.6993408203125,-7890,-2821,-154,-4,-1,-5
505214630,-0.02001953125,-0.65618896484375,-0.28289794921875,0.69921875,-7906,-2771,-168,-4,-1,-4
505224615,-0.02032470703125,-0.65606689453125,-0.2833251953125,0.69921875,-7925,-2722,-166,-5,-2,-3
505234592,-0.02069091796875,-0.65594482421875,-0.2838134765625,0.69915771484375,-7941,-2661,-182,-6,-2,-4
505244577,-0.02099609375,-0.65570068359375,-0.28448486328125,0.69903564453125,-7967,-2612,-219,-6,-2,-5
505254561,-0.0213623046875,-0.655517578125,-0.2852783203125,0.69891357421875,-7987,-2552,-272,-7,-2,-6
505264542,-0.02166748046875,-0.65521240234375,-0.2862548828125,0.69879150390625,-8003,-2501,-322,-8,-3,-7
505274525,-0.02203369140625,-0.65496826171875,-0.28729248046875,0.6986083984375,-8009,-2461,-381,-8,-3,-8
505284512,-0.02252197265625,-0.6546630859375,-0.2884521484375,0.6983642578125,-8001,-2434,-423,-10,-3,-7
505294492,-0.02325439453125,-0.65435791015625,-0.28948974609375,0.69818115234375,-7972,-2379,-454,-11,-4,-6
505304474,-0.02423095703125,-0.6541748046875,-0.29046630859375,0.69793701171875,-7934,-2328,-468,-11,-4,-3
505314468,-0.0255126953125,-0.65399169921875,-0.29119873046875,0.69775390625,-7892,-2274,-484,-12,-5,0
505324446,-0.02716064453125,-0.6539306640625,-0.29180908203125,0.697509765625,-7849,-2240,-479,-13,-5,3
505334429,-0.029052734375,-0.6539306640625,-0.2923583984375,0.69720458984375,-7809,-2256,-479,-14,-4,5
505344405,-0.03118896484375,-0.6539306640625,-0.292724609375,0.69696044921875,-7796,-2278,-469,-15,-5,7
505354387,-0.033447265625,-0.654052734375,-0.2930908203125,0.69659423828125,-7793,-2316,-466,-15,-4,9
505364371,-0.0357666015625,-0.65411376953125,-0.29339599609375,0.69622802734375,-7788,-2365,-464,-15,-4,10
505374355,-0.0382080078125,-0.654296875,-0.293701171875,0.69586181640625,-7772,-2420,-456,-16,-4,11
505384336,-0.04071044921875,-0.65447998046875,-0.29400634765625,0.6954345703125,-7751,-2482,-443,-16,-4,12
505394327,-0.0433349609375,-0.6546630859375,-0.29425048828125,0.69500732421875,-7723,-2555,-418,-17,-4,13
505404302,-0.04595947265625,-0.65484619140625,-0.29443359375,0.69451904296875,-7703,-2632,-399,-17,-4,14
505414290,-0.04864501953125,-0.655029296875,-0.29461669921875,0.694091796875,-7694,-2739,-378,-17,-3,15
505424276,-0.05126953125,-0.6552734375,-0.29486083984375,0.693603515625,-7690,-2850,-350,-17,-3,15
505434257,-0.05389404296875,-0.65545654296875,-0.2950439453125,0.693115234375,-7659,-2961,-329,-17,-3,15
505444240,-0.056396484375,-0.6556396484375,-0.29534912109375,0.69268798828125,-7641,-3069,-293,-17,-3,15
505454222,-0.058837890625,-0.65576171875,-0.29559326171875,0.6922607421875,-7628,-3176,-251,-16,-3,15
505464212,-0.0611572265625,-0.65576171875,-0.2958984375,0.69183349609375,-7612,-3269,-212,-16,-3,14
505474196,-0.06329345703125,-0.65576171875,-0.29632568359375,0.6915283203125,-7595,-3363,-157,-15,-3,13
505484172,-0.06524658203125,-0.6556396484375,-0.29681396484375,0.69122314453125,-7566,-3444,-90,-15,-3,11
505494149,-0.0670166015625,-0.65545654296875,-0.29730224609375,0.6910400390625,-7526,-3518,-38,-14,-3,10
505504134,-0.068603515625,-0.6551513671875,-0.29791259765625,0.69091796875,-7491,-3583,23,-13,-4,9
505514119,-0.07012939453125,-0.65472412109375,-0.29852294921875,0.69085693359375,-7458,-3645,94,-13,-4,8
505524101,-0.07147216796875,-0.654296875,-0.299072265625,0.69091796875,-7408,-3703,161,-12,-4,8
505534085,-0.07269287109375,-0.65374755859375,-0.2996826171875,0.6910400390625,-7372,-3753,244,-11,-4,7
505544066,-0.07379150390625,-0.65313720703125,-0.30035400390625,0.69122314453125,-7330,-3787,313,-11,-5,6
505554048,-0.07470703125,-0.6524658203125,-0.301025390625,0.69146728515625,-7299,-3813,378,-10,-5,4
505564030,-0.07537841796875,-0.65167236328125,-0.3017578125,0.69183349609375,-7273,-3836,431,-9,-5,2
505574022,-0.07574462890625,-0.6507568359375,-0.3026123046875,0.6922607421875,-7256,-3844,477,-8,-5,-1
505583994,-0.0758056640625,-0.64971923828125,-0.30364990234375,0.69281005859375,-7261,-3857,510,-7,-5,-4
505593976,-0.075439453125,-0.6485595703125,-0.30487060546875,0.693359375,-7284,-3854,537,-6,-6,-8
505603962,-0.07476806640625,-0.64727783203125,-0.30633544921875,0.69403076171875,-7307,-3848,552,-5,-6,-12
505613944,-0.07379150390625,-0.64581298828125,-0.30792236328125,0.69476318359375,-7324,-3836,553,-4,-6,-14
505623925,-0.0726318359375,-0.64434814453125,-0.30950927734375,0.695556640625,-7338,-3817,580,-3,-6,-16
505633912,-0.0712890625,-0.64276123046875,-0.3111572265625,0.6964111328125,-7352,-3804,579,-2,-7,-17
505643890,-0.06976318359375,-0.64117431640625,-0.31280517578125,0.697265625,-7381,-3803,585,-1,-7,-19
505653876,-0.068115234375,-0.6395263671875,-0.31439208984375,0.6982421875,-7435,-3814,561,0,-7,-20
505663855,-0.06634521484375,-0.63787841796875,-0.31597900390625,0.69921875,-7504,-3824,517,1,-8,-20
505673840,-0.06451416015625,-0.63629150390625,-0.31744384765625,0.7001953125,-7577,-3833,463,2,-8,-20
505683821,-0.06268310546875,-0.63470458984375,-0.31878662109375,0.701171875,-7630,-3843,386,3,-8,-19
505693803,-0.0609130859375,-0.63323974609375,-0.31988525390625,0.7021484375,-7696,-3845,307,4,-8,-18
505703794,-0.05926513671875,-0.6318359375,-0.32080078125,0.703125,-7759,-3840,216,5,-9,-16
505713777,-0.0576171875,-0.6304931640625,-0.32147216796875,0.70416259765625,-7798,-3825,122,6,-9,-15
505723753,-0.05609130859375,-0.6292724609375,-0.32196044921875,0.70513916015625,-7833,-3778,7,7,-9,-14
505733739,-0.05462646484375,-0.62811279296875,-0.32232666015625,0.70611572265625,-7881,-3745,-81,8,-9,-13
505743721,-0.05316162109375,-0.6270751953125,-0.32257080078125,0.70709228515625,-7905,-3680,-184,9,-9,-12
505753703,-0.05181884765625,-0.62615966796875,-0.32257080078125,0.70794677734375,-7900,-3606,-278,10,-9,-11
505763686,-0.050537109375,-0.6253662109375,-0.32232666015625,0.7088623046875,-7868,-3502,-371,11,-9,-9
505773670,-0.04937744140625,-0.624755859375,-0.3218994140625,0.70965576171875,-7828,-3392,-463,11,-8,-8
505783651,-0.04827880859375,-0.624267578125,-0.32135009765625,0.71038818359375,-7760,-3273,-574,12,-8,-6
505793635,-0.04730224609375,-0.6240234375,-0.32061767578125,0.7110595703125,-7727,-3159,-693,12,-7,-5
505803617,-0.04632568359375,-0.6239013671875,-0.31976318359375,0.71160888671875,-7676,-3049,-807,13,-6,-4
505813600,-0.0452880859375,-0.62384033203125,-0.31884765625,0.71209716796875,-7623,-2943,-924,14,-5,-4
505823583,-0.04412841796875,-0.6240234375,-0.31787109375,0.7125244140625,-7574,-2838,-1049,14,-4,-4
505833565,-0.04296875,-0.62420654296875,-0.31689453125,0.71282958984375,-7509,-2742,-1160,15,-3,-4
505843549,-0.04168701171875,-0.62457275390625,-0.31585693359375,0.7130126953125,-7444,-2637,-1259,15,-2,-5
505853533,-0.04034423828125,-0.62506103515625,-0.3148193359375,0.713134765625,-7397,-2539,-1347,16,-1,-5
505863520,-0.03887939453125,-0.62567138671875,-0.313720703125,0.71319580078125,-7343,-2450,-1426,16,0,-5
505873501,-0.03729248046875,-0.6263427734375,-0.3126220703125,0.713134765625,-7307,-2393,-1495,17,2,-6
505883484,-0.03570556640625,-0.627197265625,-0.3115234375,0.71295166015625,-7274,-2339,-1556,17,3,-5
505893465,-0.0340576171875,-0.628173828125,-0.3104248046875,0.712646484375,-7251,-2297,-1606,17,4,-5
505903457,-0.03253173828125,-0.62933349609375,-0.30914306640625,0.7122802734375,-7228,-2261,-1640,17,5,-3
505913436,-0.0311279296875,-0.63067626953125,-0.3077392578125,0.7117919921875,-7207,-2224,-1647,17,7,-1
505923417,-0.0299072265625,-0.6322021484375,-0.30621337890625,0.71112060546875,-7190,-2189,-1636,16,8,1
505933397,-0.02886962890625,-0.63385009765625,-0.3045654296875,0.71038818359375,-7163,-2177,-1619,15,10,4
505943385,-0.02801513671875,-0.6357421875,-0.30291748046875,0.70947265625,-7151,-2182,-1596,14,11,5
505953363,-0.02728271484375,-0.6376953125,-0.30120849609375,0.70843505859375,-7153,-2183,-1560,13,13,7
505963346,-0.026611328125,-0.6397705078125,-0.299560546875,0.707275390625,-7168,-2215,-1502,12,14,7
505973328,-0.0260009765625,-0.6419677734375,-0.2979736328125,0.70599365234375,-7204,-2253,-1434,11,16,7
505983312,-0.02545166015625,-0.64422607421875,-0.2965087890625,0.70458984375,-7208,-2278,-1347,9,17,7
505993294,-0.02496337890625,-0.646484375,-0.295166015625,0.703125,-7197,-2293,-1235,8,18,7
506003274,-0.02447509765625,-0.64874267578125,-0.29388427734375,0.7015380859375,-7201,-2315,-1092,7,19,7
506013265,-0.02410888671875,-0.6510009765625,-0.292724609375,0.699951171875,-7205,-2349,-918,5,21,7
506023247,-0.02374267578125,-0.65325927734375,-0.291748046875,0.6982421875,-7227,-2395,-732,3,22,7
506033227,-0.0234375,-0.65545654296875,-0.29095458984375,0.696533203125,-7274,-2446,-540,2,22,6
506043219,-0.02301025390625,-0.6575927734375,-0.29034423828125,0.69476318359375,-7298,-2502,-356,1,23,4
506053208,-0.02264404296875,-0.65960693359375,-0.28997802734375,0.69305419921875,-7323,-2539,-171,-1,23,3
506063177,-0.022216796875,-0.66156005859375,-0.28973388671875,0.6912841796875,-7338,-2592,23,-2,24,2
506073154,-0.0218505859375,-0.66339111328125,-0.2896728515625,0.6895751953125,-7362,-2650,220,-4,24,1
506083136,-0.02142333984375,-0.66510009765625,-0.289794921875,0.68792724609375,-7407,-2722,408,-5,24,0
506093123,-0.02099609375,-0.66668701171875,-0.2900390625,0.686279296875,-7467,-2808,577,-5,24,-1
506103101,-0.02056884765625,-0.66815185546875,-0.2904052734375,0.6846923828125,-7544,-2898,729,-6,23,-2
506113085,-0.02001953125,-0.66949462890625,-0.29095458984375,0.6832275390625,-7647,-2989,859,-7,23,-3
506123066,-0.01953125,-0.670654296875,-0.29168701171875,0.6817626953125,-7754,-3066,972,-8,22,-5
506133048,-0.01885986328125,-0.671630859375,-0.29254150390625,0.680419921875,-7867,-3162,1079,-8,21,-6
506143031,-0.0181884765625,-0.6724853515625,-0.2935791015625,0.67919921875,-7979,-3264,1185,-8,20,-7
506153021,-0.01751708984375,-0.67315673828125,-0.2945556640625,0.6781005859375,-8089,-3361,1266,-9,19,-7
506162997,-0.0169677734375,-0.6737060546875,-0.29559326171875,0.6771240234375,-8186,-3454,1329,-9,17,-6
506172979,-0.01666259765625,-0.6741943359375,-0.2965087890625,0.67626953125,-8270,-3545,1372,-9,16,-5
506182962,-0.0164794921875,-0.674560546875,-0.2972412109375,0.675537109375,-8333,-3624,1385,-9,14,-3
506192947,-0.0164794921875,-0.67486572265625,-0.29791259765625,0.67498779296875,-8396,-3692,1380,-9,12,-1
506202935,-0.0167236328125,-0.675048828125,-0.29840087890625,0.674560546875,-8452,-3755,1350,-9,9,0
506212915,-0.01702880859375,-0.67510986328125,-0.29876708984375,0.67431640625,-8489,-3798,1298,-8,7,1
506222898,-0.0174560546875,-0.67498779296875,-0.29913330078125,0.67425537109375,-8517,-3829,1260,-8,5,1
506232880,-0.01788330078125,-0.67474365234375,-0.2994384765625,0.67437744140625,-8516,-3846,1204,-7,2,1
506242861,-0.018310546875,-0.67425537109375,-0.2998046875,0.6746826171875,-8505,-3842,1129,-7,0,0
506252849,-0.01873779296875,-0.673583984375,-0.30010986328125,0.6751708984375,-8511,-3836,1061,-6,-2,-1
506262825,-0.01904296875,-0.6727294921875,-0.30047607421875,0.6759033203125,-8505,-3832,978,-5,-5,-2
506272804,-0.019287109375,-0.67156982421875,-0.30096435546875,0.67681884765625,-8490,-3835,891,-4,-7,-4
506282797,-0.0194091796875,-0.6702880859375,-0.30145263671875,0.6778564453125,-8481,-3844,773,-4,-10,-5
506292778,-0.01947021484375,-0.6688232421875,-0.302001953125,0.6790771484375,-8452,-3844,650,-2,-12,-6
506302755,-0.0194091796875,-0.6671142578125,-0.30255126953125,0.68048095703125,-8421,-3856,517,-1,-15,-7
506312739,-0.01934814453125,-0.665283203125,-0.30316162109375,0.6820068359375,-8406,-3869,370,-1,-17,-8
506322726,-0.019287109375,-0.663330078125,-0.3037109375,0.68365478515625,-8374,-3863,230,0,-19,-8
506332706,-0.01922607421875,-0.66131591796875,-0.30413818359375,0.68548583984375,-8329,-3851,90,1,-21,-7
506342690,-0.019287109375,-0.6591796875,-0.30438232421875,0.6873779296875,-8266,-3834,-45,2,-23,-6
506352673,-0.0194091796875,-0.65704345703125,-0.30450439453125,0.68939208984375,-8189,-3802,-187,3,-24,-4
506362656,-0.0196533203125,-0.6549072265625,-0.30450439453125,0.69140625,-8101,-3780,-319,4,-25,-3
506372638,-0.02001953125,-0.6527099609375,-0.3043212890625,0.6934814453125,-8007,-3750,-453,4,-27,-2
506382622,-0.02032470703125,-0.65057373046875,-0.30413818359375,0.69561767578125,-7905,-3710,-576,5,-27,-2
506392604,-0.02056884765625,-0.6484375,-0.303955078125,0.69769287109375,-7813,-3669,-706,5,-27,-3
506402585,-0.02069091796875,-0.64630126953125,-0.30377197265625,0.69970703125,-7715,-3632,-853,6,-27,-4
506412568,-0.02056884765625,-0.6441650390625,-0.30377197265625,0.70172119140625,-7640,-3603,-982,7,-27,-6
506422553,-0.02020263671875,-0.6419677734375,-0.30389404296875,0.70367431640625,-7538,-3576,-1103,7,-27,-9
506432535,-0.01953125,-0.63983154296875,-0.3040771484375,0.70556640625,-7429,-3533,-1220,9,-26,-11
506442518,-0.01861572265625,-0.63763427734375,-0.3043212890625,0.7073974609375,-7316,-3490,-1330,10,-26,-12
506452502,-0.01751708984375,-0.63555908203125,-0.30462646484375,0.709228515625,-7192,-3457,-1426,11,-25,-13
506462487,-0.0162353515625,-0.63360595703125,-0.3048095703125,0.7109375,-7087,-3412,-1509,12,-24,-13
506472467,-0.0147705078125,-0.6317138671875,-0.304931640625,0.71258544921875,-6980,-3370,-1592,13,-23,-13
506482459,-0.01324462890625,-0.6300048828125,-0.304931640625,0.714111328125,-6878,-3327,-1652,15,-21,-13
506492442,-0.01165771484375,-0.62841796875,-0.30474853515625,0.715576171875,-6793,-3287,-1697,16,-20,-12
506502424,-0.01007080078125,-0.62701416015625,-0.304443359375,0.71697998046875,-6708,-3254,-1716,17,-19,-11
506512400,-0.0084228515625,-0.625732421875,-0.303955078125,0.71832275390625,-6644,-3233,-1733,17,-17,-10
506522385,-0.0068359375,-0.62469482421875,-0.30340576171875,0.719482421875,-6586,-3215,-1721,17,-15,-9
506532365,-0.0052490234375,-0.6239013671875,-0.30267333984375,0.72052001953125,-6550,-3203,-1711,18,-13,-8
506542348,-0.00372314453125,-0.623291015625,-0.3018798828125,0.72137451171875,-6542,-3204,-1676,17,-11,-7
506552332,-0.002197265625,-0.62286376953125,-0.301025390625,0.72210693359375,-6530,-3204,-1623,17,-9,-5
506562316,-0.000732421875,-0.62274169921875,-0.3001708984375,0.72259521484375,-6518,-3193,-1562,17,-6,-5
506572298,0.00067138671875,-0.62274169921875,-0.29925537109375,0.722900390625,-6511,-3188,-1494,15,-4,-4
506582279,0.00201416015625,-0.62310791015625,-0.29833984375,0.7230224609375,-6489,-3164,-1421,14,-1,-3
506592272,0.00323486328125,-0.62359619140625,-0.2974853515625,0.722900390625,-6464,-3136,-1331,13,2,-2
506602253,0.00445556640625,-0.6243896484375,-0.29669189453125,0.72259521484375,-6444,-3112,-1233,12,4,-2
506612240,0.00567626953125,-0.62530517578125,-0.2960205078125,0.7220458984375,-6429,-3066,-1112,10,7,-3
506622227,0.0069580078125,-0.62640380859375,-0.2955322265625,0.72125244140625,-6413,-3019,-975,8,10,-3
506632208,0.0081787109375,-0.62762451171875,-0.29522705078125,0.7203369140625,-6398,-2980,-835,6,12,-4
506642194,0.0093994140625,-0.62896728515625,-0.29510498046875,0.71917724609375,-6419,-2953,-695,4,15,-5
506652165,0.01068115234375,-0.63043212890625,-0.295166015625,0.71783447265625,-6462,-2936,-539,3,17,-6
506662147,0.011962890625,-0.63201904296875,-0.29547119140625,0.71630859375,-6525,-2948,-394,0,19,-8
506672128,0.0133056640625,-0.63360595703125,-0.29608154296875,0.71466064453125,-6600,-2956,-255,-2,21,-9
506682109,0.0147705078125,-0.63519287109375,-0.29705810546875,0.7127685546875,-6692,-2984,-117,-4,23,-12
506692092,0.016357421875,-0.6368408203125,-0.29827880859375,0.7108154296875,-6784,-3016,18,-6,24,-14
506702073,0.0179443359375,-0.638427734375,-0.29986572265625,0.70867919921875,-6894,-3047,118,-8,25,-16
506712054,0.01947021484375,-0.6400146484375,-0.3016357421875,0.7064208984375,-6987,-3097,219,-10,26,-17
506722038,0.02099609375,-0.64166259765625,-0.3035888671875,0.70404052734375,-7097,-3166,294,-12,27,-17
506732028,0.022216796875,-0.643310546875,-0.30560302734375,0.70159912109375,-7201,-3249,359,-13,27,-16
506742010,0.023193359375,-0.64508056640625,-0.30755615234375,0.6990966796875,-7293,-3307,418,-15,27,-13
506751987,0.02374267578125,-0.6468505859375,-0.3094482421875,0.6966552734375,-7365,-3376,477,-16,27,-10
506761971,0.02398681640625,-0.648681640625,-0.3111572265625,0.69415283203125,-7448,-3434,519,-18,26,-8
506771953,0.02392578125,-0.65045166015625,-0.3128662109375,0.69171142578125,-7523,-3484,586,-19,26,-6
506781936,0.02374267578125,-0.6522216796875,-0.31451416015625,0.6893310546875,-7600,-3537,645,-20,25,-5
506791918,0.02337646484375,-0.65380859375,-0.31622314453125,0.68701171875,-7687,-3589,698,-21,24,-6
506801900,0.0230712890625,-0.6552734375,-0.31805419921875,0.684814453125,-7756,-3647,739,-21,23,-7
506811884,0.02264404296875,-0.6566162109375,-0.3199462890625,0.68267822265625,-7841,-3691,764,-21,21,-7
506821866,0.02227783203125,-0.65771484375,-0.3218994140625,0.6806640625,-7906,-3756,776,-22,20,-8
506831850,0.0218505859375,-0.65863037109375,-0.32391357421875,0.6788330078125,-7983,-3812,779,-21,18,-8
506841833,0.02142333984375,-0.65936279296875,-0.325927734375,0.67718505859375,-8050,-3877,762,-21,16,-9
506851819,0.0211181640625,-0.65985107421875,-0.32794189453125,0.67572021484375,-8099,-3944,738,-20,14,-10
506861804,0.02081298828125,-0.66015625,-0.33001708984375,0.6744384765625,-8162,-3998,698,-19,11,-11
506871788,0.0205078125,-0.66021728515625,-0.33209228515625,0.67333984375,-8235,-4064,659,-19,9,-12
506881769,0.02032470703125,-0.6600341796875,-0.33416748046875,0.67254638671875,-8273,-4229,597,-17,6,-13
506891748,0.02081298828125,-0.659423828125,-0.33642578125,0.6719970703125,-8317,-4419,526,-13,4,-17
506901729,0.02166748046875,-0.6585693359375,-0.3385009765625,0.6717529296875,-8361,-4470,510,-10,2,-19
506911715,0.02239990234375,-0.65753173828125,-0.3402099609375,0.671875,-8392,-4562,470,-8,-1,-16
506921694,0.02313232421875,-0.6563720703125,-0.3416748046875,0.6722412109375,-8407,-4625,429,-5,-4,-14
506931676,0.023681640625,-0.65509033203125,-0.3426513671875,0.6729736328125,-8412,-4634,418,-2,-6,-12
506941664,0.0240478515625,-0.65374755859375,-0.3431396484375,0.67401123046875,-8403,-4643,370,0,-9,-8
506951644,0.024169921875,-0.65240478515625,-0.34332275390625,0.67523193359375,-8382,-4681,311,2,-11,-5
506961628,0.02435302734375,-0.65093994140625,-0.34320068359375,0.67669677734375,-8321,-4703,244,4,-14,-4
506971610,0.02447509765625,-0.64935302734375,-0.34271240234375,0.678466796875,-8260,-4648,212,7,-15,-3
506981597,0.02447509765625,-0.64776611328125,-0.34185791015625,0.680419921875,-8203,-4574,178,9,-17,0
506991577,0.02423095703125,-0.6461181640625,-0.3406982421875,0.68255615234375,-8147,-4503,156,10,-19,2
507001556,0.0238037109375,-0.64453125,-0.33935546875,0.68475341796875,-8080,-4429,104,10,-21,4
507011540,0.02325439453125,-0.642822265625,-0.337890625,0.68707275390625,-8004,-4386,43,11,-22,6
507021523,0.022705078125,-0.64111328125,-0.33642578125,0.689453125,-7918,-4342,-15,11,-23,5
507031507,0.02215576171875,-0.63934326171875,-0.33489990234375,0.69183349609375,-7838,-4298,-88,12,-24,6
507041490,0.0216064453125,-0.63751220703125,-0.3333740234375,0.6942138671875,-7740,-4253,-138,12,-25,6
507051469,0.02105712890625,-0.6357421875,-0.33184814453125,0.6966552734375,-7638,-4204,-207,13,-25,6
507061461,0.0203857421875,-0.634033203125,-0.3302001953125,0.698974609375,-7530,-4164,-296,13,-25,8
507071444,0.0196533203125,-0.63238525390625,-0.32855224609375,0.7012939453125,-7422,-4115,-384,13,-25,9
507081426,0.01885986328125,-0.63079833984375,-0.3267822265625,0.7034912109375,-7315,-4078,-473,13,-25,10
507091403,0.0179443359375,-0.62939453125,-0.324951171875,0.7056884765625,-7210,-4063,-562,13,-25,11
507101388,0.01702880859375,-0.6280517578125,-0.32305908203125,0.707763671875,-7115,-4047,-659,13,-24,13
507111370,0.0159912109375,-0.6268310546875,-0.3211669921875,0.709716796875,-7027,-4019,-767,13,-23,13
507121353,0.01513671875,-0.62579345703125,-0.31927490234375,0.7115478515625,-6953,-3995,-867,13,-22,13
507131335,0.01434326171875,-0.62481689453125,-0.31744384765625,0.71319580078125,-6860,-3954,-978,13,-21,12
507141319,0.01373291015625,-0.62396240234375,-0.315673828125,0.7147216796875,-6749,-3889,-1084,14,-20,10
507151300,0.01336669921875,-0.6231689453125,-0.3140869140625,0.71612548828125,-6647,-3809,-1174,14,-18,9
507161290,0.01312255859375,-0.62255859375,-0.31256103515625,0.71734619140625,-6523,-3746,-1233,13,-16,8
507171273,0.01312255859375,-0.62200927734375,-0.3111572265625,0.71844482421875,-6408,-3670,-1275,14,-14,7
507181255,0.01318359375,-0.62158203125,-0.30975341796875,0.7193603515625,-6305,-3614,-1304,14,-12,6
507191240,0.0133056640625,-0.62139892578125,-0.30828857421875,0.72015380859375,-6223,-3572,-1331,14,-10,7
507201228,0.01348876953125,-0.6214599609375,-0.306884765625,0.72076416015625,-6164,-3552,-1354,13,-8,7
507211209,0.013671875,-0.6217041015625,-0.305419921875,0.72113037109375,-6122,-3530,-1384,13,-6,8
507221192,0.01397705078125,-0.62213134765625,-0.3040771484375,0.7213134765625,-6117,-3526,-1411,12,-3,7
507231162,0.01434326171875,-0.62274169921875,-0.3028564453125,0.7213134765625,-6122,-3529,-1428,12,-1,6
507241151,0.01495361328125,-0.62353515625,-0.3017578125,0.7210693359375,-6147,-3525,-1468,11,1,4
507251130,0.0157470703125,-0.62445068359375,-0.3009033203125,0.72064208984375,-6177,-3503,-1479,11,3,2
507261114,0.01666259765625,-0.62542724609375,-0.30023193359375,0.72003173828125,-6203,-3492,-1472,10,5,0
507271098,0.01788330078125,-0.62646484375,-0.2998046875,0.71929931640625,-6218,-3487,-1465,9,7,-2
507281078,0.0191650390625,-0.627685546875,-0.29949951171875,0.71832275390625,-6223,-3464,-1454,8,9,-3
507291063,0.0205078125,-0.62896728515625,-0.29931640625,0.71722412109375,-6225,-3446,-1438,7,11,-4
507301047,0.02203369140625,-0.63043212890625,-0.29931640625,0.71588134765625,-6239,-3430,-1394,6,14,-6
507311029,0.0235595703125,-0.6319580078125,-0.29949951171875,0.71441650390625,-6242,-3406,-1335,5,15,-7
507321017,0.02520751953125,-0.633544921875,-0.29986572265625,0.7127685546875,-6264,-3380,-1251,4,18,-9
507330995,0.0269775390625,-0.63525390625,-0.30047607421875,0.71099853515625,-6324,-3361,-1141,2,20,-11
507340975,0.02886962890625,-0.63690185546875,-0.30126953125,0.7091064453125,-6365,-3362,-1002,1,21,-12
507350957,0.03070068359375,-0.6385498046875,-0.30218505859375,0.70709228515625,-6433,-3350,-848,-1,23,-13
507360937,0.03253173828125,-0.6402587890625,-0.30322265625,0.70501708984375,-6514,-3357,-697,-2,24,-14
507370919,0.03436279296875,-0.6419677734375,-0.304443359375,0.702880859375,-6610,-3393,-539,-4,25,-14
507380902,0.03619384765625,-0.6436767578125,-0.30572509765625,0.70062255859375,-6705,-3420,-361,-5,25,-15
507390886,0.0379638671875,-0.64532470703125,-0.30718994140625,0.69842529296875,-6821,-3453,-181,-6,26,-17
507400868,0.03985595703125,-0.64678955078125,-0.3089599609375,0.69610595703125,-6914,-3488,6,-8,27,-19
507410850,0.0418701171875,-0.648193359375,-0.31097412109375,0.69378662109375,-7007,-3511,188,-10,27,-22
507420834,0.0438232421875,-0.64947509765625,-0.313232421875,0.69146728515625,-7130,-3554,357,-11,27,-24
507430819,0.04583740234375,-0.650634765625,-0.315673828125,0.68914794921875,-7238,-3615,522,-13,27,-25
507440806,0.04779052734375,-0.6517333984375,-0.3182373046875,0.68682861328125,-7348,-3683,664,-14,27,-25
507450790,0.04949951171875,-0.6527099609375,-0.32073974609375,0.6845703125,-7454,-3748,782,-15,26,-24
507460774,0.05096435546875,-0.65374755859375,-0.3232421875,0.68231201171875,-7554,-3835,873,-16,25,-22
507470751,0.0521240234375,-0.65472412109375,-0.32562255859375,0.68017578125,-7631,-3908,950,-17,24,-20
507480734,0.0531005859375,-0.6556396484375,-0.327880859375,0.6781005859375,-7714,-3983,1010,-17,23,-18
507490715,0.0538330078125,-0.656494140625,-0.330078125,0.6761474609375,-7786,-4069,1078,-18,22,-16
507500701,0.0543212890625,-0.65728759765625,-0.332275390625,0.67431640625,-7878,-4159,1102,-19,20,-15
507510685,0.05474853515625,-0.65789794921875,-0.33441162109375,0.67254638671875,-7963,-4258,1126,-19,19,-15
507520670,0.05511474609375,-0.65838623046875,-0.3365478515625,0.67095947265625,-8032,-4345,1147,-19,17,-15
507530650,0.0552978515625,-0.6588134765625,-0.33856201171875,0.6695556640625,-8088,-4417,1155,-19,15,-14
507540632,0.05535888671875,-0.6590576171875,-0.34051513671875,0.6683349609375,-8131,-4478,1159,-18,13,-12
507550615,0.0552978515625,-0.65911865234375,-0.34228515625,0.6673583984375,-8152,-4537,1137,-18,11,-11
507560599,0.0550537109375,-0.65911865234375,-0.34393310546875,0.66656494140625,-8162,-4577,1118,-17,9,-10
507570583,0.05474853515625,-0.65887451171875,-0.34539794921875,0.666015625,-8188,-4630,1095,-16,6,-9
507580563,0.05438232421875,-0.65850830078125,-0.34674072265625,0.66571044921875,-8202,-4677,1046,-14,3,-8
507590545,0.053955078125,-0.65802001953125,-0.347900390625,0.6656494140625,-8218,-4734,992,-13,1,-7
507600528,0.05340576171875,-0.65728759765625,-0.348876953125,0.6658935546875,-8216,-4794,929,-11,-2,-5
507610509,0.0528564453125,-0.65643310546875,-0.34967041015625,0.66632080078125,-8213,-4848,851,-9,-5,-5
507620491,0.05224609375,-0.6553955078125,-0.350341796875,0.66705322265625,-8212,-4899,762,-7,-8,-4
507630472,0.0516357421875,-0.65423583984375,-0.35076904296875,0.66802978515625,-8200,-4953,643,-5,-10,-3
507640463,0.05108642578125,-0.65289306640625,-0.35107421875,0.66925048828125,-8188,-5010,529,-3,-13,-3
507650446,0.0506591796875,-0.65130615234375,-0.351318359375,0.670654296875,-8137,-5137,388,-1,-15,-3
507660433,0.0506591796875,-0.64947509765625,-0.35162353515625,0.67230224609375,-8095,-5194,281,3,-17,-6
507670408,0.0509033203125,-0.64739990234375,-0.35162353515625,0.67425537109375,-8057,-5195,201,5,-19,-7
507680391,0.051025390625,-0.645263671875,-0.3514404296875,0.6763916015625,-8011,-5207,103,7,-22,-5
507690372,0.05108642578125,-0.64312744140625,-0.35101318359375,0.6787109375,-7955,-5200,-7,10,-23,-3
507700354,0.051025390625,-0.64093017578125,-0.350341796875,0.68115234375,-7896,-5194,-135,11,-25,-1
507710341,0.0509033203125,-0.638671875,-0.349365234375,0.68365478515625,-7811,-5173,-263,13,-26,1
507720321,0.0506591796875,-0.636474609375,-0.3482666015625,0.68634033203125,-7725,-5128,-379,14,-28,3
507730303,0.0504150390625,-0.63427734375,-0.34686279296875,0.6890869140625,-7614,-5078,-503,16,-29,4
507740290,0.0501708984375,-0.632080078125,-0.345458984375,0.69183349609375,-7473,-5019,-628,16,-29,4
507750275,0.0499267578125,-0.6298828125,-0.34393310546875,0.694580078125,-7312,-4947,-738,17,-30,5
507760258,0.0498046875,-0.62774658203125,-0.342529296875,0.697265625,-7149,-4854,-850,18,-29,3
507770241,0.04986572265625,-0.6256103515625,-0.34112548828125,0.6998291015625,-6999,-4771,-944,18,-29,2
507780229,0.050048828125,-0.62347412109375,-0.33984375,0.70233154296875,-6856,-4681,-1042,18,-28,1
507790214,0.05035400390625,-0.6214599609375,-0.338623046875,0.70465087890625,-6732,-4604,-1155,18,-27,0
507800198,0.05072021484375,-0.61962890625,-0.33746337890625,0.70684814453125,-6620,-4536,-1267,18,-26,0
507810175,0.05096435546875,-0.617919921875,-0.3363037109375,0.7088623046875,-6506,-4475,-1377,17,-24,2
507820151,0.051025390625,-0.61651611328125,-0.3349609375,0.710693359375,-6371,-4405,-1491,17,-23,4
507830133,0.0509033203125,-0.6153564453125,-0.33349609375,0.71240234375,-6249,-4318,-1555,16,-21,7
507840117,0.050537109375,-0.614501953125,-0.33184814453125,0.71392822265625,-6127,-4233,-1625,16,-19,10
507850099,0.0499267578125,-0.61395263671875,-0.330078125,0.71527099609375,-6020,-4140,-1678,15,-18,13
507860085,0.04925537109375,-0.61358642578125,-0.3282470703125,0.71649169921875,-5922,-4069,-1707,14,-16,13
507870062,0.0484619140625,-0.6134033203125,-0.3265380859375,0.71746826171875,-5826,-3988,-1726,13,-14,14
507880048,0.0478515625,-0.6134033203125,-0.32489013671875,0.71826171875,-5780,-3930,-1745,12,-12,12
507890029,0.0474853515625,-0.61346435546875,-0.3236083984375,0.7188720703125,-5725,-3878,-1758,11,-10,9
507900017,0.04736328125,-0.61358642578125,-0.3226318359375,0.71917724609375,-5702,-3840,-1755,9,-8,5
507909995,0.047607421875,-0.61370849609375,-0.322021484375,0.71929931640625,-5697,-3821,-1739,8,-6,2
507919981,0.04803466796875,-0.6138916015625,-0.32171630859375,0.71923828125,-5698,-3805,-1710,7,-4,-1
507929959,0.0487060546875,-0.6141357421875,-0.32171630859375,0.718994140625,-5704,-3812,-1668,6,-2,-3
507939948,0.049560546875,-0.614501953125,-0.32196044921875,0.718505859375,-5727,-3821,-1626,4,1,-5
507949928,0.050537109375,-0.61492919921875,-0.32244873046875,0.7178955078125,-5748,-3839,-1563,3,3,-7
507959912,0.0516357421875,-0.615478515625,-0.3231201171875,0.71697998046875,-5764,-3852,-1500,1,5,-9
507969892,0.052734375,-0.61614990234375,-0.32403564453125,0.71600341796875,-5789,-3856,-1420,0,6,-10
507979878,0.0538330078125,-0.61688232421875,-0.32501220703125,0.71478271484375,-5839,-3884,-1313,-1,9,-10
507989854,0.05499267578125,-0.61773681640625,-0.32611083984375,0.7135009765625,-5893,-3922,-1194,-3,10,-10
507999839,0.0560302734375,-0.61865234375,-0.32733154296875,0.7120361328125,-5966,-3956,-1059,-5,12,-10
508009822,0.056884765625,-0.61968994140625,-0.3284912109375,0.7105712890625,-6042,-3996,-914,-6,13,-9
508019802,0.0577392578125,-0.6207275390625,-0.32977294921875,0.708984375,-6103,-4027,-753,-8,14,-9
508029795,0.05859375,-0.621826171875,-0.3311767578125,0.707275390625,-6180,-4063,-598,-9,15,-10
508039777,0.0594482421875,-0.62286376953125,-0.3326416015625,0.70556640625,-6254,-4114,-444,-10,16,-11
508049751,0.06036376953125,-0.62396240234375,-0.33428955078125,0.7037353515625,-6344,-4150,-313,-11,17,-12
508059735,0.061279296875,-0.62506103515625,-0.33599853515625,0.701904296875,-6446,-4214,-197,-12,18,-13
508069717,0.06231689453125,-0.6260986328125,-0.337890625,0.699951171875,-6558,-4274,-87,-12,18,-14
508079700,0.06341552734375,-0.62713623046875,-0.33984375,0.697998046875,-6646,-4327,14,-13,19,-16
508089683,0.06463623046875,-0.6280517578125,-0.34197998046875,0.69598388671875,-6723,-4378,122,-14,19,-18
508099670,0.0660400390625,-0.62890625,-0.34423828125,0.6939697265625,-6804,-4419,234,-14,20,-20
508109652,0.06756591796875,-0.62969970703125,-0.34661865234375,0.69195556640625,-6870,-4478,340,-14,20,-21
508119633,0.06915283203125,-0.63037109375,-0.34906005859375,0.68994140625,-6926,-4530,463,-15,20,-23
508129618,0.07080078125,-0.6309814453125,-0.3515625,0.68792724609375,-6989,-4592,567,-15,21,-23
508139599,0.0723876953125,-0.631591796875,-0.35406494140625,0.6859130859375,-7047,-4655,676,-15,20,-22
508149583,0.07391357421875,-0.63214111328125,-0.3564453125,0.68402099609375,-7093,-4753,790,-15,20,-22
508159565,0.0755615234375,-0.63262939453125,-0.35870361328125,0.68218994140625,-7164,-4827,863,-13,20,-21
508169548,0.0770263671875,-0.63311767578125,-0.36065673828125,0.6805419921875,-7212,-4925,943,-12,19,-19
508179533,0.07855224609375,-0.633544921875,-0.3623046875,0.6790771484375,-7290,-5015,1000,-10,18,-17
508189513,0.080078125,-0.63397216796875,-0.3636474609375,0.67779541015625,-7343,-5092,1046,-8,18,-16
508199497,0.08160400390625,-0.6343994140625,-0.3646240234375,0.67669677734375,-7393,-5172,1066,-5,17,-14
508209483,0.0830078125,-0.6348876953125,-0.3651123046875,0.67584228515625,-7430,-5230,1061,-2,16,-10
508219465,0.08428955078125,-0.6353759765625,-0.3651123046875,0.67523193359375,-7464,-5289,1033,1,14,-6
508229453,0.08544921875,-0.635986328125,-0.364501953125,0.6748046875,-7506,-5333,987,4,13,-2
508239437,0.08636474609375,-0.6365966796875,-0.363525390625,0.67462158203125,-7536,-5366,936,6,12,1
508249411,0.08709716796875,-0.63726806640625,-0.36212158203125,0.6746826171875,-7559,-5385,875,8,10,5
508259395,0.087646484375,-0.637939453125,-0.3603515625,0.67486572265625,-7575,-5383,801,10,9,7
508269385,0.088134765625,-0.6385498046875,-0.3583984375,0.67529296875,-7585,-5366,718,11,7,9
508279361,0.0885009765625,-0.63916015625,-0.35626220703125,0.67584228515625,-7585,-5317,633,12,6,10
508289343,0.08880615234375,-0.6396484375,-0.35406494140625,0.67645263671875,-7574,-5262,535,13,4,10
508299327,0.089111328125,-0.64007568359375,-0.35186767578125,0.67718505859375,-7555,-5210,430,13,3,10
508309308,0.08941650390625,-0.640380859375,-0.34967041015625,0.677978515625,-7517,-5135,313,14,1,9
508319292,0.08966064453125,-0.64056396484375,-0.34747314453125,0.67889404296875,-7464,-5059,212,14,0,9
508329273,0.08984375,-0.6407470703125,-0.34539794921875,0.6798095703125,-7400,-4994,109,14,-1,9
508339262,0.090087890625,-0.6407470703125,-0.3433837890625,0.6807861328125,-7320,-4938,-4,14,-3,8
508349245,0.09027099609375,-0.64068603515625,-0.34149169921875,0.6817626953125,-7243,-4890,-107,14,-4,8
508359225,0.0904541015625,-0.64056396484375,-0.33966064453125,0.6827392578125,-7191,-4856,-214,14,-5,8
508369216,0.09051513671875,-0.640380859375,-0.337890625,0.68377685546875,-7109,-4811,-306,13,-6,8
508379200,0.0904541015625,-0.64013671875,-0.33612060546875,0.68487548828125,-7024,-4774,-395,13,-7,9
508389177,0.09014892578125,-0.63995361328125,-0.33428955078125,0.68597412109375,-6930,-4749,-491,12,-8,11
508402030,0.089599609375,-0.63983154296875,-0.3323974609375,0.68707275390625,-6856,-4714,-586,11,-9,13
508409135,0.0888671875,-0.63970947265625,-0.3304443359375,0.688232421875,-6777,-4686,-652,10,-10,15
508419119,0.0880126953125,-0.63958740234375,-0.32843017578125,0.689453125,-6710,-4642,-732,11,-10,16
508429100,0.0870361328125,-0.63946533203125,-0.32659912109375,0.6905517578125,-6641,-4588,-783,10,-11,15
508439085,0.086181640625,-0.6392822265625,-0.32489013671875,0.691650390625,-6578,-4552,-829,9,-11,14
508449066,0.08538818359375,-0.63897705078125,-0.323486328125,0.692626953125,-6527,-4518,-849,8,-11,11
508459050,0.08477783203125,-0.6385498046875,-0.32232666015625,0.69366455078125,-6479,-4485,-858,7,-11,8
508469032,0.0843505859375,-0.6380615234375,-0.321533203125,0.694580078125,-6441,-4452,-869,6,-11,5
508479024,0.0841064453125,-0.637451171875,-0.32098388671875,0.69537353515625,-6416,-4447,-866,5,-11,3
508489008,0.083984375,-0.63677978515625,-0.32073974609375,0.69610595703125,-6385,-4455,-853,4,-11,1
508498985,0.08392333984375,-0.6361083984375,-0.32061767578125,0.69677734375,-6359,-4456,-829,3,-10,0
508508967,0.08380126953125,-0.6353759765625,-0.32073974609375,0.69744873046875,-6329,-4433,-799,2,-10,-2
508518947,0.083740234375,-0.6346435546875,-0.32098388671875,0.697998046875,-6320,-4415,-764,1,-10,-2
508528927,0.083740234375,-0.6339111328125,-0.32135009765625,0.698486328125,-6300,-4414,-724,0,-9,-3
508538912,0.08367919921875,-0.6331787109375,-0.32183837890625,0.69891357421875,-6293,-4423,-671,-1,-9,-4
508548890,0.08367919921875,-0.6324462890625,-0.322509765625,0.69927978515625,-6283,-4436,-630,-2,-8,-5
508558876,0.0836181640625,-0.6317138671875,-0.32330322265625,0.6995849609375,-6301,-4433,-589,-3,-8,-6
508568859,0.083740234375,-0.63104248046875,-0.3243408203125,0.69976806640625,-6301,-4431,-560,-4,-7,-8
508578838,0.0838623046875,-0.6302490234375,-0.3255615234375,0.6998291015625,-6314,-4408,-524,-5,-7,-10
508588822,0.08416748046875,-0.62945556640625,-0.32708740234375,0.6998291015625,-6346,-4407,-485,-6,-6,-13
508598803,0.08465576171875,-0.62860107421875,-0.32879638671875,0.69970703125,-6388,-4400,-431,-7,-6,-15
508608794,0.085205078125,-0.627685546875,-0.33074951171875,0.6995849609375,-6424,-4426,-393,-8,-5,-17
508618778,0.0858154296875,-0.62677001953125,-0.33282470703125,0.6993408203125,-6459,-4457,-357,-9,-5,-17
508628754,0.0863037109375,-0.6258544921875,-0.3349609375,0.69903564453125,-6485,-4491,-336,-10,-5,-17
508638735,0.0865478515625,-0.6251220703125,-0.3370361328125,0.69873046875,-6504,-4528,-318,-11,-5,-14
508648719,0.08648681640625,-0.62445068359375,-0.33892822265625,0.69842529296875,-6525,-4565,-306,-12,-5,-11
508658702,0.0860595703125,-0.6239013671875,-0.340576171875,0.6981201171875,-6527,-4590,-290,-12,-5,-7
508668685,0.08526611328125,-0.62353515625,-0.342041015625,0.69781494140625,-6537,-4615,-285,-13,-5,-4
508678670,0.08416748046875,-0.623291015625,-0.34326171875,0.69757080078125,-6554,-4646,-287,-14,-5,-1
508688656,0.08282470703125,-0.6231689453125,-0.34442138671875,0.69732666015625,-6577,-4669,-287,-14,-5,1
508698636,0.0814208984375,-0.623046875,-0.34539794921875,0.697021484375,-6590,-4684,-297,-14,-5,2
508708618,0.079833984375,-0.623046875,-0.34637451171875,0.69677734375,-6611,-4704,-314,-14,-5,3
508718602,0.0782470703125,-0.62298583984375,-0.347412109375,0.69647216796875,-6626,-4712,-328,-14,-5,3
508728586,0.07672119140625,-0.6229248046875,-0.34844970703125,0.6961669921875,-6657,-4712,-323,-15,-5,2
508738567,0.0753173828125,-0.622802734375,-0.34954833984375,0.6959228515625,-6683,-4708,-302,-14,-5,0
508748551,0.07415771484375,-0.62255859375,-0.350830078125,0.69561767578125,-6692,-4705,-294,-14,-5,-2
508758530,0.0731201171875,-0.6221923828125,-0.35223388671875,0.6953125,-6692,-4702,-267,-14,-5,-4
508768515,0.07220458984375,-0.62176513671875,-0.35382080078125,0.69500732421875,-6680,-4695,-253,-14,-5,-5
508778497,0.0714111328125,-0.62127685546875,-0.3553466796875,0.6947021484375,-6668,-4727,-218,-14,-5,-6
508788483,0.0706787109375,-0.620849609375,-0.3568115234375,0.6944580078125,-6679,-4744,-230,-12,-5,-5
508798467,0.06988525390625,-0.620361328125,-0.35809326171875,0.69427490234375,-6699,-4814,-220,-12,-5,-4
508808452,0.06915283203125,-0.6199951171875,-0.359130859375,0.69415283203125,-6715,-4886,-214,-10,-5,-1
508818437,0.06842041015625,-0.61968994140625,-0.35980224609375,0.69415283203125,-6734,-4941,-204,-8,-4,1
508828412,0.06768798828125,-0.6195068359375,-0.36016845703125,0.6942138671875,-6733,-4985,-188,-5,-4,2
508838399,0.06707763671875,-0.61944580078125,-0.3602294921875,0.6943359375,-6730,-5022,-157,-3,-3,3
508848385,0.06658935546875,-0.619384765625,-0.36004638671875,0.6944580078125,-6738,-5054,-107,-1,-2,4
508858368,0.06634521484375,-0.61944580078125,-0.359619140625,0.6947021484375,-6741,-5043,-55,1,-1,4
508868354,0.0662841796875,-0.6195068359375,-0.35906982421875,0.6949462890625,-6747,-5015,-20,3,0,3
508878334,0.06640625,-0.61956787109375,-0.35845947265625,0.69512939453125,-6774,-4970,10,4,1,1
508888317,0.0667724609375,-0.61962890625,-0.35791015625,0.6953125,-6800,-4900,19,4,1,-1
508898296,0.06744384765625,-0.61968994140625,-0.3575439453125,0.6954345703125,-6837,-4842,-8,5,2,-3
508908277,0.068115234375,-0.61968994140625,-0.35723876953125,0.69549560546875,-6874,-4788,-23,5,1,-4
508918266,0.06884765625,-0.61968994140625,-0.35687255859375,0.69561767578125,-6911,-4732,-56,5,2,-4
508928253,0.06939697265625,-0.61968994140625,-0.3565673828125,0.69573974609375,-6945,-4687,-77,4,1,-3
508938240,0.06964111328125,-0.6197509765625,-0.3560791015625,0.6959228515625,-6973,-4638,-95,4,0,-1
508948227,0.069580078125,-0.61981201171875,-0.35546875,0.6961669921875,-6966,-4585,-94,3,-1,2
508958208,0.0692138671875,-0.61993408203125,-0.35479736328125,0.69647216796875,-6956,-4553,-100,2,-2,5
508968181,0.06854248046875,-0.6199951171875,-0.35406494140625,0.69677734375,-6947,-4531,-102,1,-3,6
508978156,0.06768798828125,-0.62005615234375,-0.3533935546875,0.69720458984375,-6923,-4514,-102,0,-4,7
508988141,0.0667724609375,-0.62005615234375,-0.352783203125,0.69757080078125,-6900,-4487,-98,-1,-5,7
508998122,0.06573486328125,-0.61993408203125,-0.3524169921875,0.697998046875,-6866,-4470,-122,-3,-6,5
509008103,0.06475830078125,-0.61968994140625,-0.35223388671875,0.6983642578125,-6837,-4462,-144,-3,-7,5
509018087,0.06365966796875,-0.61944580078125,-0.35223388671875,0.69866943359375,-6801,-4462,-175,-4,-7,4
509028069,0.0626220703125,-0.619140625,-0.352294921875,0.69903564453125,-6748,-4480,-196,-5,-8,4
509038052,0.0615234375,-0.61883544921875,-0.35247802734375,0.6993408203125,-6687,-4509,-221,-6,-8,4
509048036,0.06036376953125,-0.6185302734375,-0.35260009765625,0.69964599609375,-6647,-4525,-221,-6,-8,5
509058022,0.05926513671875,-0.61822509765625,-0.352783203125,0.69989013671875,-6588,-4560,-208,-6,-7,5
509068000,0.05828857421875,-0.617919921875,-0.3529052734375,0.7001953125,-6561,-4583,-202,-5,-7,4
509077984,0.05743408203125,-0.61767578125,-0.35308837890625,0.70037841796875,-6548,-4619,-176,-5,-6,3
509087968,0.05682373046875,-0.61737060546875,-0.3533935546875,0.7005615234375,-6532,-4654,-143,-4,-5,1
