subject,Ian Lake
arm,right
label,3
hz,100.17182883594074
time,5.270943

timestamp_us,q0,q1,q2,q3,ax,ay,az,gx,gy,gz
423135759,0.52484130859375,-0.19940185546875,-0.73480224609375,0.3804931640625,4830,-6404,-1309,3,-5,2
423145743,0.5244140625,-0.19915771484375,-0.73486328125,0.381103515625,4843,-6398,-1318,4,-5,0
423155724,0.52410888671875,-0.1986083984375,-0.7349853515625,0.38165283203125,4873,-6389,-1328,5,-6,-2
423165706,0.52392578125,-0.19769287109375,-0.73516845703125,0.382080078125,4893,-6387,-1341,6,-6,-5
423175688,0.5238037109375,-0.19635009765625,-0.7353515625,0.38250732421875,4924,-6378,-1352,7,-7,-8
423185673,0.5238037109375,-0.19476318359375,-0.735595703125,0.38287353515625,4943,-6354,-1357,8,-7,-9
423195653,0.52386474609375,-0.1929931640625,-0.73583984375,0.38323974609375,4996,-6300,-1347,9,-7,-11
423205638,0.52386474609375,-0.19110107421875,-0.736083984375,0.3836669921875,5026,-6267,-1339,10,-8,-10
423215620,0.52392578125,-0.18914794921875,-0.73626708984375,0.38427734375,5059,-6236,-1336,11,-8,-10
423225604,0.5238037109375,-0.18719482421875,-0.73651123046875,0.3848876953125,5099,-6189,-1338,11,-9,-9
423235592,0.523681640625,-0.185302734375,-0.73675537109375,0.385498046875,5136,-6142,-1341,11,-9,-8
423245577,0.52362060546875,-0.1834716796875,-0.7369384765625,0.38616943359375,5195,-6084,-1345,11,-9,-8
423255557,0.5235595703125,-0.181640625,-0.73712158203125,0.38671875,5251,-6028,-1343,10,-8,-8
423265541,0.5235595703125,-0.1798095703125,-0.73736572265625,0.3870849609375,5290,-5985,-1328,9,-8,-9
423275523,0.52362060546875,-0.1781005859375,-0.73760986328125,0.3873291015625,5326,-5941,-1309,8,-7,-9
423285505,0.5238037109375,-0.1763916015625,-0.73785400390625,0.38739013671875,5354,-5898,-1291,7,-6,-10
423295489,0.52410888671875,-0.1748046875,-0.73809814453125,0.3873291015625,5382,-5858,-1269,5,-5,-10
423305469,0.5244140625,-0.17340087890625,-0.73834228515625,0.38702392578125,5393,-5838,-1241,3,-4,-10
423315459,0.52484130859375,-0.172119140625,-0.73858642578125,0.38653564453125,5407,-5822,-1211,1,-3,-11
423325443,0.5252685546875,-0.1710205078125,-0.7388916015625,0.3858642578125,5407,-5814,-1195,0,-2,-10
423335426,0.52569580078125,-0.170166015625,-0.73919677734375,0.3851318359375,5380,-5806,-1165,-2,-1,-9
423345406,0.5260009765625,-0.169677734375,-0.73944091796875,0.3843994140625,5361,-5799,-1146,-4,0,-6
423355389,0.52618408203125,-0.16961669921875,-0.73968505859375,0.3837890625,5326,-5815,-1138,-5,0,-3
423365370,0.52606201171875,-0.16998291015625,-0.7398681640625,0.38336181640625,5290,-5843,-1140,-6,0,1
423375350,0.5257568359375,-0.1707763671875,-0.74005126953125,0.383056640625,5264,-5868,-1144,-7,-1,5
423385332,0.5252685546875,-0.171875,-0.74017333984375,0.38299560546875,5215,-5913,-1165,-7,-1,7
423395312,0.52459716796875,-0.17315673828125,-0.7403564453125,0.3829345703125,5179,-5948,-1179,-8,-1,9
423405294,0.52386474609375,-0.17449951171875,-0.7406005859375,0.3829345703125,5140,-5963,-1191,-8,-2,9
423415273,0.52301025390625,-0.17578125,-0.74090576171875,0.3829345703125,5116,-5977,-1225,-8,-3,9
423425266,0.52215576171875,-0.177001953125,-0.7412109375,0.3829345703125,5104,-5999,-1266,-8,-3,9
423435249,0.52130126953125,-0.17803955078125,-0.74163818359375,0.3828125,5100,-6022,-1309,-8,-4,7
423445230,0.52044677734375,-0.17889404296875,-0.74212646484375,0.38262939453125,5101,-6057,-1353,-8,-5,5
423455219,0.51971435546875,-0.17938232421875,-0.74267578125,0.38226318359375,5116,-6081,-1390,-7,-5,2
423465208,0.51910400390625,-0.17962646484375,-0.7432861328125,0.38189697265625,5129,-6096,-1422,-6,-5,0
423475187,0.51849365234375,-0.17962646484375,-0.74383544921875,0.38153076171875,5131,-6087,-1455,-5,-5,-1
423485154,0.51800537109375,-0.1795654296875,-0.74444580078125,0.381103515625,5128,-6065,-1487,-5,-5,-2
423495138,0.517578125,-0.17938232421875,-0.74505615234375,0.380615234375,5130,-6040,-1512,-4,-5,-3
423505120,0.5172119140625,-0.17901611328125,-0.74560546875,0.38018798828125,5144,-6023,-1527,-3,-5,-4
423515104,0.5169677734375,-0.17852783203125,-0.74615478515625,0.379638671875,5159,-6023,-1536,-3,-5,-6
423525086,0.51678466796875,-0.1778564453125,-0.74676513671875,0.37896728515625,5176,-6016,-1547,-3,-5,-8
423535071,0.516845703125,-0.17694091796875,-0.74737548828125,0.378173828125,5211,-6029,-1548,-3,-4,-11
423545051,0.51702880859375,-0.17578125,-0.74798583984375,0.37713623046875,5255,-6049,-1552,-3,-4,-13
423555036,0.51739501953125,-0.17449951171875,-0.7486572265625,0.37603759765625,5316,-6079,-1546,-3,-3,-15
423565023,0.517822265625,-0.173095703125,-0.74920654296875,0.3748779296875,5382,-6100,-1540,-3,-3,-16
423575000,0.51837158203125,-0.1717529296875,-0.749755859375,0.373779296875,5442,-6141,-1515,-3,-2,-15
423584985,0.51885986328125,-0.17059326171875,-0.75018310546875,0.37274169921875,5485,-6200,-1497,-3,-1,-13
423594971,0.519287109375,-0.1697998046875,-0.75042724609375,0.37188720703125,5516,-6261,-1462,-3,-1,-10
423604958,0.51971435546875,-0.16925048828125,-0.7506103515625,0.37127685546875,5533,-6347,-1439,-3,0,-8
423614942,0.52008056640625,-0.1690673828125,-0.7506103515625,0.37091064453125,5544,-6450,-1393,-2,1,-5
423624919,0.52032470703125,-0.16912841796875,-0.75042724609375,0.37078857421875,5577,-6594,-1344,-2,2,-2
423634912,0.5205078125,-0.16961669921875,-0.7501220703125,0.3709716796875,5603,-6760,-1307,-2,3,2
423644884,0.52069091796875,-0.1705322265625,-0.74957275390625,0.3714599609375,5671,-6973,-1279,-1,4,6
423654872,0.52069091796875,-0.17181396484375,-0.74884033203125,0.372314453125,5761,-7225,-1262,0,5,11
423664851,0.52056884765625,-0.17364501953125,-0.74786376953125,0.3736572265625,5856,-7507,-1257,1,5,16
423674835,0.52020263671875,-0.17596435546875,-0.74664306640625,0.37542724609375,5950,-7822,-1280,2,6,22
423684819,0.51959228515625,-0.178955078125,-0.74517822265625,0.37774658203125,6045,-8159,-1328,3,7,30
423694806,0.5186767578125,-0.18267822265625,-0.743408203125,0.38067626953125,6128,-8502,-1367,4,8,38
423704790,0.5174560546875,-0.1871337890625,-0.7413330078125,0.38421630859375,6146,-8814,-1418,5,10,46
423714772,0.5159912109375,-0.1923828125,-0.7388916015625,0.38836669921875,6136,-9070,-1440,6,11,55
423724750,0.51397705078125,-0.1986083984375,-0.736083984375,0.39312744140625,6112,-9313,-1459,6,11,65
423734733,0.51165771484375,-0.20562744140625,-0.7330322265625,0.3983154296875,6083,-9522,-1500,6,12,74
423744714,0.50885009765625,-0.21337890625,-0.72967529296875,0.40380859375,5992,-9695,-1522,5,13,81
423754699,0.50567626953125,-0.22186279296875,-0.72607421875,0.40966796875,5830,-9842,-1524,4,14,88
423764685,0.5020751953125,-0.2310791015625,-0.72222900390625,0.415771484375,5599,-9942,-1499,2,14,95
423774670,0.49798583984375,-0.24102783203125,-0.7181396484375,0.42205810546875,5344,-9965,-1475,0,14,104
423784650,0.49322509765625,-0.251953125,-0.7137451171875,0.42864990234375,5093,-10002,-1453,-2,14,113
423794630,0.4879150390625,-0.26361083984375,-0.7091064453125,0.43548583984375,4843,-10065,-1451,-4,14,121
423804613,0.48199462890625,-0.2760009765625,-0.70416259765625,0.44232177734375,4590,-10171,-1459,-7,14,128
423814595,0.47552490234375,-0.28887939453125,-0.6990966796875,0.44915771484375,4348,-10314,-1479,-9,14,132
423824580,0.46868896484375,-0.3018798828125,-0.69390869140625,0.4556884765625,4118,-10455,-1513,-12,13,134
423834564,0.4615478515625,-0.31500244140625,-0.688720703125,0.4620361328125,3884,-10592,-1568,-14,13,135
423844545,0.4539794921875,-0.32818603515625,-0.6834716796875,0.468017578125,3666,-10701,-1639,-17,12,137
423854529,0.44598388671875,-0.34161376953125,-0.6781005859375,0.473876953125,3383,-10751,-1700,-19,10,141
423864510,0.4371337890625,-0.3555908203125,-0.67236328125,0.47998046875,3068,-10745,-1729,-20,9,150
423874494,0.42730712890625,-0.37030029296875,-0.66607666015625,0.48651123046875,2758,-10713,-1759,-21,7,163
423884483,0.41632080078125,-0.38580322265625,-0.6590576171875,0.49346923828125,2424,-10664,-1787,-22,5,175
423894465,0.4044189453125,-0.40185546875,-0.6513671875,0.50067138671875,2074,-10610,-1797,-23,3,184
423904449,0.39178466796875,-0.41796875,-0.6431884765625,0.50799560546875,1709,-10516,-1803,-23,1,189
423914433,0.37872314453125,-0.43389892578125,-0.63470458984375,0.5152587890625,1338,-10393,-1795,-23,-1,190
423924403,0.3653564453125,-0.44940185546875,-0.62591552734375,0.5223388671875,1022,-10265,-1802,-22,-3,190
423934387,0.351806640625,-0.46435546875,-0.61700439453125,0.52911376953125,687,-10159,-1822,-22,-5,188
423944371,0.33819580078125,-0.4786376953125,-0.6080322265625,0.53558349609375,345,-10019,-1831,-22,-7,184
423954355,0.32452392578125,-0.49237060546875,-0.598876953125,0.54193115234375,17,-9793,-1823,-21,-9,183
423964337,0.31048583984375,-0.5057373046875,-0.58935546875,0.5482177734375,-293,-9545,-1820,-19,-11,185
423974321,0.2960205078125,-0.5189208984375,-0.57928466796875,0.5545654296875,-593,-9298,-1817,-18,-13,189
423984304,0.281005859375,-0.5318603515625,-0.56878662109375,0.5609130859375,-894,-9026,-1805,-18,-15,192
423994290,0.265625,-0.54443359375,-0.557861328125,0.56732177734375,-1199,-8728,-1774,-17,-18,194
424004277,0.2498779296875,-0.55657958984375,-0.54656982421875,0.57366943359375,-1472,-8431,-1743,-16,-21,195
424014260,0.2340087890625,-0.5679931640625,-0.53515625,0.579833984375,-1720,-8186,-1726,-15,-24,192
424024241,0.2183837890625,-0.57861328125,-0.52392578125,0.585693359375,-1942,-7993,-1765,-15,-26,186
424034223,0.20318603515625,-0.5882568359375,-0.5130615234375,0.59112548828125,-2148,-7799,-1811,-14,-28,177
424044214,0.1884765625,-0.596923828125,-0.502685546875,0.59619140625,-2312,-7626,-1845,-14,-29,169
424054198,0.17431640625,-0.604736328125,-0.4927978515625,0.60089111328125,-2451,-7439,-1883,-14,-30,161
424064174,0.16058349609375,-0.61181640625,-0.48321533203125,0.6053466796875,-2571,-7295,-1953,-13,-32,155
424074150,0.147216796875,-0.6182861328125,-0.473876953125,0.6094970703125,-2697,-7189,-2015,-12,-32,150
424084133,0.1341552734375,-0.62432861328125,-0.4647216796875,0.6134033203125,-2843,-7082,-2074,-12,-33,146
424094116,0.12115478515625,-0.62994384765625,-0.45556640625,0.6171875,-2996,-6969,-2118,-11,-34,145
424104098,0.108154296875,-0.63543701171875,-0.44622802734375,0.620849609375,-3138,-6813,-2161,-11,-34,145
424114085,0.09490966796875,-0.64080810546875,-0.4365234375,0.6243896484375,-3299,-6621,-2178,-11,-35,149
424124064,0.08123779296875,-0.6461181640625,-0.42626953125,0.6279296875,-3477,-6402,-2158,-11,-36,154
424134048,0.067138671875,-0.65142822265625,-0.4154052734375,0.63128662109375,-3653,-6164,-2138,-10,-36,158
424144035,0.052490234375,-0.65673828125,-0.40411376953125,0.634521484375,-3881,-5920,-2132,-11,-37,162
424154022,0.0377197265625,-0.661865234375,-0.392578125,0.63751220703125,-4105,-5679,-2124,-11,-37,163
424163999,0.02301025390625,-0.6666259765625,-0.38104248046875,0.6402587890625,-4355,-5422,-2147,-12,-38,160
424173981,0.008544921875,-0.67095947265625,-0.36981201171875,0.64263916015625,-4587,-5166,-2159,-12,-38,154
424183964,-0.00543212890625,-0.6748046875,-0.3590087890625,0.644775390625,-4796,-4916,-2178,-13,-37,148
424193948,-0.0189208984375,-0.67828369140625,-0.34869384765625,0.64654541015625,-4989,-4696,-2236,-14,-36,141
424203929,-0.03179931640625,-0.681396484375,-0.3388671875,0.64801025390625,-5159,-4473,-2283,-14,-35,135
424213913,-0.04443359375,-0.68426513671875,-0.3292236328125,0.649169921875,-5328,-4252,-2297,-15,-34,132
424223896,-0.056884765625,-0.68701171875,-0.3197021484375,0.65008544921875,-5491,-4007,-2312,-15,-33,131
424233879,-0.0693359375,-0.689697265625,-0.30999755859375,0.65069580078125,-5625,-3765,-2289,-15,-31,131
424243863,-0.08184814453125,-0.69232177734375,-0.30023193359375,0.6510009765625,-5756,-3535,-2251,-16,-30,132
424253845,-0.0943603515625,-0.69488525390625,-0.29046630859375,0.65106201171875,-5879,-3308,-2207,-17,-29,132
424263828,-0.106689453125,-0.69732666015625,-0.28070068359375,0.65081787109375,-5978,-3091,-2144,-17,-27,131
424273807,-0.11895751953125,-0.69964599609375,-0.27099609375,0.65032958984375,-6065,-2857,-2069,-17,-26,129
424283800,-0.13104248046875,-0.70184326171875,-0.2613525390625,0.64959716796875,-6159,-2626,-1986,-18,-24,128
424293782,-0.1429443359375,-0.703857421875,-0.2518310546875,0.648681640625,-6231,-2422,-1884,-18,-23,127
424303759,-0.15472412109375,-0.70574951171875,-0.24237060546875,0.6474609375,-6286,-2234,-1778,-19,-22,126
424313743,-0.16656494140625,-0.7076416015625,-0.2327880859375,0.64605712890625,-6330,-2049,-1679,-19,-20,128
424323725,-0.178466796875,-0.70941162109375,-0.22308349609375,0.64434814453125,-6355,-1879,-1574,-19,-19,130
424337030,-0.1904296875,-0.71112060546875,-0.21319580078125,0.642333984375,-6374,-1691,-1450,-19,-18,131
424343695,-0.202392578125,-0.7127685546875,-0.20318603515625,0.64013671875,-6388,-1506,-1338,-20,-17,132
424353677,-0.21435546875,-0.7142333984375,-0.193115234375,0.6376953125,-6383,-1330,-1212,-20,-16,132
424363659,-0.2261962890625,-0.71551513671875,-0.18304443359375,0.6351318359375,-6387,-1163,-1105,-19,-16,131
424373642,-0.2379150390625,-0.71661376953125,-0.17303466796875,0.63238525390625,-6404,-1010,-1000,-19,-16,131
424383625,-0.24951171875,-0.71759033203125,-0.16290283203125,0.6295166015625,-6426,-853,-915,-19,-16,131
424393609,-0.2611083984375,-0.71826171875,-0.15264892578125,0.6265869140625,-6460,-686,-816,-19,-17,132
424403592,-0.272705078125,-0.7186279296875,-0.1422119140625,0.62371826171875,-6472,-478,-671,-18,-18,132
424413577,-0.2841796875,-0.71868896484375,-0.131591796875,0.620849609375,-6475,-227,-533,-17,-20,132
424423556,-0.29559326171875,-0.71826171875,-0.1207275390625,0.6181640625,-6458,45,-372,-16,-23,131
424433539,-0.306884765625,-0.71746826171875,-0.1097412109375,0.61566162109375,-6421,347,-218,-15,-26,130
424443524,-0.31805419921875,-0.71624755859375,-0.09869384765625,0.61334228515625,-6363,702,-41,-15,-30,128
424453506,-0.3289794921875,-0.7144775390625,-0.08758544921875,0.611328125,-6270,1103,136,-14,-33,123
424463489,-0.33953857421875,-0.71221923828125,-0.07659912109375,0.609619140625,-6143,1549,320,-13,-37,118
424473469,-0.34979248046875,-0.70941162109375,-0.06591796875,0.6083984375,-5984,2024,519,-13,-41,111
424483460,-0.3592529296875,-0.70611572265625,-0.05572509765625,0.607666015625,-5804,2483,718,-13,-43,100
424493444,-0.36798095703125,-0.702392578125,-0.04632568359375,0.6075439453125,-5615,2914,915,-13,-46,88
424503428,-0.375732421875,-0.69818115234375,-0.037841796875,0.60821533203125,-5406,3285,1100,-12,-49,74
424513403,-0.3824462890625,-0.69366455078125,-0.0302734375,0.60968017578125,-5181,3622,1268,-12,-53,61
424523386,-0.38812255859375,-0.68878173828125,-0.0234375,0.6119384765625,-4979,3913,1413,-10,-56,49
424533368,-0.39263916015625,-0.68365478515625,-0.01739501953125,0.61492919921875,-4803,4181,1550,-8,-59,35
424543352,-0.39605712890625,-0.6783447265625,-0.01202392578125,0.6187744140625,-4620,4402,1684,-6,-62,22
424553332,-0.3980712890625,-0.6729736328125,-0.00738525390625,0.6234130859375,-4444,4579,1756,-2,-64,8
424563316,-0.39862060546875,-0.6676025390625,-0.00360107421875,0.62884521484375,-4253,4688,1783,2,-66,-8
424573292,-0.3974609375,-0.6624755859375,-0.00067138671875,0.635009765625,-4080,4728,1775,7,-66,-23
424583271,-0.394775390625,-0.65753173828125,0.00146484375,0.64178466796875,-3887,4695,1716,12,-66,-37
424593263,-0.39056396484375,-0.65289306640625,0.00299072265625,0.64898681640625,-3751,4613,1649,17,-65,-48
424603247,-0.38531494140625,-0.64862060546875,0.00408935546875,0.6563720703125,-3685,4527,1577,21,-64,-55
424613227,-0.37939453125,-0.64471435546875,0.00531005859375,0.66363525390625,-3664,4473,1514,26,-62,-57
424623218,-0.37298583984375,-0.64117431640625,0.0067138671875,0.670654296875,-3664,4416,1440,31,-59,-57
424633202,-0.3660888671875,-0.6380615234375,0.00830078125,0.6773681640625,-3650,4311,1362,35,-56,-58
424643178,-0.35858154296875,-0.6353759765625,0.00958251953125,0.683837890625,-3645,4183,1267,38,-52,-62
424653155,-0.35015869140625,-0.63330078125,0.01043701171875,0.69012451171875,-3634,4046,1177,41,-46,-70
424663137,-0.34063720703125,-0.63177490234375,0.010498046875,0.69622802734375,-3679,3907,1098,44,-41,-80
424673123,-0.32977294921875,-0.63079833984375,0.00958251953125,0.7022705078125,-3751,3781,1041,47,-34,-92
424683107,-0.31768798828125,-0.63037109375,0.00762939453125,0.708251953125,-3850,3661,997,48,-28,-105
424693089,-0.3043212890625,-0.63043212890625,0.004638671875,0.714111328125,-3954,3554,961,50,-22,-117
424703074,-0.28997802734375,-0.630859375,0.00079345703125,0.71966552734375,-4098,3469,921,51,-17,-126
424713054,-0.27490234375,-0.63153076171875,-0.00384521484375,0.7249755859375,-4272,3387,888,50,-13,-132
424723038,-0.2593994140625,-0.6324462890625,-0.009033203125,0.7298583984375,-4466,3299,883,49,-8,-137
424733028,-0.24365234375,-0.63336181640625,-0.01470947265625,0.73431396484375,-4656,3206,888,47,-5,-139
424743012,-0.22784423828125,-0.63427734375,-0.0208740234375,0.73846435546875,-4878,3133,884,45,-3,-141
424752987,-0.21209716796875,-0.63507080078125,-0.02734375,0.74224853515625,-5110,3068,886,43,-1,-142
424762967,-0.1964111328125,-0.63568115234375,-0.03411865234375,0.74578857421875,-5335,2982,886,39,-1,-143
424772956,-0.1807861328125,-0.63604736328125,-0.0413818359375,0.7490234375,-5523,2881,896,36,0,-146
424782937,-0.16510009765625,-0.6361083984375,-0.04925537109375,0.75213623046875,-5653,2696,879,32,-1,-149
424792918,-0.14923095703125,-0.6357421875,-0.057861328125,0.755126953125,-5739,2476,857,28,-2,-153
424802901,-0.133056640625,-0.635009765625,-0.0672607421875,0.75799560546875,-5771,2217,836,24,-3,-160
424812883,-0.11663818359375,-0.63372802734375,-0.07745361328125,0.76080322265625,-5811,1965,838,20,-4,-165
424822868,-0.10009765625,-0.6319580078125,-0.08837890625,0.763427734375,-5864,1711,864,16,-6,-169
424832849,-0.08343505859375,-0.62957763671875,-0.099853515625,0.76593017578125,-5914,1457,889,12,-8,-172
424842834,-0.06689453125,-0.626708984375,-0.11175537109375,0.76824951171875,-5941,1184,906,9,-10,-174
424852819,-0.0504150390625,-0.623291015625,-0.12408447265625,0.77044677734375,-5919,863,929,5,-13,-176
424862804,-0.03399658203125,-0.6192626953125,-0.1368408203125,0.77239990234375,-5879,492,937,2,-16,-177
424872785,-0.01763916015625,-0.61468505859375,-0.14984130859375,0.77423095703125,-5836,110,949,0,-19,-177
424882770,-0.0015869140625,-0.60943603515625,-0.1629638671875,0.77587890625,-5800,-242,1010,-2,-21,-176
424892743,0.0140380859375,-0.603759765625,-0.1759033203125,0.77740478515625,-5756,-546,1054,-3,-24,-172
424902727,0.0291748046875,-0.59759521484375,-0.1885986328125,0.77874755859375,-5668,-828,1094,-4,-27,-169
424912708,0.04400634765625,-0.5909423828125,-0.2012939453125,0.77996826171875,-5533,-1152,1136,-6,-29,-168
424922692,0.05902099609375,-0.5838623046875,-0.21435546875,0.78082275390625,-5339,-1537,1150,-8,-30,-171
424932676,0.074462890625,-0.5762939453125,-0.2279052734375,0.78125,-5153,-1959,1180,-9,-31,-177
424942659,0.09033203125,-0.5682373046875,-0.24188232421875,0.78131103515625,-4997,-2377,1194,-9,-32,-182
424952641,0.10638427734375,-0.5595703125,-0.25604248046875,0.781005859375,-4844,-2744,1243,-9,-33,-184
424962625,0.1220703125,-0.5506591796875,-0.26983642578125,0.7803955078125,-4695,-2992,1288,-10,-34,-179
424972606,0.13677978515625,-0.54168701171875,-0.2828369140625,0.7796630859375,-4547,-3163,1341,-10,-35,-169
424982589,0.150146484375,-0.53271484375,-0.29498291015625,0.77886962890625,-4352,-3369,1377,-11,-36,-157
424992577,0.16265869140625,-0.5238037109375,-0.306640625,0.77789306640625,-4136,-3661,1417,-11,-37,-150
425002554,0.1749267578125,-0.5146484375,-0.3182373046875,0.77667236328125,-3937,-4037,1466,-12,-38,-150
425012536,0.18780517578125,-0.5050048828125,-0.33038330078125,0.77496337890625,-3706,-4467,1516,-13,-38,-159
425022520,0.2017822265625,-0.4945068359375,-0.34332275390625,0.7725830078125,-3474,-4884,1548,-14,-38,-171
425032503,0.216796875,-0.48333740234375,-0.35693359375,0.7694091796875,-3250,-5237,1568,-14,-38,-184
425042487,0.23223876953125,-0.4715576171875,-0.37078857421875,0.765625,-3026,-5559,1586,-15,-38,-189
425052466,0.24755859375,-0.45941162109375,-0.38458251953125,0.76141357421875,-2783,-5858,1607,-16,-39,-188
425062459,0.26226806640625,-0.4471435546875,-0.39801025390625,0.7568359375,-2526,-6169,1640,-17,-40,-182
425072440,0.2762451171875,-0.4349365234375,-0.4110107421875,0.7520751953125,-2279,-6526,1672,-17,-40,-176
425082424,0.28961181640625,-0.42254638671875,-0.42364501953125,0.74700927734375,-1989,-6898,1695,-17,-41,-173
425092400,0.30291748046875,-0.409912109375,-0.4361572265625,0.7415771484375,-1678,-7259,1713,-17,-42,-174
425102385,0.31622314453125,-0.3968505859375,-0.4486083984375,0.7357177734375,-1342,-7563,1738,-17,-42,-177
425112365,0.3294677734375,-0.38348388671875,-0.46087646484375,0.7293701171875,-1024,-7813,1748,-17,-41,-178
425122348,0.3424072265625,-0.3701171875,-0.47283935546875,0.72265625,-710,-8042,1784,-18,-41,-175
425132332,0.35479736328125,-0.35687255859375,-0.48431396484375,0.7156982421875,-405,-8259,1825,-18,-40,-171
425142315,0.36639404296875,-0.3438720703125,-0.495361328125,0.7086181640625,-122,-8455,1879,-19,-40,-164
425152297,0.377197265625,-0.331298828125,-0.50579833984375,0.7015380859375,149,-8622,1935,-20,-40,-156
425162278,0.38714599609375,-0.31915283203125,-0.51580810546875,0.69439697265625,444,-8829,2013,-22,-39,-149
425172270,0.39630126953125,-0.30743408203125,-0.525390625,0.687255859375,741,-9063,2095,-23,-39,-142
425182252,0.40496826171875,-0.29595947265625,-0.53472900390625,0.67999267578125,1045,-9246,2157,-25,-38,-139
425192240,0.4132080078125,-0.28472900390625,-0.5439453125,0.67254638671875,1327,-9372,2213,-27,-38,-136
425202224,0.42083740234375,-0.27392578125,-0.552978515625,0.6649169921875,1617,-9458,2229,-30,-37,-131
425212208,0.4278564453125,-0.26361083984375,-0.561767578125,0.65716552734375,1876,-9540,2240,-32,-37,-125
425222189,0.43426513671875,-0.2537841796875,-0.57037353515625,0.64935302734375,2148,-9587,2242,-35,-36,-120
425232162,0.44012451171875,-0.244384765625,-0.57867431640625,0.6416015625,2390,-9657,2208,-36,-35,-115
425242144,0.44561767578125,-0.2353515625,-0.5867919921875,0.6337890625,2641,-9740,2161,-37,-35,-112
425252129,0.45111083984375,-0.226318359375,-0.59478759765625,0.62567138671875,2951,-9862,2132,-38,-33,-115
425262113,0.45721435546875,-0.21685791015625,-0.6029052734375,0.6168212890625,3285,-10001,2051,-39,-31,-124
425272095,0.4642333984375,-0.2066650390625,-0.61114501953125,0.60687255859375,3641,-10095,1973,-40,-29,-138
425282079,0.47222900390625,-0.1956787109375,-0.619384765625,0.5958251953125,4032,-10185,1886,-41,-26,-150
425292062,0.4808349609375,-0.184326171875,-0.62750244140625,0.583984375,4399,-10265,1788,-42,-23,-156
425302044,0.4893798828125,-0.1732177734375,-0.63519287109375,0.5718994140625,4700,-10222,1676,-42,-20,-153
425312030,0.4970703125,-0.16326904296875,-0.64208984375,0.560302734375,4928,-10124,1570,-42,-17,-138
425322016,0.50347900390625,-0.15496826171875,-0.6483154296875,0.54974365234375,5096,-9980,1463,-42,-15,-118
425331992,0.50830078125,-0.14862060546875,-0.6536865234375,0.54052734375,5207,-9809,1374,-41,-13,-95
425341976,0.51177978515625,-0.14410400390625,-0.658447265625,0.53265380859375,5261,-9646,1309,-41,-12,-74
425351958,0.51409912109375,-0.1412353515625,-0.66259765625,0.5260009765625,5267,-9509,1244,-40,-10,-56
425361943,0.51568603515625,-0.13946533203125,-0.666259765625,0.520263671875,5274,-9441,1207,-39,-8,-45
425371926,0.51702880859375,-0.13824462890625,-0.6695556640625,0.51495361328125,5274,-9459,1151,-37,-7,-42
425381912,0.5186767578125,-0.13690185546875,-0.67266845703125,0.50958251953125,5264,-9511,1074,-36,-5,-46
425391892,0.52093505859375,-0.13494873046875,-0.6756591796875,0.50384521484375,5270,-9606,983,-34,-2,-55
425401872,0.52392578125,-0.13226318359375,-0.6785888671875,0.49755859375,5317,-9763,882,-32,-1,-66
425411859,0.52752685546875,-0.12872314453125,-0.681396484375,0.49078369140625,5360,-9967,781,-30,1,-76
425421839,0.53167724609375,-0.12457275390625,-0.68402099609375,0.483642578125,5438,-10207,699,-28,2,-83
425431823,0.535888671875,-0.1201171875,-0.6865234375,0.47650146484375,5519,-10439,641,-26,2,-84
425441802,0.53985595703125,-0.11602783203125,-0.68865966796875,0.46990966796875,5571,-10622,622,-23,2,-77
425451802,0.54302978515625,-0.11285400390625,-0.69036865234375,0.4644775390625,5610,-10743,641,-21,2,-63
425461778,0.54510498046875,-0.11114501953125,-0.6915283203125,0.460693359375,5604,-10782,674,-18,1,-41
425471755,0.5457763671875,-0.111328125,-0.69219970703125,0.45892333984375,5558,-10740,728,-14,1,-15
425481740,0.544921875,-0.1136474609375,-0.6922607421875,0.45928955078125,5455,-10630,836,-11,0,13
425491719,0.5426025390625,-0.11785888671875,-0.69189453125,0.46148681640625,5325,-10515,822,-9,0,37
425501702,0.5390625,-0.12353515625,-0.691162109375,0.4652099609375,5162,-10383,807,-6,-1,56
425511683,0.5347900390625,-0.13006591796875,-0.6900634765625,0.469970703125,4968,-10232,826,-4,-1,67
425521670,0.5301513671875,-0.136962890625,-0.688720703125,0.4752197265625,4774,-10091,845,-3,-2,72
425531645,0.5255126953125,-0.1436767578125,-0.68719482421875,0.48052978515625,4568,-9973,861,-1,-2,70
425541632,0.5211181640625,-0.1497802734375,-0.6856689453125,0.48565673828125,4399,-9874,891,1,-2,65
425551610,0.51715087890625,-0.15521240234375,-0.68408203125,0.4903564453125,4249,-9775,909,2,-2,58
425561593,0.5135498046875,-0.1600341796875,-0.6826171875,0.49468994140625,4138,-9721,944,2,-2,52
425571577,0.5103759765625,-0.16424560546875,-0.68109130859375,0.4986572265625,4062,-9683,956,3,-2,46
425581558,0.50732421875,-0.168212890625,-0.67962646484375,0.50238037109375,4040,-9682,966,3,-2,44
425591544,0.50439453125,-0.17218017578125,-0.6781005859375,0.506103515625,4095,-9713,962,3,-1,46
425601533,0.501220703125,-0.1763916015625,-0.676513671875,0.5098876953125,4208,-9791,958,3,0,51
425611511,0.49774169921875,-0.1812744140625,-0.6746826171875,0.51397705078125,4384,-9915,930,2,1,59
425621494,0.493896484375,-0.1868896484375,-0.6727294921875,0.51824951171875,4588,-10062,878,1,3,68
425631474,0.48956298828125,-0.193359375,-0.67047119140625,0.5228271484375,4784,-10212,840,0,5,77
425641468,0.4847412109375,-0.2008056640625,-0.66790771484375,0.52777099609375,4929,-10369,795,-2,7,87
425651448,0.4794921875,-0.20916748046875,-0.66510009765625,0.5328369140625,5078,-10532,706,-4,10,96
425661430,0.47393798828125,-0.21844482421875,-0.66204833984375,0.5379638671875,5219,-10712,616,-6,13,104
425671409,0.468017578125,-0.228515625,-0.65869140625,0.54302978515625,5309,-10844,533,-9,17,112
425681390,0.46160888671875,-0.23956298828125,-0.65496826171875,0.54815673828125,5316,-10885,453,-11,20,121
425691372,0.45458984375,-0.25177001953125,-0.65087890625,0.553466796875,5255,-10860,387,-14,23,133
425701359,0.4468994140625,-0.26519775390625,-0.64617919921875,0.55889892578125,5134,-10805,316,-16,26,145
425711344,0.4384765625,-0.27960205078125,-0.64111328125,0.56439208984375,4928,-10743,245,-19,29,154
425721327,0.42950439453125,-0.29486083984375,-0.63555908203125,0.56976318359375,4694,-10677,160,-22,31,161
425731308,0.42022705078125,-0.310546875,-0.6297607421875,0.57476806640625,4448,-10651,31,-24,34,163
425741292,0.41094970703125,-0.32635498046875,-0.6239013671875,0.57916259765625,4189,-10678,-103,-27,36,162
425751271,0.40185546875,-0.34197998046875,-0.61798095703125,0.58282470703125,3912,-10735,-245,-29,38,157
425761263,0.39306640625,-0.35748291015625,-0.61212158203125,0.585693359375,3633,-10826,-395,-31,41,153
425771245,0.38446044921875,-0.372802734375,-0.6063232421875,0.587890625,3302,-10915,-532,-34,43,150
425781224,0.3756103515625,-0.38836669921875,-0.60028076171875,0.5897216796875,2905,-10921,-635,-35,44,153
425791216,0.36602783203125,-0.404541015625,-0.59356689453125,0.5916748046875,2413,-10833,-720,-36,44,162
425801200,0.35504150390625,-0.421630859375,-0.58587646484375,0.59405517578125,1849,-10702,-763,-37,44,178
425811177,0.34246826171875,-0.4398193359375,-0.576904296875,0.5970458984375,1202,-10498,-781,-37,43,196
425821157,0.328125,-0.45892333984375,-0.566650390625,0.60052490234375,537,-10263,-798,-38,40,214
425831138,0.31219482421875,-0.478515625,-0.55511474609375,0.6044921875,-141,-9991,-805,-37,37,227
425841120,0.29486083984375,-0.49822998046875,-0.54248046875,0.60870361328125,-873,-9675,-786,-37,33,238
425851105,0.27630615234375,-0.51763916015625,-0.52899169921875,0.6131591796875,-1565,-9370,-760,-36,28,244
425861087,0.25689697265625,-0.53631591796875,-0.514892578125,0.61749267578125,-2256,-9071,-739,-36,22,246
425871070,0.23675537109375,-0.55401611328125,-0.50054931640625,0.62164306640625,-2915,-8771,-733,-37,15,245
425881052,0.21624755859375,-0.570556640625,-0.486083984375,0.62567138671875,-3522,-8431,-728,-37,9,242
425891038,0.19500732421875,-0.5860595703125,-0.471435546875,0.6295166015625,-4069,-8066,-773,-38,1,243
425901023,0.1729736328125,-0.60052490234375,-0.45654296875,0.63330078125,-4531,-7704,-800,-39,-6,244
425910995,0.1502685546875,-0.614013671875,-0.44134521484375,0.63690185546875,-4909,-7352,-871,-40,-13,247
425920978,0.12664794921875,-0.6265869140625,-0.42578125,0.640380859375,-5225,-6993,-951,-42,-20,251
425930962,0.10235595703125,-0.63824462890625,-0.40985107421875,0.64361572265625,-5467,-6651,-1062,-43,-26,254
425940946,0.0775146484375,-0.6488037109375,-0.39373779296875,0.64654541015625,-5632,-6332,-1194,-44,-32,254
425950930,0.0526123046875,-0.65826416015625,-0.37774658203125,0.6490478515625,-5699,-6033,-1303,-46,-36,251
425960912,0.02783203125,-0.66650390625,-0.362060546875,0.651123046875,-5725,-5742,-1429,-47,-41,245
425970894,0.00360107421875,-0.67352294921875,-0.346923828125,0.6527099609375,-5744,-5450,-1559,-49,-44,235
425980876,-0.0198974609375,-0.6793212890625,-0.3326416015625,0.65380859375,-5700,-5155,-1684,-50,-46,223
425990860,-0.04241943359375,-0.68402099609375,-0.3193359375,0.65447998046875,-5614,-4876,-1812,-51,-48,211
426000842,-0.06396484375,-0.68768310546875,-0.306884765625,0.65484619140625,-5513,-4596,-1908,-52,-48,199
426010826,-0.084716796875,-0.6905517578125,-0.295166015625,0.65484619140625,-5389,-4331,-1991,-53,-49,190
426020806,-0.1048583984375,-0.69281005859375,-0.283935546875,0.654541015625,-5277,-4054,-2046,-53,-49,183
426030798,-0.12457275390625,-0.6944580078125,-0.27294921875,0.65399169921875,-5151,-3775,-2076,-53,-50,180
426040781,-0.14404296875,-0.69573974609375,-0.261962890625,0.65313720703125,-5031,-3498,-2068,-53,-49,178
426050759,-0.163330078125,-0.6966552734375,-0.2509765625,0.65191650390625,-4921,-3214,-2031,-53,-49,176
426060742,-0.18218994140625,-0.6971435546875,-0.24005126953125,0.6505126953125,-4813,-2932,-1978,-52,-49,172
426070726,-0.20062255859375,-0.697265625,-0.229248046875,0.64886474609375,-4715,-2633,-1914,-51,-48,168
426080711,-0.21856689453125,-0.69696044921875,-0.2186279296875,0.6470947265625,-4616,-2307,-1829,-51,-48,163
426090692,-0.2359619140625,-0.69622802734375,-0.208251953125,0.64520263671875,-4512,-1969,-1692,-50,-48,157
426100675,-0.25274658203125,-0.69500732421875,-0.19818115234375,0.64324951171875,-4416,-1625,-1523,-49,-48,151
426110658,-0.26885986328125,-0.693359375,-0.18841552734375,0.6414794921875,-4332,-1289,-1327,-48,-48,143
426120641,-0.28424072265625,-0.69122314453125,-0.17913818359375,0.63983154296875,-4246,-955,-1113,-46,-49,134
426130625,-0.29852294921875,-0.6885986328125,-0.17059326171875,0.63848876953125,-4133,-653,-859,-44,-49,122
426140608,-0.3115234375,-0.68548583984375,-0.162841796875,0.63763427734375,-4012,-382,-613,-42,-49,108
426150591,-0.3231201171875,-0.6820068359375,-0.156005859375,0.6373291015625,-3882,-123,-358,-38,-49,92
426160577,-0.33331298828125,-0.67816162109375,-0.1500244140625,0.63763427734375,-3782,142,-86,-35,-50,77
426170555,-0.3421630859375,-0.6739501953125,-0.14471435546875,0.6385498046875,-3703,403,182,-30,-51,65
426180541,-0.349853515625,-0.6695556640625,-0.13983154296875,0.64013671875,-3657,645,456,-25,-52,54
426190525,-0.3564453125,-0.66497802734375,-0.135009765625,0.642333984375,-3620,856,748,-19,-54,46
426200507,-0.36199951171875,-0.66021728515625,-0.13018798828125,0.6451416015625,-3572,1045,1050,-13,-57,39
426210491,-0.366455078125,-0.6553955078125,-0.12518310546875,0.64849853515625,-3509,1234,1315,-5,-58,31
426220469,-0.36956787109375,-0.6505126953125,-0.1201171875,0.65252685546875,-3420,1407,1575,3,-61,21
426230458,-0.3712158203125,-0.64569091796875,-0.11517333984375,0.6573486328125,-3311,1566,1808,12,-62,9
426240442,-0.37103271484375,-0.64093017578125,-0.1104736328125,0.662841796875,-3187,1711,1980,21,-62,-5
426250415,-0.36883544921875,-0.63641357421875,-0.10626220703125,0.6690673828125,-3055,1866,2104,30,-61,-22
426260396,-0.36468505859375,-0.63214111328125,-0.1026611328125,0.67596435546875,-2948,2032,2169,37,-60,-39
426270378,-0.3585205078125,-0.62823486328125,-0.09979248046875,0.68328857421875,-2854,2236,2187,45,-57,-56
426280362,-0.35052490234375,-0.6246337890625,-0.09747314453125,0.6910400390625,-2808,2421,2179,51,-54,-70
426290346,-0.3409423828125,-0.621337890625,-0.0958251953125,0.69891357421875,-2794,2568,2123,56,-50,-82
426300327,-0.3299560546875,-0.61846923828125,-0.0948486328125,0.70684814453125,-2769,2673,2030,60,-46,-94
426310310,-0.31756591796875,-0.61590576171875,-0.0946044921875,0.71478271484375,-2747,2744,1936,63,-42,-106
426320292,-0.30364990234375,-0.6136474609375,-0.09515380859375,0.72265625,-2716,2803,1818,66,-36,-119
426330277,-0.28826904296875,-0.61163330078125,-0.09674072265625,0.73040771484375,-2702,2845,1722,68,-31,-133
426340267,-0.27142333984375,-0.60986328125,-0.09942626953125,0.7379150390625,-2686,2881,1634,68,-25,-147
426350254,-0.25311279296875,-0.6083984375,-0.10321044921875,0.74505615234375,-2713,2904,1557,69,-18,-160
426360240,-0.233642578125,-0.6070556640625,-0.1080322265625,0.7518310546875,-2738,2900,1482,68,-12,-171
426370225,-0.2130126953125,-0.6058349609375,-0.114013671875,0.75799560546875,-2746,2836,1393,66,-6,-183
426380208,-0.19140625,-0.60467529296875,-0.12109375,0.76361083984375,-2745,2716,1307,63,0,-193
426390180,-0.1688232421875,-0.60345458984375,-0.12933349609375,0.76849365234375,-2729,2558,1209,60,6,-203
426400157,-0.14532470703125,-0.6021728515625,-0.1387939453125,0.77264404296875,-2729,2353,1115,56,11,-212
426410140,-0.12127685546875,-0.60064697265625,-0.149169921875,0.77606201171875,-2772,2131,1068,52,14,-219
426420122,-0.096923828125,-0.5987548828125,-0.16033935546875,0.7786865234375,-2854,1942,1067,47,17,-224
426430105,-0.072509765625,-0.5965576171875,-0.17218017578125,0.780517578125,-2931,1749,1052,41,19,-226
426440088,-0.04827880859375,-0.59393310546875,-0.18450927734375,0.78155517578125,-3017,1539,1041,36,21,-228
426450070,-0.02410888671875,-0.59088134765625,-0.19757080078125,0.78179931640625,-3067,1243,1038,30,22,-231
426460052,0.0001220703125,-0.5872802734375,-0.21142578125,0.78131103515625,-3080,866,991,24,21,-234
426470037,0.02435302734375,-0.5830078125,-0.22607421875,0.77996826171875,-3101,452,984,18,21,-238
426480024,0.04840087890625,-0.5780029296875,-0.24127197265625,0.778076171875,-3188,33,1019,13,18,-239
426490008,0.0721435546875,-0.57220458984375,-0.2568359375,0.7755126953125,-3256,-408,1042,8,16,-240
426499984,0.09552001953125,-0.5657958984375,-0.27276611328125,0.772216796875,-3267,-892,1023,3,14,-240
426509964,0.11865234375,-0.5587158203125,-0.28912353515625,0.76824951171875,-3248,-1463,959,-1,12,-241
426519945,0.14166259765625,-0.5509033203125,-0.30609130859375,0.763427734375,-3170,-2145,897,-5,10,-244
426529927,0.1644287109375,-0.5423583984375,-0.32330322265625,0.7578125,-3099,-2862,843,-8,8,-243
426539912,0.1866455078125,-0.53326416015625,-0.3404541015625,0.7515869140625,-3045,-3561,807,-11,5,-239
426549894,0.20758056640625,-0.52374267578125,-0.35699462890625,0.7451171875,-3011,-4248,832,-12,1,-229
426559877,0.2271728515625,-0.51397705078125,-0.3726806640625,0.73846435546875,-2968,-4980,806,-12,-2,-217
426569858,0.24566650390625,-0.50390625,-0.38775634765625,0.731689453125,-2874,-5738,770,-12,-6,-210
426579842,0.26348876953125,-0.493408203125,-0.4024658203125,0.72467041015625,-2688,-6474,753,-12,-9,-206
426589824,0.28094482421875,-0.48236083984375,-0.41705322265625,0.71728515625,-2470,-7178,713,-13,-11,-205
426599804,0.29779052734375,-0.47088623046875,-0.43133544921875,0.7095947265625,-2255,-7758,691,-13,-13,-202
426609796,0.31378173828125,-0.45928955078125,-0.4449462890625,0.70184326171875,-2065,-8264,713,-13,-16,-195
426619778,0.3284912109375,-0.44769287109375,-0.457763671875,0.6943359375,-1847,-8789,724,-12,-19,-184
426629756,0.34210205078125,-0.43609619140625,-0.46990966796875,0.68695068359375,-1619,-9196,731,-11,-22,-175
426639740,0.35467529296875,-0.424560546875,-0.4813232421875,0.679931640625,-1388,-9483,754,-11,-24,-167
426649721,0.3663330078125,-0.41302490234375,-0.4923095703125,0.6729736328125,-1059,-9764,764,-11,-26,-161
426659704,0.37774658203125,-0.40118408203125,-0.50323486328125,0.66571044921875,-669,-10051,746,-11,-28,-163
426669686,0.3892822265625,-0.3887939453125,-0.51434326171875,0.6578369140625,-281,-10337,747,-13,-29,-170
426679670,0.401123046875,-0.37579345703125,-0.52569580078125,0.64923095703125,120,-10583,739,-14,-29,-176
426689655,0.4127197265625,-0.362548828125,-0.5369873046875,0.64019775390625,503,-10748,751,-17,-29,-176
426699640,0.42352294921875,-0.3494873046875,-0.5478515625,0.631103515625,885,-10815,786,-18,-30,-168
426709624,0.43304443359375,-0.337158203125,-0.55810546875,0.622314453125,1266,-10857,795,-20,-31,-155
426719608,0.4412841796875,-0.3255615234375,-0.5677490234375,0.61395263671875,1617,-10902,784,-21,-32,-143
426729590,0.44879150390625,-0.31451416015625,-0.57708740234375,0.60552978515625,2022,-10992,774,-24,-32,-139
426739577,0.45623779296875,-0.30340576171875,-0.58648681640625,0.59649658203125,2459,-11158,731,-27,-30,-142
426749557,0.46405029296875,-0.29193115234375,-0.59619140625,0.58648681640625,2886,-11361,694,-31,-28,-152
426759538,0.47222900390625,-0.28009033203125,-0.6060791015625,0.57550048828125,3292,-11494,660,-35,-27,-159
426769520,0.480224609375,-0.26837158203125,-0.615966796875,0.56390380859375,3700,-11628,621,-39,-26,-159
426779505,0.487548828125,-0.25726318359375,-0.62548828125,0.55218505859375,4047,-11726,591,-42,-25,-151
426789486,0.49383544921875,-0.24725341796875,-0.6343994140625,0.540771484375,4353,-11758,595,-45,-24,-138
426799467,0.4989013671875,-0.2386474609375,-0.6427001953125,0.5301513671875,4595,-11761,600,-47,-23,-121
426809459,0.50274658203125,-0.23175048828125,-0.650146484375,0.52044677734375,4772,-11699,603,-48,-21,-103
426819444,0.50543212890625,-0.22650146484375,-0.6568603515625,0.51165771484375,4868,-11580,583,-49,-19,-84
426829427,0.50701904296875,-0.22283935546875,-0.662841796875,0.50390625,4893,-11463,547,-50,-17,-67
426839405,0.50799560546875,-0.2205810546875,-0.66815185546875,0.496826171875,4919,-11485,500,-50,-13,-56
426849386,0.509033203125,-0.2188720703125,-0.67303466796875,0.4898681640625,4994,-11661,429,-51,-9,-56
426859367,0.5107421875,-0.21685791015625,-0.677734375,0.48248291015625,5069,-11919,395,-50,-5,-66
426869347,0.513427734375,-0.21417236328125,-0.682373046875,0.4742431640625,5139,-12184,390,-50,-1,-78
426879333,0.51690673828125,-0.21112060546875,-0.6866455078125,0.465576171875,5179,-12363,390,-49,4,-82
426889313,0.520263671875,-0.2088623046875,-0.69024658203125,0.45745849609375,5178,-12444,393,-47,8,-72
426899296,0.52264404296875,-0.20849609375,-0.69287109375,0.45086669921875,5118,-12435,365,-45,11,-46
426909275,0.5234375,-0.21099853515625,-0.6943359375,0.446533203125,4972,-12399,316,-42,14,-12
426919268,0.52252197265625,-0.21661376953125,-0.69451904296875,0.44464111328125,4798,-12392,252,-40,17,24
426929249,0.5201416015625,-0.224853515625,-0.69354248046875,0.44488525390625,4628,-12417,177,-38,20,52
426939230,0.516845703125,-0.23480224609375,-0.691650390625,0.4464111328125,4419,-12426,93,-36,22,71
426949220,0.51318359375,-0.24560546875,-0.689208984375,0.44866943359375,4183,-12431,16,-34,24,78
426959208,0.509521484375,-0.25653076171875,-0.68646240234375,0.45098876953125,3956,-12454,-80,-33,26,78
426969187,0.5059814453125,-0.26715087890625,-0.68365478515625,0.45306396484375,3733,-12513,-212,-32,27,74
426979160,0.502685546875,-0.27740478515625,-0.68084716796875,0.45477294921875,3532,-12547,-358,-32,27,70
426989141,0.4993896484375,-0.28753662109375,-0.6781005859375,0.45623779296875,3374,-12591,-527,-33,28,71
426999127,0.49578857421875,-0.2979736328125,-0.67523193359375,0.45770263671875,3232,-12642,-693,-33,27,75
427009111,0.4915771484375,-0.30889892578125,-0.672119140625,0.45953369140625,3111,-12725,-821,-34,26,83
427019095,0.486572265625,-0.32061767578125,-0.66876220703125,0.4617919921875,3005,-12849,-955,-36,24,95
427029078,0.4805908203125,-0.333251953125,-0.6649169921875,0.46466064453125,2958,-13030,-1070,-37,23,109
427039060,0.47357177734375,-0.34686279296875,-0.66058349609375,0.46807861328125,2954,-13254,-1209,-39,21,123
427049045,0.46539306640625,-0.36138916015625,-0.65570068359375,0.47210693359375,2944,-13427,-1349,-40,19,138
427059030,0.45599365234375,-0.376953125,-0.650146484375,0.4766845703125,2922,-13560,-1518,-42,17,155
427069015,0.44537353515625,-0.39361572265625,-0.64385986328125,0.48187255859375,2867,-13653,-1676,-43,15,172
427078992,0.43353271484375,-0.41119384765625,-0.63671875,0.4874267578125,2751,-13724,-1863,-45,15,186
427088976,0.4207763671875,-0.42938232421875,-0.6287841796875,0.4931640625,2652,-13752,-2051,-46,15,197
427098957,0.40740966796875,-0.447998046875,-0.62017822265625,0.49871826171875,2548,-13769,-2283,-47,15,205
427108939,0.3935546875,-0.4666748046875,-0.611083984375,0.50390625,2402,-13713,-2537,-48,16,209
427118922,0.37933349609375,-0.48541259765625,-0.6014404296875,0.5086669921875,2238,-13610,-2763,-49,17,213
427128905,0.36480712890625,-0.504150390625,-0.59124755859375,0.51300048828125,2023,-13446,-2971,-50,19,217
427138889,0.34979248046875,-0.52288818359375,-0.58056640625,0.5169677734375,1712,-13213,-3143,-51,19,220
427148871,0.334228515625,-0.54156494140625,-0.5692138671875,0.52056884765625,1294,-12889,-3248,-53,19,224
427158854,0.3177490234375,-0.560302734375,-0.55712890625,0.52410888671875,759,-12491,-3265,-56,17,231
427168838,0.30010986328125,-0.5791015625,-0.54425048828125,0.52764892578125,170,-12050,-3195,-59,14,239
427178819,0.2811279296875,-0.59783935546875,-0.53045654296875,0.53118896484375,-462,-11571,-3095,-63,10,248
427188808,0.26043701171875,-0.6165771484375,-0.5157470703125,0.5347900390625,-1133,-10993,-2968,-68,5,259
427198793,0.23779296875,-0.63525390625,-0.50006103515625,0.53839111328125,-1754,-10329,-2845,-74,-1,272
427208772,0.21307373046875,-0.65380859375,-0.4832763671875,0.54180908203125,-2309,-9614,-2750,-80,-7,284
427218750,0.18646240234375,-0.6719970703125,-0.465576171875,0.544921875,-2749,-8892,-2693,-87,-12,295
427228732,0.1583251953125,-0.68951416015625,-0.44720458984375,0.54730224609375,-3108,-8099,-2684,-94,-17,301
427238715,0.12890625,-0.7060546875,-0.42852783203125,0.54888916015625,-3410,-7247,-2647,-101,-20,302
427248697,0.0987548828125,-0.7213134765625,-0.409912109375,0.54949951171875,-3639,-6388,-2608,-107,-23,298
427258682,0.068115234375,-0.7352294921875,-0.3916015625,0.54901123046875,-3819,-5526,-2575,-113,-24,291
427268670,0.03729248046875,-0.74755859375,-0.3740234375,0.547607421875,-3975,-4707,-2498,-119,-26,280
427278648,0.00677490234375,-0.75823974609375,-0.357421875,0.5452880859375,-4088,-3964,-2436,-125,-28,266
427288630,-0.02294921875,-0.7669677734375,-0.342529296875,0.54217529296875,-4154,-3321,-2375,-129,-29,244
427298611,-0.05145263671875,-0.7738037109375,-0.32977294921875,0.5384521484375,-4147,-2775,-2371,-132,-30,220
427308593,-0.07861328125,-0.77874755859375,-0.31927490234375,0.5343017578125,-4080,-2306,-2377,-135,-32,195
427318577,-0.10418701171875,-0.78192138671875,-0.31103515625,0.53009033203125,-4018,-1939,-2400,-137,-35,170
427328559,-0.12841796875,-0.78350830078125,-0.3048095703125,0.5260009765625,-3945,-1681,-2396,-138,-38,148
427338542,-0.15142822265625,-0.78375244140625,-0.3001708984375,0.52227783203125,-3856,-1475,-2392,-137,-42,131
427348526,-0.17340087890625,-0.78277587890625,-0.2965087890625,0.51898193359375,-3767,-1331,-2398,-136,-46,119
427358510,-0.19482421875,-0.7808837890625,-0.2930908203125,0.51617431640625,-3696,-1220,-2351,-133,-52,114
427368493,-0.21588134765625,-0.7781982421875,-0.28924560546875,0.51397705078125,-3656,-1121,-2230,-129,-58,114
427378472,-0.23687744140625,-0.77490234375,-0.28424072265625,0.51251220703125,-3676,-1200,-1900,-122,-66,123
427388467,-0.2579345703125,-0.771240234375,-0.2767333984375,0.511962890625,-3689,-1361,-1391,-110,-75,140
427398452,-0.2786865234375,-0.76727294921875,-0.26641845703125,0.5125732421875,-3665,-1608,-632,-94,-85,154
427408435,-0.298095703125,-0.76275634765625,-0.25390625,0.51470947265625,-3511,-1981,353,-72,-94,157
427418413,-0.31494140625,-0.7576904296875,-0.2401123046875,0.518798828125,-3213,-2314,1268,-45,-102,146
427428395,-0.32763671875,-0.7520751953125,-0.22674560546875,0.5250244140625,-2832,-2499,1861,-18,-108,114
427438376,-0.33514404296875,-0.74591064453125,-0.215576171875,0.53375244140625,-2418,-2514,2038,8,-114,64
427448357,-0.336669921875,-0.739013671875,-0.20806884765625,0.54522705078125,-2039,-2417,1842,31,-117,3
427458339,-0.3319091796875,-0.7315673828125,-0.20458984375,0.55926513671875,-1683,-2263,1366,52,-117,-60
427468319,-0.3211669921875,-0.72369384765625,-0.2049560546875,0.57550048828125,-1352,-2064,808,71,-115,-116
427478302,-0.30511474609375,-0.71551513671875,-0.20843505859375,0.59295654296875,-1065,-1809,240,89,-109,-162
427488290,-0.28485107421875,-0.70721435546875,-0.2138671875,0.61077880859375,-928,-1498,-245,104,-101,-193
427498276,-0.2618408203125,-0.69903564453125,-0.21978759765625,0.62811279296875,-958,-1175,-635,117,-92,-205
427508258,-0.2376708984375,-0.6912841796875,-0.2247314453125,0.644287109375,-1104,-844,-936,127,-83,-199
427518242,-0.213623046875,-0.684326171875,-0.2276611328125,0.65899658203125,-1309,-513,-1146,136,-75,-181
427528222,-0.1905517578125,-0.6783447265625,-0.22802734375,0.6719970703125,-1533,-170,-1270,143,-67,-158
427538214,-0.1688232421875,-0.6732177734375,-0.2259521484375,0.68353271484375,-1721,121,-1349,147,-59,-135
427548197,-0.1478271484375,-0.6688232421875,-0.2222900390625,0.69384765625,-1861,363,-1382,150,-52,-122
427558176,-0.12689208984375,-0.66485595703125,-0.218017578125,0.70306396484375,-1991,565,-1407,152,-45,-120
427568152,-0.1051025390625,-0.6610107421875,-0.214111328125,0.71142578125,-2110,728,-1400,152,-37,-129
427578135,-0.0816650390625,-0.65704345703125,-0.21173095703125,0.7188720703125,-2163,849,-1388,151,-28,-150
427588118,-0.05584716796875,-0.65277099609375,-0.21148681640625,0.72528076171875,-2208,943,-1348,148,-19,-177
427598100,-0.02740478515625,-0.64794921875,-0.21392822265625,0.73052978515625,-2321,1036,-1259,144,-9,-209
427608085,0.0035400390625,-0.64251708984375,-0.2191162109375,0.7342529296875,-2498,1122,-1122,138,1,-240
427618064,0.03631591796875,-0.636474609375,-0.2265625,0.73638916015625,-2795,1209,-951,130,9,-263
427628047,0.07000732421875,-0.62982177734375,-0.23553466796875,0.73681640625,-3132,1259,-756,122,16,-277
427638030,0.10357666015625,-0.62255859375,-0.24554443359375,0.73577880859375,-3479,1293,-493,112,19,-283
427648017,0.13623046875,-0.61480712890625,-0.2559814453125,0.73345947265625,-3810,1279,-242,101,21,-282
427657995,0.1673583984375,-0.60662841796875,-0.2666015625,0.73004150390625,-4113,1196,-50,90,20,-275
427667977,0.19659423828125,-0.59808349609375,-0.27734375,0.72576904296875,-4434,1014,171,78,17,-266
427677958,0.22357177734375,-0.58917236328125,-0.2882080078125,0.72100830078125,-4721,724,367,66,12,-254
427687942,0.24835205078125,-0.57977294921875,-0.29913330078125,0.716064453125,-4979,358,566,55,4,-242
427697927,0.27056884765625,-0.57000732421875,-0.3099365234375,0.71124267578125,-5193,-55,728,45,-5,-227
427707906,0.2904052734375,-0.5596923828125,-0.32061767578125,0.70684814453125,-5273,-537,870,37,-17,-212
427717889,0.30828857421875,-0.548828125,-0.33148193359375,0.7027587890625,-5213,-1108,954,30,-27,-202
427727872,0.324951171875,-0.537109375,-0.34326171875,0.69866943359375,-5012,-1790,980,22,-37,-200
427737855,0.34136962890625,-0.5242919921875,-0.3564453125,0.69390869140625,-4698,-2564,985,15,-45,-209
427747843,0.35791015625,-0.51019287109375,-0.3712158203125,0.6883544921875,-4275,-3382,982,9,-52,-220
427757825,0.37445068359375,-0.494873046875,-0.38714599609375,0.681884765625,-3771,-4225,980,4,-59,-227
427767806,0.3905029296875,-0.4786376953125,-0.4036865234375,0.67486572265625,-3200,-5053,973,2,-64,-227
427777796,0.40545654296875,-0.46185302734375,-0.41998291015625,0.667724609375,-2569,-5834,967,1,-70,-218
427787778,0.4190673828125,-0.44482421875,-0.4359130859375,0.66070556640625,-1916,-6607,962,0,-74,-209
427797755,0.4317626953125,-0.42742919921875,-0.4515380859375,0.6534423828125,-1212,-7366,985,-1,-76,-204
427807735,0.44403076171875,-0.40948486328125,-0.4671630859375,0.64569091796875,-439,-8121,1001,-2,-78,-205
427817719,0.45599365234375,-0.39105224609375,-0.4827880859375,0.63726806640625,317,-8757,1002,-3,-79,-206
427827702,0.4671630859375,-0.3724365234375,-0.498046875,0.62847900390625,1007,-9238,1068,-5,-80,-201
427837686,0.47705078125,-0.35406494140625,-0.51263427734375,0.619873046875,1722,-9704,1140,-6,-82,-189
427847670,0.4857177734375,-0.33599853515625,-0.526611328125,0.6114501953125,2405,-10138,1198,-7,-84,-179
427857651,0.493408203125,-0.31805419921875,-0.5400390625,0.60308837890625,3060,-10546,1279,-7,-85,-174
427867635,0.500732421875,-0.2998046875,-0.55328369140625,0.5943603515625,3757,-10965,1325,-8,-85,-176
427877616,0.50811767578125,-0.28106689453125,-0.5665283203125,0.584716796875,4508,-11390,1346,-9,-85,-183
427887599,0.51568603515625,-0.26171875,-0.57965087890625,0.5740966796875,5248,-11810,1339,-10,-84,-190
427897582,0.52313232421875,-0.2421875,-0.59234619140625,0.56280517578125,5943,-12134,1334,-11,-83,-192
427907566,0.5299072265625,-0.22308349609375,-0.6044921875,0.5513916015625,6647,-12361,1327,-12,-81,-184
427917548,0.5355224609375,-0.20513916015625,-0.6156005859375,0.54052734375,7253,-12492,1301,-12,-78,-168
427927534,0.53961181640625,-0.18896484375,-0.6256103515625,0.53076171875,7703,-12547,1284,-13,-75,-146
427937517,0.542236328125,-0.17474365234375,-0.63458251953125,0.52227783203125,8044,-12543,1279,-13,-72,-125
427947500,0.543701171875,-0.1624755859375,-0.64239501953125,0.51507568359375,8299,-12459,1300,-13,-67,-104
427957483,0.54425048828125,-0.152099609375,-0.6492919921875,0.509033203125,8443,-12309,1328,-14,-61,-85
427967471,0.5440673828125,-0.14373779296875,-0.6551513671875,0.5040283203125,8461,-12088,1366,-14,-54,-67
427977454,0.54339599609375,-0.13714599609375,-0.66009521484375,0.50018310546875,8409,-11820,1416,-14,-47,-50
427987437,0.542236328125,-0.13238525390625,-0.6641845703125,0.49737548828125,8255,-11478,1466,-14,-40,-33
427997412,0.5406494140625,-0.12945556640625,-0.66729736328125,0.49566650390625,8030,-11096,1546,-13,-33,-17
428007396,0.5386962890625,-0.1280517578125,-0.66961669921875,0.49493408203125,7756,-10706,1597,-12,-27,-3
428017377,0.53668212890625,-0.12799072265625,-0.6712646484375,0.49493408203125,7457,-10311,1643,-12,-19,7
428027359,0.534912109375,-0.12890625,-0.6722412109375,0.49530029296875,7174,-9835,1748,-12,-13,13
428037340,0.5338134765625,-0.13018798828125,-0.6727294921875,0.4954833984375,6822,-9462,1761,-12,-5,11
428047327,0.53314208984375,-0.1319580078125,-0.6728515625,0.49566650390625,6448,-9117,1789,-12,1,11
428057303,0.53302001953125,-0.1339111328125,-0.6724853515625,0.4957275390625,6085,-8776,1882,-11,6,9
428067281,0.53369140625,-0.13580322265625,-0.6717529296875,0.49542236328125,5746,-8464,1895,-12,12,3
428077278,0.53509521484375,-0.13751220703125,-0.6708984375,0.49462890625,5423,-8177,1944,-12,17,-3
428087257,0.53729248046875,-0.138916015625,-0.66986083984375,0.4931640625,5128,-7954,1940,-13,21,-12
428097240,0.5401611328125,-0.13995361328125,-0.66888427734375,0.49114990234375,4896,-7790,1928,-13,23,-19
428107227,0.54339599609375,-0.14080810546875,-0.66790771484375,0.48870849609375,4718,-7688,1893,-14,25,-23
428117211,0.5467529296875,-0.1416015625,-0.66693115234375,0.48602294921875,4575,-7618,1838,-15,26,-24
428127197,0.550048828125,-0.142578125,-0.666015625,0.4832763671875,4462,-7581,1764,-15,26,-24
428137175,0.55316162109375,-0.14373779296875,-0.66510009765625,0.48065185546875,4388,-7558,1702,-16,25,-21
428147151,0.55584716796875,-0.1451416015625,-0.6641845703125,0.47833251953125,4345,-7556,1627,-16,24,-16
428157133,0.55816650390625,-0.14697265625,-0.663330078125,0.476318359375,4303,-7552,1533,-15,23,-11
428167117,0.5599365234375,-0.14923095703125,-0.6624755859375,0.4747314453125,4279,-7550,1424,-15,22,-4
428177101,0.5611572265625,-0.15185546875,-0.66162109375,0.47357177734375,4260,-7541,1314,-15,20,1
428187078,0.56207275390625,-0.15472412109375,-0.66082763671875,0.47271728515625,4259,-7521,1193,-15,19,6
428197061,0.56256103515625,-0.15771484375,-0.6600341796875,0.47216796875,4240,-7503,1089,-14,17,9
428207042,0.56280517578125,-0.16082763671875,-0.6593017578125,0.47186279296875,4219,-7470,988,-13,16,11
428217030,0.5628662109375,-0.16387939453125,-0.65863037109375,0.47174072265625,4205,-7436,914,-13,14,12
428227016,0.5628662109375,-0.16680908203125,-0.657958984375,0.4716796875,4176,-7404,859,-12,13,12
428236994,0.56280517578125,-0.16949462890625,-0.6573486328125,0.47161865234375,4163,-7361,788,-10,12,11
428246976,0.562744140625,-0.17181396484375,-0.6568603515625,0.47149658203125,4171,-7310,733,-10,10,9
428256959,0.5628662109375,-0.17376708984375,-0.65643310546875,0.4713134765625,4186,-7275,673,-8,10,6
428266942,0.56298828125,-0.1754150390625,-0.65606689453125,0.470947265625,4194,-7220,612,-8,9,4
428276923,0.563232421875,-0.17681884765625,-0.65576171875,0.4705810546875,4213,-7155,564,-6,9,3
428286912,0.5634765625,-0.1781005859375,-0.65545654296875,0.47021484375,4219,-7104,507,-6,8,2
428296890,0.563720703125,-0.17926025390625,-0.65509033203125,0.47003173828125,4215,-7043,466,-4,8,3
428306874,0.56390380859375,-0.18048095703125,-0.6546630859375,0.46990966796875,4202,-6998,438,-3,8,3
428316857,0.56414794921875,-0.18157958984375,-0.65423583984375,0.4698486328125,4208,-6970,418,-3,7,3
428326837,0.56439208984375,-0.1824951171875,-0.65374755859375,0.4698486328125,4225,-6942,410,-1,7,2
428340030,0.564697265625,-0.1832275390625,-0.65325927734375,0.4698486328125,4235,-6912,409,-1,7,1
428346806,0.5650634765625,-0.183837890625,-0.6527099609375,0.46990966796875,4248,-6875,422,0,7,1
428356795,0.5655517578125,-0.184326171875,-0.6522216796875,0.46990966796875,4271,-6856,442,1,6,0
428366780,0.56597900390625,-0.1846923828125,-0.65167236328125,0.46990966796875,4288,-6827,439,1,6,-1
428376754,0.56646728515625,-0.1849365234375,-0.6512451171875,0.46990966796875,4302,-6787,428,2,6,-1
428386736,0.56689453125,-0.1851806640625,-0.6507568359375,0.469970703125,4302,-6738,422,2,5,-1
428396722,0.5672607421875,-0.18536376953125,-0.6502685546875,0.4700927734375,4293,-6682,412,2,5,0
428406702,0.56756591796875,-0.18560791015625,-0.64984130859375,0.47021484375,4294,-6635,406,3,4,0
