subject,Ian Lake
arm,right
label,1
hz,100.1714117381124
time,3.034798

timestamp_us,q0,q1,q2,q3,ax,ay,az,gx,gy,gz
69467801,0.45269775390625,-0.00433349609375,-0.72344970703125,-0.521240234375,5493,6016,-325,3,1,-1
69477782,0.452880859375,-0.00408935546875,-0.72357177734375,-0.52093505859375,5505,6045,-300,3,1,-1
69487768,0.4530029296875,-0.00384521484375,-0.7237548828125,-0.5206298828125,5500,6071,-303,3,0,0
69497757,0.45306396484375,-0.00360107421875,-0.723876953125,-0.52032470703125,5506,6109,-295,3,0,-1
69507738,0.45318603515625,-0.0032958984375,-0.72406005859375,-0.52001953125,5528,6131,-297,3,0,-1
69517716,0.45318603515625,-0.00311279296875,-0.7242431640625,-0.519775390625,5540,6156,-290,3,-1,-1
69527700,0.45318603515625,-0.00286865234375,-0.724365234375,-0.51953125,5550,6172,-273,3,0,-1
69537681,0.4532470703125,-0.00274658203125,-0.7244873046875,-0.51934814453125,5552,6178,-263,2,-1,-1
69547661,0.4532470703125,-0.00262451171875,-0.72454833984375,-0.51922607421875,5552,6189,-244,2,-1,-1
69557645,0.45330810546875,-0.00250244140625,-0.72467041015625,-0.51910400390625,5552,6194,-247,1,-1,-1
69567633,0.45330810546875,-0.00250244140625,-0.7247314453125,-0.51898193359375,5562,6208,-261,1,-1,0
69577620,0.453369140625,-0.00244140625,-0.72479248046875,-0.51885986328125,5563,6212,-269,1,-1,0
69587597,0.453369140625,-0.00244140625,-0.72479248046875,-0.518798828125,5563,6219,-275,0,-1,0
69597578,0.45343017578125,-0.00244140625,-0.72479248046875,-0.518798828125,5556,6203,-271,0,-1,0
69607560,0.45343017578125,-0.0025634765625,-0.72479248046875,-0.518798828125,5547,6191,-270,-1,-1,0
69617547,0.4534912109375,-0.002685546875,-0.7247314453125,-0.51873779296875,5534,6166,-296,0,-1,0
69627537,0.4534912109375,-0.00274658203125,-0.7247314453125,-0.51873779296875,5532,6147,-299,0,-1,-1
69637513,0.4534912109375,-0.00274658203125,-0.7247314453125,-0.51873779296875,5534,6110,-320,0,-1,-1
69647492,0.45343017578125,-0.002685546875,-0.72479248046875,-0.518798828125,5529,6092,-328,0,-1,-3
69657473,0.45318603515625,-0.00250244140625,-0.724853515625,-0.5189208984375,5511,6083,-351,0,-1,-3
69667455,0.4530029296875,-0.00225830078125,-0.72491455078125,-0.5189208984375,5505,6070,-375,1,-1,-3
69677443,0.4527587890625,-0.0020751953125,-0.72503662109375,-0.51898193359375,5481,6042,-386,1,-2,-3
69687429,0.45257568359375,-0.00189208984375,-0.7252197265625,-0.5189208984375,5474,6031,-391,1,-2,-2
69697412,0.45245361328125,-0.00177001953125,-0.725341796875,-0.51885986328125,5475,6023,-405,1,-1,-2
69707395,0.452392578125,-0.0015869140625,-0.72552490234375,-0.5186767578125,5474,6001,-416,2,-1,-2
69717370,0.45233154296875,-0.00146484375,-0.72564697265625,-0.51849365234375,5492,6009,-437,2,-1,-2
69727354,0.4522705078125,-0.0013427734375,-0.72589111328125,-0.518310546875,5496,6019,-453,2,-1,-2
69737336,0.4521484375,-0.0010986328125,-0.72607421875,-0.51806640625,5515,6042,-467,2,-1,-2
69747318,0.45208740234375,-0.00091552734375,-0.726318359375,-0.517822265625,5539,6060,-490,3,-1,-2
69757309,0.4520263671875,-0.00067138671875,-0.7265625,-0.51751708984375,5553,6075,-485,3,-1,-2
69767290,0.4520263671875,-0.00042724609375,-0.72674560546875,-0.51727294921875,5567,6097,-490,3,-1,-2
69777273,0.4520263671875,-0.00018310546875,-0.7269287109375,-0.5169677734375,5566,6109,-499,3,0,-1
69787258,0.45208740234375,0.0,-0.7271728515625,-0.51666259765625,5562,6127,-502,3,0,0
69797233,0.4522705078125,0.0001220703125,-0.727294921875,-0.51629638671875,5555,6142,-493,3,1,0
69807225,0.45245361328125,0.000244140625,-0.7274169921875,-0.51593017578125,5558,6169,-491,3,0,1
69817208,0.45269775390625,0.00030517578125,-0.7275390625,-0.51556396484375,5571,6182,-477,3,1,1
69827189,0.45294189453125,0.0003662109375,-0.72760009765625,-0.51519775390625,5595,6188,-463,2,1,1
69837180,0.45330810546875,0.00054931640625,-0.7276611328125,-0.514892578125,5619,6164,-461,2,2,0
69847168,0.45361328125,0.00079345703125,-0.7276611328125,-0.51458740234375,5625,6151,-458,2,2,0
69857141,0.4539794921875,0.00103759765625,-0.72760009765625,-0.51434326171875,5662,6137,-442,2,3,-1
69867114,0.45428466796875,0.00152587890625,-0.7275390625,-0.51416015625,5698,6145,-430,2,4,-2
69877094,0.45458984375,0.0020751953125,-0.7274169921875,-0.5140380859375,5744,6145,-432,2,4,-4
69887078,0.45489501953125,0.00286865234375,-0.727294921875,-0.51397705078125,5780,6128,-447,2,5,-6
69897059,0.455078125,0.00384521484375,-0.72711181640625,-0.5140380859375,5810,6112,-451,2,6,-7
69907045,0.455322265625,0.00494384765625,-0.72686767578125,-0.51416015625,5822,6099,-446,2,7,-9
69917025,0.45562744140625,0.00616455078125,-0.72662353515625,-0.51422119140625,5830,6090,-453,2,7,-9
69927010,0.4559326171875,0.00738525390625,-0.726318359375,-0.51434326171875,5859,6089,-455,2,8,-8
69936992,0.4564208984375,0.00860595703125,-0.72601318359375,-0.51434326171875,5912,6120,-475,3,9,-8
69946980,0.45697021484375,0.009765625,-0.7257080078125,-0.51422119140625,5980,6158,-485,3,9,-7
69956957,0.4576416015625,0.0108642578125,-0.725341796875,-0.51416015625,6060,6186,-488,3,9,-6
69966941,0.45831298828125,0.011962890625,-0.7249755859375,-0.5140380859375,6122,6197,-492,3,10,-6
69976922,0.4591064453125,0.01300048828125,-0.724609375,-0.5137939453125,6199,6193,-487,3,10,-5
69986906,0.46002197265625,0.01397705078125,-0.7242431640625,-0.5135498046875,6252,6190,-468,3,11,-4
69996890,0.46112060546875,0.01470947265625,-0.72381591796875,-0.51312255859375,6329,6187,-452,3,10,-2
70006876,0.46234130859375,0.01519775390625,-0.723388671875,-0.5125732421875,6409,6192,-434,3,10,2
70016857,0.4638671875,0.01519775390625,-0.72296142578125,-0.5118408203125,6464,6202,-402,2,10,6
70026840,0.46563720703125,0.0146484375,-0.72259521484375,-0.5107421875,6529,6167,-352,2,8,12
70036823,0.4677734375,0.01336669921875,-0.72222900390625,-0.50933837890625,6595,6108,-297,2,7,19
70046805,0.4703369140625,0.01123046875,-0.72186279296875,-0.507568359375,6674,6041,-206,1,6,28
70056789,0.473388671875,0.0081787109375,-0.72149658203125,-0.5052490234375,6773,5946,-131,0,4,36
70066769,0.476806640625,0.004150390625,-0.72119140625,-0.5025634765625,6881,5839,-81,-1,3,45
70076759,0.4805908203125,-0.0008544921875,-0.72088623046875,-0.4993896484375,6992,5752,-72,-2,1,54
70086745,0.48468017578125,-0.00689697265625,-0.72064208984375,-0.49578857421875,7130,5688,-83,-4,-1,63
70096718,0.4891357421875,-0.013916015625,-0.7203369140625,-0.49163818359375,7302,5678,-121,-5,-3,72
70106700,0.4937744140625,-0.02197265625,-0.72003173828125,-0.487060546875,7513,5691,-182,-7,-6,81
70116683,0.49871826171875,-0.0311279296875,-0.7197265625,-0.4820556640625,7739,5692,-227,-9,-8,90
70126667,0.50384521484375,-0.04119873046875,-0.71929931640625,-0.4765625,7963,5683,-254,-10,-11,99
70136651,0.5091552734375,-0.05224609375,-0.71868896484375,-0.470703125,8166,5655,-256,-12,-13,108
70146635,0.5146484375,-0.06439208984375,-0.71795654296875,-0.46429443359375,8374,5582,-288,-14,-15,117
70156616,0.52032470703125,-0.0775146484375,-0.71697998046875,-0.4573974609375,8601,5496,-334,-16,-17,126
70166599,0.52618408203125,-0.0916748046875,-0.71575927734375,-0.449951171875,8820,5380,-407,-19,-19,135
70176582,0.53204345703125,-0.10675048828125,-0.7142333984375,-0.4420166015625,9037,5247,-490,-21,-21,143
70186566,0.53802490234375,-0.12255859375,-0.71240234375,-0.43365478515625,9250,5084,-581,-23,-21,150
70196547,0.54388427734375,-0.13909912109375,-0.71014404296875,-0.42498779296875,9469,4910,-668,-26,-23,156
70206537,0.54962158203125,-0.1561279296875,-0.70745849609375,-0.416015625,9707,4730,-742,-28,-24,160
70216514,0.55511474609375,-0.1734619140625,-0.7044677734375,-0.40692138671875,9960,4547,-829,-30,-25,162
70226497,0.56024169921875,-0.19091796875,-0.70111083984375,-0.39776611328125,10209,4351,-942,-33,-25,162
70236480,0.56488037109375,-0.20831298828125,-0.69744873046875,-0.38873291015625,10455,4149,-1062,-35,-26,161
70246462,0.569091796875,-0.2255859375,-0.69354248046875,-0.37982177734375,10678,3929,-1175,-36,-26,159
70256446,0.572998046875,-0.24267578125,-0.6893310546875,-0.37103271484375,10886,3714,-1266,-37,-25,157
70266425,0.5765380859375,-0.259521484375,-0.684814453125,-0.3623046875,11084,3470,-1322,-38,-25,157
70276418,0.5799560546875,-0.2762451171875,-0.679931640625,-0.35357666015625,11248,3193,-1344,-38,-24,157
70286400,0.58331298828125,-0.29296875,-0.6746826171875,-0.3446044921875,11392,2896,-1368,-38,-24,159
70296385,0.58660888671875,-0.3095703125,-0.6690673828125,-0.33544921875,11568,2584,-1398,-37,-22,161
70306361,0.58978271484375,-0.32611083984375,-0.6629638671875,-0.32598876953125,11717,2219,-1427,-37,-21,163
70316345,0.59307861328125,-0.3426513671875,-0.65643310546875,-0.31610107421875,11785,1801,-1436,-35,-20,166
70326327,0.5965576171875,-0.359375,-0.6492919921875,-0.3056640625,11824,1357,-1412,-34,-18,173
70336312,0.600341796875,-0.3763427734375,-0.641357421875,-0.29437255859375,11845,896,-1386,-31,-17,182
70346296,0.60443115234375,-0.39361572265625,-0.632568359375,-0.28216552734375,11827,414,-1340,-29,-15,192
70356277,0.60888671875,-0.4111328125,-0.62286376953125,-0.268798828125,11752,-76,-1282,-25,-13,202
70366260,0.61376953125,-0.42901611328125,-0.61212158203125,-0.254150390625,11691,-552,-1217,-21,-11,216
70376240,0.61895751953125,-0.447021484375,-0.60028076171875,-0.23828125,11614,-1021,-1160,-17,-9,228
70386232,0.6243896484375,-0.465087890625,-0.58734130859375,-0.2210693359375,11447,-1523,-1108,-12,-8,240
70396216,0.63006591796875,-0.4832763671875,-0.57318115234375,-0.20245361328125,11179,-2067,-1032,-7,-7,252
70406200,0.63580322265625,-0.50128173828125,-0.557861328125,-0.182373046875,10876,-2591,-975,-1,-6,263
70416188,0.6414794921875,-0.51904296875,-0.54150390625,-0.1610107421875,10560,-3081,-913,4,-6,273
70426170,0.64691162109375,-0.53619384765625,-0.52423095703125,-0.1385498046875,10235,-3531,-882,10,-6,279
70436152,0.6519775390625,-0.55255126953125,-0.50628662109375,-0.11529541015625,9896,-3933,-863,15,-7,284
70446123,0.656494140625,-0.5679931640625,-0.4879150390625,-0.09136962890625,9514,-4298,-851,20,-9,285
70456105,0.66046142578125,-0.58233642578125,-0.46929931640625,-0.06695556640625,9105,-4659,-851,25,-11,284
70466087,0.66375732421875,-0.59552001953125,-0.4505615234375,-0.0421142578125,8687,-4998,-851,30,-14,282
70476071,0.6663818359375,-0.60760498046875,-0.43182373046875,-0.01708984375,8250,-5305,-863,33,-17,279
70486054,0.66827392578125,-0.61859130859375,-0.4132080078125,0.00811767578125,7831,-5569,-881,37,-21,276
70496039,0.66943359375,-0.62841796875,-0.39471435546875,0.033447265625,7435,-5769,-915,39,-25,273
70506020,0.66986083984375,-0.6373291015625,-0.37640380859375,0.05877685546875,7071,-5934,-965,41,-28,271
70516003,0.66949462890625,-0.64532470703125,-0.358154296875,0.084228515625,6667,-6072,-1007,43,-32,270
70525990,0.6683349609375,-0.65252685546875,-0.33990478515625,0.10992431640625,6240,-6164,-1038,44,-36,270
70535975,0.66632080078125,-0.658935546875,-0.321533203125,0.1357421875,5831,-6239,-1071,44,-39,270
70545952,0.6634521484375,-0.6646728515625,-0.30322265625,0.1614990234375,5435,-6284,-1098,44,-42,269
70555935,0.6597900390625,-0.66961669921875,-0.28497314453125,0.187255859375,5043,-6299,-1122,43,-45,268
70565918,0.65521240234375,-0.67401123046875,-0.26678466796875,0.212890625,4652,-6276,-1136,42,-48,268
70575899,0.649658203125,-0.677734375,-0.24847412109375,0.23846435546875,4240,-6211,-1152,40,-50,268
70585881,0.64324951171875,-0.680908203125,-0.23004150390625,0.263916015625,3828,-6122,-1135,38,-52,269
70595872,0.63592529296875,-0.68353271484375,-0.21148681640625,0.28924560546875,3393,-5995,-1099,35,-53,269
70605851,0.62762451171875,-0.6856689453125,-0.19287109375,0.31427001953125,2950,-5856,-1069,33,-54,269
70615832,0.618408203125,-0.68719482421875,-0.1741943359375,0.3389892578125,2498,-5690,-1034,29,-55,268
70625818,0.6082763671875,-0.68829345703125,-0.15557861328125,0.36328125,2085,-5510,-1002,26,-56,267
70635800,0.59722900390625,-0.68896484375,-0.13702392578125,0.38714599609375,1670,-5307,-973,22,-56,266
70645784,0.58514404296875,-0.68914794921875,-0.11846923828125,0.41058349609375,1256,-5107,-953,18,-57,266
70655766,0.572021484375,-0.68896484375,-0.0999755859375,0.4337158203125,867,-4880,-915,14,-57,267
70665758,0.55792236328125,-0.68829345703125,-0.08148193359375,0.4564208984375,453,-4635,-857,9,-58,267
70675742,0.54290771484375,-0.68707275390625,-0.0631103515625,0.47882080078125,12,-4369,-752,6,-59,266
70685718,0.5269775390625,-0.68524169921875,-0.044921875,0.500732421875,-450,-4107,-631,2,-60,265
70695698,0.51031494140625,-0.682861328125,-0.02716064453125,0.52203369140625,-884,-3825,-507,-2,-60,261
70705680,0.49334716796875,-0.67987060546875,-0.010009765625,0.54241943359375,-1305,-3526,-359,-5,-61,252
70715665,0.476318359375,-0.67633056640625,0.00604248046875,0.561767578125,-1665,-3219,-212,-8,-61,240
70725647,0.45965576171875,-0.67230224609375,0.02081298828125,0.57989501953125,-2050,-2890,-13,-11,-61,225
70735631,0.4437255859375,-0.66778564453125,0.0340576171875,0.59661865234375,-2421,-2547,203,-12,-60,205
70745613,0.42877197265625,-0.66302490234375,0.0455322265625,0.6119384765625,-2759,-2208,403,-15,-60,184
70755598,0.415283203125,-0.65802001953125,0.0550537109375,0.62567138671875,-3056,-1883,610,-15,-60,160
70765579,0.403564453125,-0.65289306640625,0.06256103515625,0.63787841796875,-3272,-1587,840,-16,-59,134
70775562,0.39373779296875,-0.647705078125,0.06805419921875,0.648681640625,-3446,-1323,1081,-15,-59,108
70785544,0.38592529296875,-0.6424560546875,0.07177734375,0.65814208984375,-3605,-1076,1306,-13,-58,84
70795527,0.37982177734375,-0.63714599609375,0.07415771484375,0.66650390625,-3771,-828,1544,-10,-58,64
70805510,0.37530517578125,-0.6317138671875,0.07550048828125,0.674072265625,-3971,-585,1773,-7,-57,48
70815493,0.3721923828125,-0.62615966796875,0.07611083984375,0.68084716796875,-4188,-351,1993,-3,-57,34
70825481,0.37042236328125,-0.62042236328125,0.07623291015625,0.68707275390625,-4470,-164,2252,2,-57,22
70835459,0.3697509765625,-0.6143798828125,0.07611083984375,0.69287109375,-4748,5,2507,7,-58,13
70845443,0.3699951171875,-0.60797119140625,0.075927734375,0.6983642578125,-4992,157,2772,12,-59,7
70855427,0.371337890625,-0.6011962890625,0.07586669921875,0.7034912109375,-5144,282,3020,19,-58,0
70865411,0.373779296875,-0.59423828125,0.07562255859375,0.70806884765625,-5205,424,3229,25,-58,-10
70875391,0.3775634765625,-0.5872802734375,0.07525634765625,0.71197509765625,-5161,571,3382,30,-56,-21
70885368,0.3829345703125,-0.58038330078125,0.0743408203125,0.71484375,-5034,707,3523,35,-52,-37
70895353,0.39013671875,-0.57373046875,0.07281494140625,0.7164306640625,-4887,816,3630,39,-47,-56
70905335,0.399169921875,-0.5675048828125,0.0704345703125,0.7166748046875,-4754,901,3685,42,-42,-75
70915318,0.40966796875,-0.561767578125,0.0675048828125,0.715576171875,-4661,924,3697,44,-37,-90
70925300,0.42138671875,-0.556396484375,0.06414794921875,0.7132568359375,-4573,918,3666,47,-31,-101
70935287,0.43365478515625,-0.5513916015625,0.06072998046875,0.71002197265625,-4502,877,3621,49,-27,-107
70945270,0.44622802734375,-0.54669189453125,0.0574951171875,0.70611572265625,-4426,841,3546,50,-22,-110
70955256,0.45892333984375,-0.54241943359375,0.05438232421875,0.7015380859375,-4335,794,3454,50,-17,-112
70965235,0.47174072265625,-0.53851318359375,0.05126953125,0.6962890625,-4192,735,3348,49,-12,-117
70975228,0.4849853515625,-0.53509521484375,0.04779052734375,0.69000244140625,-4014,661,3252,47,-7,-124
70985205,0.4989013671875,-0.53228759765625,0.043701171875,0.68255615234375,-3815,575,3163,45,-1,-137
70995189,0.51361083984375,-0.530029296875,0.03863525390625,0.673583984375,-3622,460,3092,41,5,-151
71005178,0.5291748046875,-0.5283203125,0.0325927734375,0.6630859375,-3450,345,3043,37,10,-167
71015168,0.54547119140625,-0.5272216796875,0.0255126953125,0.65093994140625,-3291,214,2993,33,15,-182
71025139,0.562255859375,-0.52667236328125,0.017333984375,0.63726806640625,-3145,77,2923,27,20,-196
71035114,0.579345703125,-0.52667236328125,0.0081787109375,0.62200927734375,-3001,-92,2866,20,24,-207
71045097,0.59637451171875,-0.5269775390625,-0.00201416015625,0.60546875,-2834,-287,2819,14,27,-217
71055081,0.6131591796875,-0.5277099609375,-0.0130615234375,0.58770751953125,-2653,-521,2761,7,29,-223
71065058,0.62933349609375,-0.52862548828125,-0.0247802734375,0.569091796875,-2505,-786,2712,0,30,-226
71075045,0.64459228515625,-0.52972412109375,-0.0369873046875,0.550048828125,-2349,-1088,2666,-6,30,-224
71085023,0.65863037109375,-0.53094482421875,-0.0494384765625,0.5308837890625,-2188,-1380,2610,-13,29,-219
71095005,0.67138671875,-0.5322265625,-0.0618896484375,0.511962890625,-1981,-1657,2573,-19,26,-210
71104990,0.6827392578125,-0.533447265625,-0.07440185546875,0.49365234375,-1780,-1969,2542,-24,23,-201
71114977,0.69287109375,-0.53485107421875,-0.08709716796875,0.47564697265625,-1509,-2322,2475,-30,20,-193
71124954,0.70196533203125,-0.53619384765625,-0.10015869140625,0.4578857421875,-1195,-2673,2409,-35,17,-189
71134937,0.71014404296875,-0.5374755859375,-0.11358642578125,0.4403076171875,-924,-3047,2345,-40,12,-185
71144919,0.71734619140625,-0.5386962890625,-0.12738037109375,0.42303466796875,-660,-3459,2321,-43,8,-182
71154902,0.72381591796875,-0.5396728515625,-0.14166259765625,0.4058837890625,-348,-3902,2291,-46,3,-180
71164886,0.729736328125,-0.540283203125,-0.156494140625,0.388671875,37,-4346,2242,-47,-1,-180
71174872,0.7352294921875,-0.54046630859375,-0.17205810546875,0.37109375,468,-4787,2158,-49,-6,-184
71184849,0.7403564453125,-0.5401611328125,-0.1883544921875,0.35302734375,908,-5179,2052,-49,-10,-189
71194832,0.7451171875,-0.5391845703125,-0.2052001953125,0.33453369140625,1328,-5549,1957,-48,-14,-193
71204814,0.74951171875,-0.53759765625,-0.22235107421875,0.3157958984375,1767,-5885,1858,-47,-16,-195
71214799,0.75347900390625,-0.53546142578125,-0.2398681640625,0.29669189453125,2205,-6156,1749,-47,-19,-199
71224783,0.75701904296875,-0.5325927734375,-0.2576904296875,0.27728271484375,2638,-6318,1661,-46,-22,-201
71234765,0.76007080078125,-0.529052734375,-0.27557373046875,0.2576904296875,3008,-6434,1596,-44,-25,-204
71244757,0.7626953125,-0.52484130859375,-0.29345703125,0.2381591796875,3361,-6514,1567,-42,-27,-205
71254739,0.764892578125,-0.51983642578125,-0.311279296875,0.21856689453125,3761,-6594,1534,-39,-29,-205
71264715,0.7667236328125,-0.5140380859375,-0.32904052734375,0.198974609375,4160,-6660,1487,-35,-31,-207
71274699,0.7681884765625,-0.5074462890625,-0.34661865234375,0.17938232421875,4507,-6662,1456,-32,-32,-207
71284681,0.76934814453125,-0.50018310546875,-0.36370849609375,0.16015625,4784,-6601,1476,-27,-33,-204
71294666,0.77001953125,-0.49249267578125,-0.3800048828125,0.141845703125,5059,-6528,1512,-24,-34,-196
71304647,0.77032470703125,-0.48443603515625,-0.39556884765625,0.12451171875,5422,-6513,1549,-20,-35,-187
71314630,0.77020263671875,-0.4759521484375,-0.41064453125,0.1077880859375,5889,-6525,1556,-16,-35,-183
71324618,0.7698974609375,-0.4669189453125,-0.42535400390625,0.09124755859375,6384,-6540,1539,-12,-35,-182
71334602,0.7694091796875,-0.45721435546875,-0.439697265625,0.07489013671875,6829,-6523,1539,-7,-35,-183
71344584,0.76885986328125,-0.44683837890625,-0.45361328125,0.0587158203125,7287,-6475,1499,-3,-33,-183
71354569,0.76800537109375,-0.43585205078125,-0.46734619140625,0.04254150390625,7777,-6404,1400,1,-33,-184
71364549,0.766845703125,-0.42431640625,-0.4808349609375,0.0263671875,8309,-6353,1267,4,-32,-186
71374537,0.76544189453125,-0.4122314453125,-0.49407958984375,0.00994873046875,8809,-6276,1112,6,-30,-190
71384515,0.76361083984375,-0.399658203125,-0.507080078125,-0.00653076171875,9203,-6149,973,7,-29,-191
71394498,0.7615966796875,-0.3868408203125,-0.5194091796875,-0.022705078125,9545,-6000,880,9,-28,-188
71404480,0.75933837890625,-0.3740234375,-0.53106689453125,-0.03814697265625,9870,-5841,763,11,-26,-182
71414464,0.75689697265625,-0.3614501953125,-0.5419921875,-0.05279541015625,10141,-5665,631,13,-24,-174
71424446,0.75433349609375,-0.34918212890625,-0.552001953125,-0.06646728515625,10387,-5459,560,14,-23,-165
71434426,0.75164794921875,-0.33734130859375,-0.56121826171875,-0.07916259765625,10579,-5236,471,15,-21,-156
71444419,0.7489013671875,-0.32586669921875,-0.56976318359375,-0.09112548828125,10732,-4981,411,15,-20,-148
71454401,0.74615478515625,-0.31475830078125,-0.57769775390625,-0.1024169921875,10905,-4739,355,16,-18,-143
71464383,0.74322509765625,-0.30377197265625,-0.58526611328125,-0.1134033203125,11080,-4494,306,15,-17,-140
71474361,0.740234375,-0.29278564453125,-0.5924072265625,-0.12432861328125,11212,-4254,276,14,-15,-140
71484345,0.73712158203125,-0.2818603515625,-0.59912109375,-0.13519287109375,11272,-3987,270,14,-14,-139
71494326,0.7340087890625,-0.27105712890625,-0.60540771484375,-0.1458740234375,11276,-3722,267,13,-12,-137
71504307,0.7308349609375,-0.260498046875,-0.6112060546875,-0.1563720703125,11179,-3458,300,12,-11,-133
71514290,0.72772216796875,-0.25030517578125,-0.61651611328125,-0.16644287109375,11044,-3187,347,11,-10,-129
71524276,0.72454833984375,-0.240478515625,-0.6214599609375,-0.1761474609375,10909,-2904,411,10,-10,-124
71534258,0.72137451171875,-0.23089599609375,-0.62603759765625,-0.18560791015625,10839,-2609,481,9,-10,-121
71544239,0.718017578125,-0.22137451171875,-0.63037109375,-0.195068359375,10787,-2321,535,8,-9,-122
71554230,0.71435546875,-0.211669921875,-0.63470458984375,-0.2049560546875,10734,-2040,589,6,-10,-126
71564212,0.71051025390625,-0.20166015625,-0.63885498046875,-0.21527099609375,10623,-1747,648,4,-9,-131
71574200,0.7064208984375,-0.191650390625,-0.642822265625,-0.22589111328125,10438,-1446,717,3,-9,-131
71584185,0.7022705078125,-0.18194580078125,-0.646484375,-0.2362060546875,10205,-1148,792,2,-10,-127
71594169,0.6981201171875,-0.17279052734375,-0.64990234375,-0.24591064453125,9985,-855,829,1,-10,-119
71604150,0.69403076171875,-0.16436767578125,-0.65301513671875,-0.25482177734375,9799,-587,875,1,-11,-110
71614123,0.68994140625,-0.1566162109375,-0.65594482421875,-0.26300048828125,9655,-317,916,1,-13,-102
71624104,0.68585205078125,-0.14935302734375,-0.6588134765625,-0.27069091796875,9561,-49,941,1,-14,-97
71634089,0.681640625,-0.142333984375,-0.66168212890625,-0.278076171875,9519,211,971,1,-16,-95
71644070,0.67718505859375,-0.13543701171875,-0.66461181640625,-0.28533935546875,9519,451,1033,0,-18,-95
71654056,0.67242431640625,-0.1285400390625,-0.66754150390625,-0.29278564453125,9489,773,1194,-1,-22,-96
71664037,0.66748046875,-0.12200927734375,-0.67034912109375,-0.30029296875,9363,1197,1500,-4,-26,-91
71674021,0.6624755859375,-0.11669921875,-0.67303466796875,-0.30755615234375,9174,1678,1858,-9,-31,-80
71684004,0.6572265625,-0.11334228515625,-0.6756591796875,-0.314208984375,8995,2142,2106,-17,-39,-63
71693989,0.65185546875,-0.11248779296875,-0.67828369140625,-0.31988525390625,8901,2536,2156,-26,-47,-44
71703974,0.646240234375,-0.1141357421875,-0.68115234375,-0.32470703125,8916,2767,2003,-34,-54,-27
71713951,0.6405029296875,-0.1177978515625,-0.6839599609375,-0.328857421875,9018,2853,1725,-42,-58,-16
71723933,0.63458251953125,-0.12298583984375,-0.68670654296875,-0.3326416015625,9140,2809,1365,-48,-60,-9
71733917,0.62860107421875,-0.12890625,-0.68927001953125,-0.33636474609375,9261,2653,982,-52,-60,-7
71743899,0.62255859375,-0.135009765625,-0.69171142578125,-0.3402099609375,9325,2440,606,-54,-58,-10
71753882,0.616455078125,-0.1407470703125,-0.69403076171875,-0.34429931640625,9347,2225,291,-54,-56,-14
71763866,0.6102294921875,-0.1458740234375,-0.69622802734375,-0.3487548828125,9340,2020,54,-53,-54,-21
71773850,0.60394287109375,-0.15045166015625,-0.69830322265625,-0.3536376953125,9313,1857,-155,-53,-51,-26
71783832,0.59771728515625,-0.15435791015625,-0.70025634765625,-0.35870361328125,9289,1748,-347,-52,-49,-31
71793816,0.591552734375,-0.15789794921875,-0.7020263671875,-0.36383056640625,9258,1672,-534,-50,-45,-32
71803798,0.5855712890625,-0.16107177734375,-0.70361328125,-0.368896484375,9226,1627,-697,-49,-42,-33
71813781,0.5799560546875,-0.16412353515625,-0.70501708984375,-0.3739013671875,9212,1623,-859,-48,-38,-31
71823762,0.57464599609375,-0.1671142578125,-0.7060546875,-0.3785400390625,9183,1637,-989,-47,-35,-28
71833752,0.56988525390625,-0.170166015625,-0.70684814453125,-0.3829345703125,9159,1645,-1097,-45,-31,-24
71843735,0.565673828125,-0.17327880859375,-0.70733642578125,-0.38690185546875,9124,1653,-1170,-43,-28,-21
71853713,0.5618896484375,-0.17633056640625,-0.70758056640625,-0.390625,9099,1667,-1213,-42,-24,-18
71863693,0.55859375,-0.17913818359375,-0.70751953125,-0.3941650390625,9091,1698,-1238,-40,-20,-17
71873678,0.5556640625,-0.1817626953125,-0.707275390625,-0.39752197265625,9105,1746,-1279,-38,-17,-16
71883660,0.5531005859375,-0.18408203125,-0.70684814453125,-0.4007568359375,9117,1812,-1307,-36,-13,-16
71893643,0.5509033203125,-0.18609619140625,-0.70623779296875,-0.4039306640625,9098,1879,-1335,-34,-9,-15
71903630,0.549072265625,-0.18798828125,-0.7054443359375,-0.40692138671875,9044,1933,-1356,-33,-6,-13
71913606,0.547607421875,-0.189697265625,-0.7044677734375,-0.4097900390625,8951,1978,-1363,-31,-2,-12
71923592,0.54644775390625,-0.1912841796875,-0.70330810546875,-0.4124755859375,8830,2003,-1362,-30,1,-10
71933570,0.545654296875,-0.192626953125,-0.70208740234375,-0.4151611328125,8702,2013,-1353,-28,3,-10
71943554,0.54498291015625,-0.1937255859375,-0.70068359375,-0.417724609375,8593,2036,-1323,-27,5,-11
71953537,0.5445556640625,-0.19451904296875,-0.69927978515625,-0.42034912109375,8514,2071,-1270,-26,8,-11
71963520,0.54425048828125,-0.19500732421875,-0.69775390625,-0.42303466796875,8441,2112,-1224,-24,10,-13
71973501,0.54400634765625,-0.1951904296875,-0.69622802734375,-0.42572021484375,8355,2149,-1139,-23,11,-14
71983485,0.5439453125,-0.19512939453125,-0.69464111328125,-0.42840576171875,8284,2178,-1042,-22,13,-15
71993469,0.54400634765625,-0.19482421875,-0.69305419921875,-0.43109130859375,8195,2197,-951,-20,14,-16
72003451,0.54412841796875,-0.1942138671875,-0.69146728515625,-0.43377685546875,8111,2236,-863,-19,15,-17
72013431,0.54425048828125,-0.193359375,-0.68988037109375,-0.4365234375,8048,2276,-789,-18,16,-19
72023423,0.54425048828125,-0.19207763671875,-0.68841552734375,-0.4393310546875,7993,2322,-730,-16,17,-22
72033405,0.544189453125,-0.19036865234375,-0.68701171875,-0.44232177734375,7944,2348,-637,-15,17,-26
72043388,0.5440673828125,-0.188232421875,-0.68572998046875,-0.4454345703125,7889,2390,-515,-13,18,-29
72053364,0.54388427734375,-0.18585205078125,-0.68450927734375,-0.44854736328125,7831,2420,-386,-12,18,-30
72065990,0.5438232421875,-0.183349609375,-0.68328857421875,-0.45147705078125,7772,2464,-271,-10,18,-29
72073331,0.54388427734375,-0.18084716796875,-0.68206787109375,-0.45416259765625,7733,2500,-162,-9,19,-27
72083313,0.54412841796875,-0.17840576171875,-0.680908203125,-0.45660400390625,7692,2571,-76,-7,19,-25
72093298,0.54449462890625,-0.17596435546875,-0.67974853515625,-0.45880126953125,7650,2631,-15,-5,19,-23
72103280,0.54510498046875,-0.173583984375,-0.67864990234375,-0.460693359375,7603,2689,87,-3,19,-21
72113261,0.5457763671875,-0.1712646484375,-0.67755126953125,-0.46240234375,7564,2752,140,-2,19,-19
72123250,0.5465087890625,-0.16888427734375,-0.67657470703125,-0.4638671875,7547,2814,179,0,19,-19
72133234,0.54718017578125,-0.16632080078125,-0.6756591796875,-0.4652099609375,7533,2877,207,2,19,-19
72143216,0.5478515625,-0.1636962890625,-0.6749267578125,-0.46649169921875,7498,2946,238,3,18,-19
72153200,0.54852294921875,-0.16094970703125,-0.67425537109375,-0.46759033203125,7485,2994,288,5,18,-19
72163187,0.54925537109375,-0.158203125,-0.6737060546875,-0.468505859375,7466,3059,321,6,17,-18
72173171,0.5499267578125,-0.1553955078125,-0.67327880859375,-0.46923828125,7447,3119,368,8,16,-18
72183153,0.5506591796875,-0.15252685546875,-0.67291259765625,-0.46978759765625,7429,3174,418,10,17,-18
72193125,0.5513916015625,-0.1495361328125,-0.67266845703125,-0.47021484375,7396,3240,465,11,16,-17
72203108,0.5521240234375,-0.146484375,-0.67254638671875,-0.47052001953125,7367,3298,490,13,16,-17
72213092,0.5528564453125,-0.14349365234375,-0.67254638671875,-0.4705810546875,7339,3339,503,14,15,-16
72223072,0.55364990234375,-0.1405029296875,-0.67266845703125,-0.47039794921875,7303,3384,505,16,14,-14
72233056,0.5545654296875,-0.1376953125,-0.67279052734375,-0.469970703125,7249,3401,514,17,14,-12
72243038,0.55560302734375,-0.13494873046875,-0.6729736328125,-0.46929931640625,7211,3417,530,18,14,-9
72253024,0.55682373046875,-0.13238525390625,-0.67315673828125,-0.46832275390625,7177,3414,551,19,14,-7
72263007,0.55810546875,-0.12994384765625,-0.67333984375,-0.4671630859375,7159,3424,570,20,13,-5
72272991,0.5594482421875,-0.1275634765625,-0.67364501953125,-0.4658203125,7150,3461,566,21,13,-4
72282977,0.56085205078125,-0.12518310546875,-0.6739501953125,-0.46435546875,7154,3491,559,22,13,-3
72292953,0.56219482421875,-0.122802734375,-0.67431640625,-0.4627685546875,7160,3539,545,22,12,-3
72302937,0.56353759765625,-0.12042236328125,-0.6746826171875,-0.461181640625,7167,3588,546,22,13,-3
72312915,0.56488037109375,-0.11810302734375,-0.67510986328125,-0.4595947265625,7160,3646,540,22,12,-2
72322897,0.56622314453125,-0.11578369140625,-0.675537109375,-0.4578857421875,7167,3698,541,23,12,-1
72332884,0.56756591796875,-0.11346435546875,-0.67596435546875,-0.4561767578125,7175,3747,537,23,12,-1
72342872,0.56890869140625,-0.1112060546875,-0.6763916015625,-0.45440673828125,7185,3793,538,23,12,-1
72352848,0.5701904296875,-0.10888671875,-0.6768798828125,-0.45269775390625,7195,3847,539,23,12,-1
72362832,0.5714111328125,-0.1065673828125,-0.67730712890625,-0.4510498046875,7184,3886,528,22,11,-2
72372815,0.57257080078125,-0.10418701171875,-0.677734375,-0.44952392578125,7185,3932,525,22,11,-3
72382800,0.5736083984375,-0.101806640625,-0.67816162109375,-0.44805908203125,7152,3976,516,21,11,-3
72392785,0.5745849609375,-0.099365234375,-0.6785888671875,-0.4466552734375,7156,4016,536,21,10,-4
72402766,0.57550048828125,-0.0968017578125,-0.67901611328125,-0.4454345703125,7131,4058,542,21,11,-6
72412756,0.57623291015625,-0.09423828125,-0.67950439453125,-0.4443359375,7118,4079,552,20,10,-7
72422738,0.57684326171875,-0.091552734375,-0.679931640625,-0.44342041015625,7088,4103,575,19,9,-9
72432717,0.577392578125,-0.08892822265625,-0.68035888671875,-0.44256591796875,7059,4115,572,19,9,-9
72442699,0.577880859375,-0.086181640625,-0.6807861328125,-0.4417724609375,7038,4130,573,19,9,-10
72452684,0.5782470703125,-0.08349609375,-0.6812744140625,-0.44110107421875,7022,4145,571,18,8,-12
72462666,0.57855224609375,-0.08074951171875,-0.6817626953125,-0.44049072265625,7035,4169,583,18,8,-12
72472651,0.5787353515625,-0.07794189453125,-0.68218994140625,-0.44000244140625,7052,4181,614,17,7,-14
72482633,0.578857421875,-0.0750732421875,-0.68267822265625,-0.4395751953125,7056,4212,627,18,7,-14
72492617,0.5789794921875,-0.072265625,-0.68316650390625,-0.439208984375,7051,4246,625,17,7,-14
72502599,0.5791015625,-0.06951904296875,-0.68359375,-0.43878173828125,7042,4269,628,17,7,-13
