subject,Ian Lake
arm,left
label,0
hz,100.17354098634824
time,4.651927

timestamp_us,q0,q1,q2,q3,ax,ay,az,gx,gy,gz
26242363,0.37750244140625,0.66510009765625,0.17962646484375,-0.61871337890625,-7487,2967,954,-8,-6,-19
26252346,0.377197265625,0.66375732421875,0.1812744140625,-0.619873046875,-7396,3005,1001,-9,-5,-21
26262329,0.376953125,0.6624755859375,0.18310546875,-0.620849609375,-7338,3026,1042,-11,-4,-20
26272311,0.3770751953125,0.6611328125,0.18499755859375,-0.62164306640625,-7313,3050,1055,-13,-3,-18
26282294,0.37750244140625,0.65985107421875,0.1868896484375,-0.6221923828125,-7329,3063,1068,-16,-2,-15
26292277,0.37841796875,0.6585693359375,0.188720703125,-0.6224365234375,-7368,3075,1083,-18,-1,-12
26302259,0.3797607421875,0.6573486328125,0.19049072265625,-0.62237548828125,-7436,3100,1083,-21,-1,-8
26312250,0.381591796875,0.6561279296875,0.1922607421875,-0.62200927734375,-7532,3123,1064,-24,0,-5
26322233,0.38372802734375,0.65496826171875,0.19403076171875,-0.62139892578125,-7629,3146,1028,-26,1,-2
26332222,0.38629150390625,0.6536865234375,0.19586181640625,-0.6204833984375,-7711,3161,987,-30,1,0
26342203,0.3890380859375,0.65240478515625,0.19793701171875,-0.6195068359375,-7776,3180,954,-32,2,-1
26352188,0.39178466796875,0.65106201171875,0.2003173828125,-0.618408203125,-7813,3169,900,-34,3,-2
26362170,0.39459228515625,0.6495361328125,0.203125,-0.6173095703125,-7845,3146,857,-37,3,-5
26372154,0.3973388671875,0.64788818359375,0.20635986328125,-0.6162109375,-7838,3104,806,-39,4,-7
26382125,0.4000244140625,0.6461181640625,0.21002197265625,-0.6151123046875,-7825,3037,759,-42,4,-10
26392107,0.402587890625,0.64422607421875,0.214111328125,-0.61395263671875,-7805,2943,697,-43,5,-12
26402091,0.40509033203125,0.64227294921875,0.2186279296875,-0.61285400390625,-7779,2834,656,-45,6,-14
26412073,0.40753173828125,0.64019775390625,0.223388671875,-0.6116943359375,-7735,2724,623,-47,7,-15
26422057,0.40985107421875,0.63800048828125,0.228515625,-0.6104736328125,-7696,2621,595,-48,7,-18
26432045,0.412109375,0.6357421875,0.23388671875,-0.60931396484375,-7674,2533,572,-49,8,-19
26442023,0.41424560546875,0.6334228515625,0.239501953125,-0.6080322265625,-7652,2442,549,-50,9,-21
26452006,0.416259765625,0.631103515625,0.245361328125,-0.60675048828125,-7640,2350,517,-51,10,-23
26461990,0.418212890625,0.62872314453125,0.25140380859375,-0.60546875,-7620,2250,500,-52,10,-23
26471976,0.42010498046875,0.6263427734375,0.25750732421875,-0.60406494140625,-7591,2154,471,-52,11,-24
26481954,0.42193603515625,0.62396240234375,0.26373291015625,-0.6025390625,-7575,2040,429,-52,12,-24
26491936,0.42376708984375,0.62158203125,0.26995849609375,-0.60089111328125,-7587,1916,395,-52,13,-23
26501918,0.4256591796875,0.61932373046875,0.276123046875,-0.59912109375,-7601,1796,344,-53,13,-21
26511902,0.42755126953125,0.61712646484375,0.28216552734375,-0.59716796875,-7583,1678,301,-52,14,-19
26521883,0.429443359375,0.61505126953125,0.28814697265625,-0.59515380859375,-7580,1559,280,-51,15,-19
26531866,0.4312744140625,0.613037109375,0.2940673828125,-0.593017578125,-7587,1444,268,-50,16,-18
26541849,0.43292236328125,0.61114501953125,0.2999267578125,-0.5908203125,-7614,1316,250,-49,17,-17
26551831,0.43450927734375,0.609375,0.3055419921875,-0.58856201171875,-7692,1202,238,-47,17,-15
26561814,0.43609619140625,0.60784912109375,0.31085205078125,-0.58624267578125,-7782,1053,241,-45,17,-12
26571796,0.4376220703125,0.60650634765625,0.31573486328125,-0.5838623046875,-7882,887,227,-42,18,-8
26581778,0.439208984375,0.60546875,0.32012939453125,-0.58135986328125,-7994,701,220,-39,17,-4
26591765,0.44073486328125,0.604736328125,0.32391357421875,-0.578857421875,-8115,505,207,-34,17,1
26601752,0.4422607421875,0.60430908203125,0.3270263671875,-0.576416015625,-8225,348,211,-29,15,6
26611735,0.44378662109375,0.60418701171875,0.329345703125,-0.57403564453125,-8304,208,233,-24,14,10
26621711,0.44512939453125,0.6043701171875,0.3309326171875,-0.5718994140625,-8358,111,259,-18,12,12
26631693,0.4461669921875,0.604736328125,0.33197021484375,-0.57000732421875,-8399,46,283,-12,11,13
26641675,0.44677734375,0.6053466796875,0.33251953125,-0.568603515625,-8420,5,299,-6,9,12
26651661,0.44696044921875,0.6060791015625,0.3326416015625,-0.567626953125,-8429,-28,294,0,7,10
26661641,0.4466552734375,0.6068115234375,0.33233642578125,-0.56719970703125,-8457,-37,300,6,4,8
26671623,0.44586181640625,0.607666015625,0.33172607421875,-0.56732177734375,-8486,-24,294,12,2,6
26681608,0.44464111328125,0.60858154296875,0.33062744140625,-0.56793212890625,-8519,9,292,17,-1,5
26691588,0.443115234375,0.609619140625,0.32904052734375,-0.5689697265625,-8554,53,284,23,-4,4
26701569,0.44134521484375,0.61065673828125,0.326904296875,-0.5704345703125,-8583,112,286,28,-7,5
26711553,0.4393310546875,0.6119384765625,0.3240966796875,-0.57220458984375,-8609,174,285,33,-9,6
26721536,0.4373779296875,0.61334228515625,0.320556640625,-0.57421875,-8613,255,292,38,-12,9
26731519,0.43536376953125,0.61492919921875,0.3162841796875,-0.576416015625,-8614,349,283,43,-15,12
26741502,0.43328857421875,0.61669921875,0.31134033203125,-0.57879638671875,-8606,431,263,47,-18,15
26751486,0.4312744140625,0.61859130859375,0.3056640625,-0.581298828125,-8570,520,256,51,-20,18
26761469,0.42919921875,0.62060546875,0.2994384765625,-0.58392333984375,-8530,609,243,55,-22,20
26771450,0.427001953125,0.62274169921875,0.29266357421875,-0.586669921875,-8468,703,234,58,-24,22
26781431,0.42474365234375,0.6248779296875,0.285400390625,-0.589599609375,-8411,822,238,62,-26,23
26791423,0.4222412109375,0.6270751953125,0.27777099609375,-0.59271240234375,-8349,953,258,65,-28,22
26801405,0.41949462890625,0.6292724609375,0.26995849609375,-0.595947265625,-8281,1099,256,67,-28,21
26811389,0.4163818359375,0.63140869140625,0.26202392578125,-0.599365234375,-8210,1251,246,70,-29,18
26821367,0.41290283203125,0.633544921875,0.2540283203125,-0.6029052734375,-8138,1404,250,72,-29,15
26831349,0.40911865234375,0.6356201171875,0.24615478515625,-0.60662841796875,-8047,1556,251,73,-30,12
26841333,0.40496826171875,0.6376953125,0.23834228515625,-0.6103515625,-7954,1696,234,75,-29,9
26851314,0.4005126953125,0.63970947265625,0.2305908203125,-0.61407470703125,-7856,1834,244,76,-28,7
26861297,0.3958740234375,0.64178466796875,0.22296142578125,-0.6177978515625,-7760,1966,244,76,-27,6
26871279,0.3909912109375,0.64385986328125,0.2154541015625,-0.621337890625,-7662,2137,271,76,-25,4
26881262,0.38616943359375,0.64593505859375,0.2080078125,-0.62481689453125,-7572,2320,302,75,-24,3
26891250,0.3812255859375,0.64801025390625,0.20068359375,-0.6280517578125,-7480,2511,339,75,-22,2
26901234,0.37628173828125,0.65008544921875,0.193603515625,-0.631103515625,-7402,2718,362,73,-20,1
26911215,0.37152099609375,0.6522216796875,0.18670654296875,-0.6337890625,-7323,2923,372,70,-18,1
26921200,0.36688232421875,0.65435791015625,0.18011474609375,-0.63616943359375,-7253,3115,402,67,-15,0
26931188,0.36260986328125,0.656494140625,0.173828125,-0.63818359375,-7157,3309,434,63,-12,1
26941171,0.35870361328125,0.65863037109375,0.1678466796875,-0.6397705078125,-7049,3497,477,59,-9,2
26951152,0.35528564453125,0.6607666015625,0.1622314453125,-0.64093017578125,-6971,3700,518,54,-6,3
26961122,0.35235595703125,0.66302490234375,0.15704345703125,-0.64154052734375,-6933,3904,526,48,-3,5
26971111,0.35003662109375,0.66522216796875,0.15228271484375,-0.6416015625,-6901,4099,532,42,1,6
26981089,0.34832763671875,0.66748046875,0.1480712890625,-0.6412353515625,-6864,4268,532,34,5,8
26991071,0.34722900390625,0.669677734375,0.1444091796875,-0.640380859375,-6858,4405,532,28,8,8
27001055,0.3466796875,0.671875,0.1414794921875,-0.6390380859375,-6854,4522,519,20,11,9
27011036,0.34674072265625,0.6739501953125,0.13922119140625,-0.63726806640625,-6838,4629,520,13,15,9
27021018,0.34735107421875,0.67596435546875,0.1376953125,-0.63519287109375,-6840,4721,515,5,18,8
27031000,0.34832763671875,0.6778564453125,0.13714599609375,-0.6326904296875,-6865,4785,486,-2,21,6
27040985,0.34967041015625,0.6796875,0.137451171875,-0.62994384765625,-6903,4832,459,-10,25,4
27050968,0.351318359375,0.6812744140625,0.13873291015625,-0.626953125,-6963,4841,401,-17,27,0
27060945,0.35321044921875,0.68280029296875,0.14105224609375,-0.623779296875,-7044,4819,330,-25,30,-3
27070926,0.35540771484375,0.68402099609375,0.14434814453125,-0.62042236328125,-7147,4771,242,-32,32,-6
27080909,0.3577880859375,0.68505859375,0.1485595703125,-0.61688232421875,-7242,4702,151,-38,34,-9
27090893,0.36041259765625,0.68585205078125,0.15362548828125,-0.61328125,-7347,4622,68,-45,35,-12
27100874,0.36328125,0.6864013671875,0.15948486328125,-0.60943603515625,-7437,4529,-37,-51,36,-14
27110857,0.36639404296875,0.6866455078125,0.166015625,-0.60552978515625,-7536,4398,-124,-57,37,-16
27120839,0.36981201171875,0.68658447265625,0.17315673828125,-0.6015625,-7634,4257,-217,-62,37,-18
27130823,0.3734130859375,0.68621826171875,0.18084716796875,-0.597412109375,-7729,4092,-317,-67,38,-19
27140806,0.37725830078125,0.68560791015625,0.18902587890625,-0.59320068359375,-7819,3903,-420,-72,37,-20
27150787,0.38128662109375,0.68463134765625,0.19757080078125,-0.58892822265625,-7914,3702,-510,-76,37,-20
27160769,0.38555908203125,0.683349609375,0.20635986328125,-0.5845947265625,-8024,3498,-606,-79,36,-20
27170763,0.38995361328125,0.68182373046875,0.21527099609375,-0.58026123046875,-8144,3296,-701,-82,34,-20
27180746,0.39459228515625,0.67999267578125,0.2242431640625,-0.57586669921875,-8264,3087,-797,-84,32,-18
27190730,0.39935302734375,0.6778564453125,0.23321533203125,-0.571533203125,-8390,2869,-872,-85,30,-17
27200706,0.40423583984375,0.6754150390625,0.24212646484375,-0.5672607421875,-8493,2627,-943,-87,28,-16
27210690,0.4091796875,0.67266845703125,0.2508544921875,-0.5631103515625,-8588,2379,-979,-87,25,-15
27220671,0.41424560546875,0.669677734375,0.25927734375,-0.55914306640625,-8666,2135,-994,-86,22,-13
27230654,0.41925048828125,0.66644287109375,0.2674560546875,-0.555419921875,-8748,1896,-1009,-85,19,-12
27240636,0.42425537109375,0.6630859375,0.2752685546875,-0.55181884765625,-8801,1671,-1021,-83,16,-11
27250620,0.42913818359375,0.6595458984375,0.28265380859375,-0.54852294921875,-8824,1450,-1017,-80,13,-9
27260601,0.433837890625,0.65594482421875,0.28961181640625,-0.5455322265625,-8850,1239,-985,-77,10,-9
27270585,0.43841552734375,0.65216064453125,0.296142578125,-0.54290771484375,-8871,1024,-948,-73,6,-7
27280568,0.44268798828125,0.6484375,0.3021240234375,-0.54058837890625,-8878,813,-897,-69,3,-7
27290549,0.4466552734375,0.64471435546875,0.3076171875,-0.53863525390625,-8864,615,-839,-64,1,-6
27300536,0.45037841796875,0.64105224609375,0.3125,-0.537109375,-8839,423,-760,-58,-2,-5
27310510,0.45367431640625,0.6375732421875,0.3167724609375,-0.5360107421875,-8800,245,-673,-51,-5,-4
27320491,0.45660400390625,0.6341552734375,0.3204345703125,-0.53533935546875,-8771,80,-579,-45,-7,-4
27330475,0.4591064453125,0.63104248046875,0.323486328125,-0.53509521484375,-8736,-61,-481,-37,-10,-3
27340458,0.461181640625,0.628173828125,0.3258056640625,-0.5352783203125,-8656,-180,-384,-30,-12,-2
27350444,0.46270751953125,0.62567138671875,0.3275146484375,-0.535888671875,-8558,-274,-284,-22,-13,-2
27360432,0.46380615234375,0.62347412109375,0.32855224609375,-0.536865234375,-8436,-350,-193,-14,-14,-1
27370420,0.46441650390625,0.62164306640625,0.32891845703125,-0.53814697265625,-8309,-400,-107,-6,-15,0
27380401,0.46453857421875,0.62030029296875,0.32867431640625,-0.53973388671875,-8193,-419,-43,1,-16,1
27390374,0.46435546875,0.61944580078125,0.32769775390625,-0.54150390625,-8072,-406,10,9,-16,3
27400357,0.4637451171875,0.619140625,0.32598876953125,-0.54339599609375,-7975,-375,44,16,-16,6
27410344,0.462890625,0.619384765625,0.32354736328125,-0.5452880859375,-7878,-301,71,23,-16,10
27420322,0.46185302734375,0.62017822265625,0.32037353515625,-0.54718017578125,-7795,-220,87,29,-16,14
27430306,0.4605712890625,0.62158203125,0.31640625,-0.5489501953125,-7742,-117,101,35,-15,18
27440289,0.459228515625,0.62347412109375,0.31170654296875,-0.55059814453125,-7693,2,125,41,-15,23
27450271,0.45770263671875,0.62591552734375,0.30633544921875,-0.5521240234375,-7665,150,131,46,-14,27
27460253,0.4560546875,0.6287841796875,0.3004150390625,-0.55352783203125,-7660,328,140,51,-13,29
27470234,0.4541015625,0.6319580078125,0.2940673828125,-0.554931640625,-7653,519,156,55,-12,30
27480225,0.45172119140625,0.6353759765625,0.2874755859375,-0.556396484375,-7667,724,151,59,-11,28
27490208,0.448974609375,0.63885498046875,0.28082275390625,-0.5579833984375,-7676,950,123,62,-11,26
27500187,0.44586181640625,0.6424560546875,0.27410888671875,-0.5596923828125,-7687,1196,95,64,-11,22
27510180,0.44219970703125,0.64605712890625,0.267578125,-0.56158447265625,-7713,1414,56,66,-11,18
27520168,0.43817138671875,0.64959716796875,0.26129150390625,-0.56365966796875,-7739,1641,28,67,-10,13
27530147,0.4337158203125,0.65289306640625,0.25531005859375,-0.56597900390625,-7762,1873,23,68,-10,8
27540118,0.42889404296875,0.656005859375,0.24981689453125,-0.56854248046875,-7789,2124,17,67,-10,1
27550102,0.4237060546875,0.658935546875,0.24481201171875,-0.5712890625,-7817,2395,22,66,-9,-5
27560082,0.41827392578125,0.66156005859375,0.2403564453125,-0.57415771484375,-7837,2669,26,64,-8,-12
27570064,0.4127197265625,0.66387939453125,0.23651123046875,-0.5770263671875,-7863,2936,34,61,-8,-17
27580047,0.40728759765625,0.6658935546875,0.233154296875,-0.57989501953125,-7890,3189,45,56,-7,-21
27590030,0.402099609375,0.66766357421875,0.2303466796875,-0.5826416015625,-7892,3426,47,51,-6,-23
27600012,0.39727783203125,0.669189453125,0.22796630859375,-0.58514404296875,-7862,3638,73,45,-5,-23
27609990,0.3931884765625,0.67041015625,0.2259521484375,-0.5872802734375,-7830,3848,117,38,-4,-22
27619980,0.3897705078125,0.67144775390625,0.22430419921875,-0.5889892578125,-7804,4039,142,31,-3,-20
27629958,0.38720703125,0.6722412109375,0.222900390625,-0.59027099609375,-7809,4224,182,24,-2,-17
27639941,0.38555908203125,0.6728515625,0.22186279296875,-0.591064453125,-7819,4385,192,16,-1,-13
27649926,0.3848876953125,0.67327880859375,0.2210693359375,-0.59130859375,-7833,4526,182,7,0,-9
27659909,0.38525390625,0.67352294921875,0.2205810546875,-0.5909423828125,-7846,4618,167,-2,1,-4
27669893,0.3865966796875,0.673583984375,0.22039794921875,-0.590087890625,-7841,4673,135,-10,2,0
27679873,0.3887939453125,0.67333984375,0.2205810546875,-0.58880615234375,-7819,4695,113,-19,3,4
27689855,0.391845703125,0.6728515625,0.22125244140625,-0.58709716796875,-7770,4693,98,-27,4,6
27699836,0.3955078125,0.67218017578125,0.2225341796875,-0.5849609375,-7711,4681,49,-35,6,6
27709817,0.3997802734375,0.67108154296875,0.2244873046875,-0.58251953125,-7665,4642,-9,-43,6,6
27719801,0.4044189453125,0.66973876953125,0.22723388671875,-0.579833984375,-7616,4568,-69,-51,8,4
27729785,0.40924072265625,0.6680908203125,0.2308349609375,-0.576904296875,-7559,4461,-134,-57,10,1
27739766,0.414306640625,0.6661376953125,0.2352294921875,-0.57379150390625,-7495,4324,-187,-64,12,-2
27749755,0.41937255859375,0.66387939453125,0.2406005859375,-0.57049560546875,-7449,4170,-231,-69,14,-7
27759737,0.42449951171875,0.6612548828125,0.246826171875,-0.56707763671875,-7398,4012,-279,-75,16,-10
27769714,0.42950439453125,0.65838623046875,0.2537841796875,-0.56353759765625,-7378,3845,-343,-79,18,-14
27779696,0.43450927734375,0.6552734375,0.261474609375,-0.559814453125,-7344,3646,-400,-83,20,-18
27789682,0.4393310546875,0.65203857421875,0.26971435546875,-0.555908203125,-7331,3435,-452,-86,23,-20
27799664,0.44403076171875,0.64862060546875,0.27850341796875,-0.5518798828125,-7322,3199,-497,-88,25,-22
27809648,0.4486083984375,0.64508056640625,0.28759765625,-0.547607421875,-7322,2952,-535,-89,27,-22
27819630,0.4530029296875,0.64154052734375,0.29693603515625,-0.54315185546875,-7344,2673,-584,-90,29,-23
27829610,0.457275390625,0.63800048828125,0.306396484375,-0.53851318359375,-7402,2397,-624,-90,31,-22
27839594,0.46136474609375,0.634521484375,0.3157958984375,-0.53369140625,-7483,2108,-653,-89,32,-20
27849576,0.46527099609375,0.631103515625,0.324951171875,-0.52874755859375,-7591,1822,-667,-87,33,-17
27859560,0.468994140625,0.62786865234375,0.3338623046875,-0.52374267578125,-7724,1547,-676,-84,33,-15
27869545,0.47259521484375,0.62481689453125,0.34228515625,-0.51873779296875,-7863,1304,-672,-80,32,-13
27879527,0.47589111328125,0.621826171875,0.35028076171875,-0.51385498046875,-7989,1083,-649,-76,32,-11
27889511,0.47900390625,0.6190185546875,0.35784912109375,-0.50921630859375,-8097,886,-614,-72,30,-9
27899492,0.48162841796875,0.61639404296875,0.364990234375,-0.50482177734375,-8163,725,-596,-66,29,-10
27909476,0.48388671875,0.61383056640625,0.37176513671875,-0.50079345703125,-8219,610,-582,-61,28,-11
27919457,0.4857177734375,0.61138916015625,0.378173828125,-0.4971923828125,-8242,519,-557,-56,26,-13
27929443,0.4871826171875,0.6090087890625,0.38427734375,-0.4940185546875,-8266,445,-529,-51,24,-15
27939430,0.4881591796875,0.60675048828125,0.3900146484375,-0.4913330078125,-8307,385,-516,-45,22,-16
27949415,0.48876953125,0.60455322265625,0.3953857421875,-0.48907470703125,-8360,343,-518,-40,21,-16
27959397,0.4891357421875,0.6025390625,0.40032958984375,-0.4871826171875,-8410,309,-504,-35,19,-17
27969373,0.48931884765625,0.60076904296875,0.40472412109375,-0.485595703125,-8464,295,-505,-30,16,-15
27979356,0.4892578125,0.59918212890625,0.40863037109375,-0.48431396484375,-8500,282,-530,-25,15,-14
27989344,0.4891357421875,0.597900390625,0.41192626953125,-0.4832763671875,-8526,277,-543,-21,12,-11
27999320,0.4888916015625,0.596923828125,0.41461181640625,-0.482421875,-8540,264,-556,-16,11,-9
28009304,0.4886474609375,0.59619140625,0.416748046875,-0.48175048828125,-8548,259,-553,-12,8,-6
28019287,0.48834228515625,0.59576416015625,0.418212890625,-0.48126220703125,-8549,278,-550,-7,7,-3
28031989,0.48797607421875,0.59564208984375,0.41912841796875,-0.48101806640625,-8535,287,-545,-3,5,0
28039256,0.487548828125,0.5958251953125,0.4195556640625,-0.48089599609375,-8537,325,-535,0,3,2
28049238,0.487060546875,0.59625244140625,0.41943359375,-0.48095703125,-8508,376,-548,5,2,4
28059220,0.4864501953125,0.59686279296875,0.4189453125,-0.481201171875,-8489,422,-557,9,0,5
28069204,0.4857177734375,0.59771728515625,0.41802978515625,-0.481689453125,-8473,481,-582,12,-1,6
28079181,0.48486328125,0.59869384765625,0.4168701171875,-0.48236083984375,-8455,547,-594,16,-2,6
28089174,0.4837646484375,0.59979248046875,0.4154052734375,-0.4832763671875,-8435,610,-613,19,-3,6
28099154,0.48260498046875,0.60101318359375,0.4136962890625,-0.48443603515625,-8407,665,-630,22,-5,6
28109124,0.48126220703125,0.60235595703125,0.4117431640625,-0.4857177734375,-8397,739,-646,24,-6,6
28119109,0.47979736328125,0.60382080078125,0.4095458984375,-0.48724365234375,-8392,802,-673,27,-7,6
28129091,0.47821044921875,0.60540771484375,0.4071044921875,-0.4888916015625,-8357,877,-695,29,-8,6
28139073,0.4765625,0.60699462890625,0.40447998046875,-0.49072265625,-8332,939,-710,31,-8,6
28149053,0.47479248046875,0.608642578125,0.40167236328125,-0.49261474609375,-8292,1008,-728,32,-9,6
28159037,0.472900390625,0.6103515625,0.3988037109375,-0.49468994140625,-8263,1076,-743,34,-10,5
28169022,0.470947265625,0.61212158203125,0.395751953125,-0.496826171875,-8245,1142,-770,36,-11,5
28179004,0.4688720703125,0.6138916015625,0.39263916015625,-0.49908447265625,-8221,1200,-795,37,-11,5
28188991,0.46673583984375,0.61566162109375,0.38946533203125,-0.5013427734375,-8218,1267,-811,37,-12,4
28198974,0.464599609375,0.617431640625,0.38623046875,-0.503662109375,-8205,1337,-828,38,-12,5
28208951,0.4625244140625,0.6192626953125,0.38287353515625,-0.50592041015625,-8199,1412,-849,38,-12,5
28218934,0.46044921875,0.62115478515625,0.37939453125,-0.50811767578125,-8180,1468,-866,38,-12,5
28228916,0.4583740234375,0.62298583984375,0.3759765625,-0.51031494140625,-8190,1538,-896,38,-12,6
28238900,0.45623779296875,0.6248779296875,0.37249755859375,-0.51239013671875,-8187,1613,-945,38,-12,5
28248883,0.4542236328125,0.62677001953125,0.36907958984375,-0.514404296875,-8163,1687,-989,37,-12,5
28258872,0.4520263671875,0.62860107421875,0.3658447265625,-0.51641845703125,-8123,1756,-1030,37,-11,3
28268850,0.4498291015625,0.6302490234375,0.36285400390625,-0.5184326171875,-8078,1824,-1070,35,-11,0
28278834,0.447509765625,0.63165283203125,0.36016845703125,-0.5205078125,-8037,1878,-1081,34,-11,-3
28288814,0.44500732421875,0.6329345703125,0.35791015625,-0.522705078125,-7969,1927,-1049,33,-10,-6
28298797,0.4425048828125,0.6339111328125,0.35595703125,-0.52496337890625,-7892,1971,-943,30,-9,-10
28308780,0.43994140625,0.6346435546875,0.35443115234375,-0.52728271484375,-7812,2020,-802,29,-7,-13
28318760,0.43743896484375,0.63519287109375,0.35321044921875,-0.529541015625,-7756,2061,-650,26,-6,-15
28328750,0.43505859375,0.63568115234375,0.3521728515625,-0.53155517578125,-7707,2115,-517,23,-5,-14
28338732,0.43304443359375,0.63616943359375,0.35125732421875,-0.533203125,-7691,2180,-398,20,-3,-12
28348710,0.43145751953125,0.63665771484375,0.3504638671875,-0.53448486328125,-7683,2228,-290,17,-1,-9
28358697,0.430419921875,0.63714599609375,0.349609375,-0.5352783203125,-7696,2247,-199,12,0,-5
28368683,0.429931640625,0.6376953125,0.3487548828125,-0.5355224609375,-7732,2251,-129,8,1,0
28378661,0.42999267578125,0.6383056640625,0.34783935546875,-0.53533935546875,-7791,2245,-54,4,2,5
28388640,0.43060302734375,0.63885498046875,0.34686279296875,-0.53485107421875,-7846,2203,36,1,2,8
28398630,0.43157958984375,0.63934326171875,0.34600830078125,-0.53411865234375,-7904,2149,125,-2,3,10
28408606,0.4326171875,0.6396484375,0.3453369140625,-0.53326416015625,-7964,2092,209,-4,3,10
28418589,0.4337158203125,0.63983154296875,0.34490966796875,-0.532470703125,-8038,2028,290,-5,4,8
28428571,0.43463134765625,0.63983154296875,0.3448486328125,-0.53179931640625,-8121,1954,325,-6,4,5
28438551,0.43536376953125,0.6396484375,0.34503173828125,-0.53118896484375,-8188,1884,327,-7,4,2
28448537,0.43585205078125,0.63934326171875,0.3455810546875,-0.53082275390625,-8261,1809,315,-7,3,-1
28458515,0.4361572265625,0.63897705078125,0.34619140625,-0.53057861328125,-8325,1746,281,-6,3,-3
28468497,0.43634033203125,0.6385498046875,0.34686279296875,-0.530517578125,-8375,1683,238,-6,2,-4
28478481,0.43646240234375,0.6380615234375,0.3475341796875,-0.53057861328125,-8430,1634,191,-5,1,-4
28488466,0.43658447265625,0.63763427734375,0.34796142578125,-0.53070068359375,-8463,1595,147,-4,0,-4
28498450,0.43670654296875,0.63720703125,0.3482666015625,-0.53094482421875,-8506,1560,104,-2,-2,-3
28508427,0.436767578125,0.6368408203125,0.34832763671875,-0.53131103515625,-8533,1539,26,-1,-3,-2
28518430,0.4368896484375,0.63653564453125,0.34820556640625,-0.53167724609375,-8561,1521,-54,0,-4,0
28528409,0.43695068359375,0.63623046875,0.3477783203125,-0.53216552734375,-8562,1503,-124,2,-6,0
28538389,0.43707275390625,0.635986328125,0.34722900390625,-0.53277587890625,-8537,1492,-211,3,-7,1
28548364,0.4371337890625,0.63580322265625,0.34649658203125,-0.533447265625,-8491,1497,-295,4,-8,1
28558345,0.43707275390625,0.63568115234375,0.34564208984375,-0.5341796875,-8422,1485,-385,5,-9,2
28568327,0.43707275390625,0.635498046875,0.34466552734375,-0.53497314453125,-8351,1489,-449,6,-10,2
28578310,0.43701171875,0.63543701171875,0.34356689453125,-0.53582763671875,-8279,1510,-508,7,-10,2
28588292,0.43695068359375,0.6353759765625,0.34246826171875,-0.53668212890625,-8192,1533,-561,7,-10,1
28598275,0.436767578125,0.6353759765625,0.34136962890625,-0.53753662109375,-8101,1552,-608,7,-10,1
28608258,0.4365234375,0.6353759765625,0.34039306640625,-0.53839111328125,-8030,1575,-649,7,-9,0
28618239,0.43621826171875,0.6353759765625,0.3394775390625,-0.5391845703125,-7960,1600,-678,7,-9,-1
28628229,0.43585205078125,0.63543701171875,0.338623046875,-0.5399169921875,-7900,1614,-714,7,-8,-1
28638212,0.435546875,0.6356201171875,0.3377685546875,-0.54052734375,-7852,1621,-747,7,-7,1
28648190,0.43524169921875,0.6358642578125,0.3369140625,-0.54095458984375,-7814,1632,-769,7,-6,1
28658185,0.43499755859375,0.63623046875,0.3360595703125,-0.541259765625,-7802,1644,-784,6,-5,2
28668168,0.43475341796875,0.63671875,0.335205078125,-0.54150390625,-7786,1657,-791,6,-4,3
28678150,0.43450927734375,0.63714599609375,0.33447265625,-0.5416259765625,-7785,1664,-786,6,-3,2
28688121,0.4342041015625,0.6375732421875,0.3338623046875,-0.54168701171875,-7779,1682,-769,5,-2,1
28698107,0.433837890625,0.63800048828125,0.3333740234375,-0.54180908203125,-7789,1681,-750,5,-1,0
28708089,0.4334716796875,0.638427734375,0.3330078125,-0.5418701171875,-7824,1683,-740,4,-1,0
28718077,0.43304443359375,0.6387939453125,0.332763671875,-0.5418701171875,-7862,1700,-741,4,0,-1
28728054,0.4326171875,0.63916015625,0.33251953125,-0.54193115234375,-7916,1704,-718,4,0,-1
28738037,0.4322509765625,0.63946533203125,0.3323974609375,-0.54193115234375,-7970,1694,-697,3,0,-1
28748027,0.431884765625,0.63983154296875,0.33221435546875,-0.54193115234375,-8034,1675,-682,3,0,0
28758006,0.4315185546875,0.64013671875,0.33203125,-0.54193115234375,-8095,1650,-659,3,0,0
28767990,0.43115234375,0.6405029296875,0.33172607421875,-0.5419921875,-8153,1619,-617,4,0,1
28777978,0.43084716796875,0.64080810546875,0.331298828125,-0.5421142578125,-8227,1576,-541,4,-1,2
28787949,0.43060302734375,0.64117431640625,0.33074951171875,-0.542236328125,-8302,1540,-474,5,-1,3
28797932,0.430419921875,0.6416015625,0.3299560546875,-0.54241943359375,-8372,1511,-383,7,-2,4
28807913,0.43017578125,0.6419677734375,0.3289794921875,-0.542724609375,-8426,1502,-290,8,-2,5
28817897,0.429931640625,0.64227294921875,0.327880859375,-0.54315185546875,-8445,1494,-181,9,-3,4
28827881,0.4295654296875,0.64251708984375,0.3267822265625,-0.5438232421875,-8440,1507,-76,9,-4,2
28837864,0.4290771484375,0.642578125,0.3258056640625,-0.54473876953125,-8408,1546,32,10,-5,-1
28847843,0.42852783203125,0.64251708984375,0.32489013671875,-0.54583740234375,-8377,1573,132,10,-6,-3
28857825,0.42779541015625,0.64227294921875,0.32403564453125,-0.54718017578125,-8334,1587,224,10,-7,-5
28867807,0.4271240234375,0.6419677734375,0.32318115234375,-0.548583984375,-8305,1607,282,10,-8,-5
28877791,0.42645263671875,0.6416015625,0.32232666015625,-0.54998779296875,-8286,1612,320,10,-8,-4
28887778,0.426025390625,0.64129638671875,0.32122802734375,-0.5513916015625,-8262,1620,342,9,-9,-2
28897761,0.42578125,0.6409912109375,0.320068359375,-0.55267333984375,-8250,1618,352,9,-10,0
28907745,0.42559814453125,0.6407470703125,0.31866455078125,-0.5538330078125,-8234,1606,351,9,-10,2
28917727,0.42559814453125,0.64056396484375,0.317138671875,-0.55487060546875,-8214,1582,334,9,-10,4
28927705,0.42572021484375,0.64044189453125,0.31549072265625,-0.555908203125,-8188,1544,307,9,-10,6
28937689,0.42578125,0.640380859375,0.31378173828125,-0.556884765625,-8156,1518,283,10,-11,6
28947671,0.42572021484375,0.64031982421875,0.3121337890625,-0.55792236328125,-8123,1483,249,10,-10,4
28957652,0.42547607421875,0.6402587890625,0.31060791015625,-0.55902099609375,-8075,1463,233,11,-10,3
28967636,0.42498779296875,0.64019775390625,0.3092041015625,-0.56024169921875,-8016,1438,198,12,-10,1
28977620,0.42425537109375,0.64007568359375,0.3079833984375,-0.56158447265625,-7983,1420,154,12,-10,-3
28987599,0.42333984375,0.6400146484375,0.306884765625,-0.56298828125,-7970,1432,82,13,-9,-3
28997582,0.4222412109375,0.6400146484375,0.3057861328125,-0.5643310546875,-7980,1445,-1,14,-9,-4
29007566,0.421142578125,0.64019775390625,0.30462646484375,-0.565673828125,-8034,1462,-77,15,-9,-3
29017547,0.42010498046875,0.6405029296875,0.30328369140625,-0.56683349609375,-8093,1496,-141,15,-8,-1
29027536,0.4190673828125,0.640869140625,0.3017578125,-0.56793212890625,-8148,1520,-186,16,-8,1
29037516,0.41815185546875,0.641357421875,0.300048828125,-0.5689697265625,-8200,1532,-206,17,-8,2
29047498,0.417236328125,0.64190673828125,0.2982177734375,-0.57000732421875,-8223,1558,-213,17,-8,3
29057480,0.41632080078125,0.6424560546875,0.29638671875,-0.571044921875,-8231,1581,-205,18,-9,3
29067462,0.41534423828125,0.64288330078125,0.29449462890625,-0.57220458984375,-8224,1601,-178,18,-9,2
29077448,0.41424560546875,0.643310546875,0.29266357421875,-0.573486328125,-8212,1630,-160,18,-9,0
29087427,0.4130859375,0.64361572265625,0.2908935546875,-0.5748291015625,-8184,1658,-148,18,-10,-1
29097414,0.411865234375,0.64385986328125,0.2891845703125,-0.5762939453125,-8166,1707,-134,18,-11,-2
29107399,0.41070556640625,0.64404296875,0.28741455078125,-0.57781982421875,-8146,1744,-141,18,-11,-3
29117375,0.4095458984375,0.6441650390625,0.28564453125,-0.579345703125,-8113,1768,-123,18,-12,-2
29127360,0.408447265625,0.644287109375,0.28387451171875,-0.5809326171875,-8093,1784,-101,18,-12,-2
29137344,0.407470703125,0.64434814453125,0.281982421875,-0.5823974609375,-8068,1806,-83,17,-13,-1
29147325,0.406494140625,0.64447021484375,0.28009033203125,-0.58392333984375,-8035,1817,-64,17,-12,-1
29157314,0.40557861328125,0.64453125,0.2781982421875,-0.58538818359375,-8000,1833,-35,17,-12,0
29167292,0.40472412109375,0.64459228515625,0.2762451171875,-0.5867919921875,-7956,1840,8,17,-12,0
29177276,0.40380859375,0.644775390625,0.2742919921875,-0.588134765625,-7928,1853,55,17,-11,0
29187258,0.40301513671875,0.64495849609375,0.272216796875,-0.5894775390625,-7896,1875,98,17,-11,1
29197239,0.40216064453125,0.64520263671875,0.27020263671875,-0.5906982421875,-7878,1885,135,17,-11,2
29207229,0.40142822265625,0.64544677734375,0.26812744140625,-0.59185791015625,-7851,1897,163,17,-10,2
29217211,0.40069580078125,0.64581298828125,0.2659912109375,-0.59295654296875,-7831,1919,197,17,-10,3
29227200,0.39996337890625,0.64617919921875,0.2637939453125,-0.593994140625,-7800,1922,218,18,-9,4
29237184,0.3992919921875,0.64666748046875,0.2615966796875,-0.59490966796875,-7774,1941,228,17,-9,4
29247168,0.39862060546875,0.64715576171875,0.2593994140625,-0.59576416015625,-7758,1957,226,17,-8,5
29257149,0.39801025390625,0.64776611328125,0.25714111328125,-0.5965576171875,-7751,2002,230,18,-7,6
29267119,0.3973388671875,0.64837646484375,0.25482177734375,-0.59722900390625,-7759,2025,240,18,-7,6
29277103,0.3966064453125,0.64910888671875,0.25262451171875,-0.597900390625,-7763,2060,245,18,-6,5
29287085,0.39581298828125,0.64984130859375,0.25048828125,-0.59857177734375,-7798,2102,271,18,-5,5
29297067,0.39495849609375,0.65057373046875,0.24835205078125,-0.5992431640625,-7842,2159,304,18,-5,3
29307050,0.39398193359375,0.6512451171875,0.24639892578125,-0.59991455078125,-7875,2213,315,18,-5,2
29317034,0.39300537109375,0.65191650390625,0.24444580078125,-0.60064697265625,-7892,2262,324,18,-5,1
29327017,0.3919677734375,0.65252685546875,0.24261474609375,-0.60137939453125,-7909,2312,315,17,-5,1
29336998,0.39105224609375,0.653076171875,0.24078369140625,-0.6021728515625,-7910,2351,315,17,-6,1
29346988,0.39013671875,0.653564453125,0.239013671875,-0.6029052734375,-7923,2399,293,16,-6,1
29356970,0.38934326171875,0.654052734375,0.2373046875,-0.60357666015625,-7920,2444,271,15,-6,1
29366947,0.388671875,0.65447998046875,0.235595703125,-0.60418701171875,-7914,2481,226,14,-6,2
29376928,0.38812255859375,0.6549072265625,0.23388671875,-0.604736328125,-7916,2516,210,13,-6,2
29386912,0.38775634765625,0.6552734375,0.232177734375,-0.605224609375,-7919,2554,186,11,-7,3
29396896,0.38751220703125,0.6556396484375,0.23052978515625,-0.60565185546875,-7902,2568,178,10,-6,3
29406878,0.38726806640625,0.6558837890625,0.22906494140625,-0.6060791015625,-7860,2579,183,9,-6,2
29416860,0.3870849609375,0.65606689453125,0.22772216796875,-0.60650634765625,-7804,2564,198,8,-6,2
29426842,0.38690185546875,0.65618896484375,0.22662353515625,-0.60687255859375,-7744,2559,218,7,-5,0
29436825,0.38671875,0.65631103515625,0.2257080078125,-0.60723876953125,-7680,2544,230,6,-5,0
29446809,0.3865966796875,0.6563720703125,0.22491455078125,-0.60748291015625,-7614,2538,235,4,-4,-1
29456794,0.386474609375,0.656494140625,0.22442626953125,-0.607666015625,-7574,2513,226,3,-2,-2
29466769,0.3863525390625,0.65655517578125,0.22406005859375,-0.6077880859375,-7536,2511,215,2,-2,-2
29476759,0.38629150390625,0.65667724609375,0.223876953125,-0.6077880859375,-7503,2510,220,1,-1,-3
29486747,0.38623046875,0.65673828125,0.22393798828125,-0.607666015625,-7482,2490,208,-1,1,-3
29496726,0.38629150390625,0.65692138671875,0.22412109375,-0.60748291015625,-7455,2461,196,-2,2,-3
29506702,0.38629150390625,0.6571044921875,0.224365234375,-0.60711669921875,-7432,2421,189,-3,3,-2
29516680,0.38641357421875,0.6573486328125,0.22479248046875,-0.60662841796875,-7432,2381,199,-3,4,-2
29526663,0.3865966796875,0.6575927734375,0.2252197265625,-0.6060791015625,-7455,2329,201,-4,5,-1
29536650,0.3868408203125,0.657958984375,0.2257080078125,-0.6053466796875,-7495,2297,207,-4,6,0
29546630,0.38714599609375,0.65838623046875,0.22613525390625,-0.6044921875,-7557,2250,211,-4,7,1
29556611,0.38739013671875,0.65887451171875,0.22662353515625,-0.60369873046875,-7643,2213,231,-4,7,1
29566595,0.38763427734375,0.65936279296875,0.22711181640625,-0.60284423828125,-7738,2192,255,-4,8,0
29576576,0.38775634765625,0.65985107421875,0.2276611328125,-0.60198974609375,-7849,2173,274,-3,8,0
29586559,0.38787841796875,0.66033935546875,0.2281494140625,-0.6011962890625,-7978,2171,299,-3,9,0
29596543,0.387939453125,0.660888671875,0.22857666015625,-0.60040283203125,-8134,2180,323,-3,8,1
29606527,0.38800048828125,0.661376953125,0.2288818359375,-0.59967041015625,-8298,2183,354,-2,8,2
29616508,0.38818359375,0.66192626953125,0.22900390625,-0.59893798828125,-8458,2203,371,-1,7,3
29626490,0.388427734375,0.66241455078125,0.22894287109375,-0.5982666015625,-8594,2224,416,-1,6,4
29636479,0.388671875,0.66278076171875,0.22882080078125,-0.59771728515625,-8688,2240,476,0,5,3
29646461,0.38885498046875,0.66302490234375,0.2286376953125,-0.597412109375,-8735,2245,549,0,3,2
29656444,0.388916015625,0.6629638671875,0.22857666015625,-0.597412109375,-8754,2232,633,0,1,0
29666426,0.38897705078125,0.6627197265625,0.228515625,-0.59771728515625,-8721,2210,711,0,-1,-2
29676414,0.38885498046875,0.6622314453125,0.228515625,-0.5982666015625,-8657,2175,781,0,-3,-4
29686393,0.3887939453125,0.66156005859375,0.22857666015625,-0.59912109375,-8546,2139,829,0,-6,-5
29696371,0.38861083984375,0.66064453125,0.2286376953125,-0.6002197265625,-8424,2102,865,0,-8,-7
29706351,0.388427734375,0.65960693359375,0.2286376953125,-0.6014404296875,-8296,2061,886,0,-10,-7
29716334,0.3883056640625,0.658447265625,0.22857666015625,-0.60284423828125,-8170,2028,889,0,-11,-8
29726316,0.38812255859375,0.6572265625,0.2283935546875,-0.60430908203125,-8047,2010,862,1,-13,-7
29736298,0.3880615234375,0.65606689453125,0.2281494140625,-0.605712890625,-7947,2007,828,1,-12,-6
29746281,0.38812255859375,0.65496826171875,0.2276611328125,-0.60699462890625,-7877,2035,755,1,-13,-4
29756264,0.38836669921875,0.65411376953125,0.22698974609375,-0.6080322265625,-7854,2057,672,1,-12,-1
29766252,0.38885498046875,0.6534423828125,0.22613525390625,-0.60882568359375,-7844,2082,560,1,-11,3
29776237,0.3896484375,0.65301513671875,0.2249755859375,-0.60919189453125,-7847,2107,425,0,-10,8
29786218,0.3907470703125,0.65283203125,0.22357177734375,-0.60919189453125,-7841,2144,295,0,-9,12
29796203,0.39208984375,0.6529541015625,0.22198486328125,-0.6087646484375,-7860,2177,135,-1,-7,16
29806181,0.39361572265625,0.65338134765625,0.2203369140625,-0.60797119140625,-7890,2200,-21,-1,-5,19
29816172,0.395263671875,0.6539306640625,0.2186279296875,-0.60687255859375,-7914,2218,-166,-2,-3,21
29826154,0.39691162109375,0.65472412109375,0.21697998046875,-0.60552978515625,-7939,2249,-314,-2,-1,22
29836135,0.398681640625,0.65570068359375,0.21533203125,-0.60394287109375,-7980,2290,-445,-3,0,23
29846108,0.40045166015625,0.65667724609375,0.21380615234375,-0.60223388671875,-8027,2347,-541,-4,1,23
29856090,0.4022216796875,0.65771484375,0.21240234375,-0.60040283203125,-8077,2407,-627,-4,2,22
29866075,0.40399169921875,0.65869140625,0.211181640625,-0.59857177734375,-8136,2458,-693,-5,3,22
29876058,0.40576171875,0.65960693359375,0.21014404296875,-0.59674072265625,-8179,2521,-707,-7,3,20
29886045,0.40753173828125,0.660400390625,0.2093505859375,-0.59490966796875,-8205,2576,-700,-8,4,18
29896025,0.4093017578125,0.66094970703125,0.20892333984375,-0.59326171875,-8186,2623,-655,-10,3,15
29906006,0.41107177734375,0.6612548828125,0.20880126953125,-0.59173583984375,-8149,2669,-567,-12,3,13
29915990,0.41278076171875,0.66131591796875,0.2091064453125,-0.59033203125,-8094,2677,-464,-15,3,9
29925978,0.41448974609375,0.6611328125,0.20977783203125,-0.58917236328125,-8025,2700,-348,-17,3,6
29935955,0.4161376953125,0.66058349609375,0.21087646484375,-0.588134765625,-7944,2717,-218,-19,2,2
29945936,0.41790771484375,0.6597900390625,0.21221923828125,-0.5872802734375,-7859,2720,-47,-21,2,0
29955920,0.4195556640625,0.65875244140625,0.2139892578125,-0.586669921875,-7779,2687,107,-23,2,-3
29965900,0.42132568359375,0.65753173828125,0.2159423828125,-0.5860595703125,-7703,2641,244,-25,1,-4
29975883,0.4229736328125,0.6561279296875,0.21820068359375,-0.58563232421875,-7640,2577,374,-26,1,-6
29985865,0.424560546875,0.65460205078125,0.2205810546875,-0.5853271484375,-7560,2473,478,-26,1,-7
29995847,0.426025390625,0.65301513671875,0.2230224609375,-0.58502197265625,-7456,2344,574,-25,1,-8
30005831,0.42724609375,0.6514892578125,0.22564697265625,-0.5848388671875,-7337,2206,622,-25,2,-10
30015812,0.42828369140625,0.6500244140625,0.228271484375,-0.58465576171875,-7219,2075,664,-23,2,-10
30025796,0.4290771484375,0.64874267578125,0.23095703125,-0.58447265625,-7123,1925,667,-21,4,-11
30035778,0.4296875,0.64764404296875,0.23345947265625,-0.584228515625,-7045,1808,655,-19,5,-10
30045767,0.43017578125,0.64691162109375,0.23577880859375,-0.58380126953125,-6992,1695,585,-17,6,-8
30055749,0.43048095703125,0.64642333984375,0.2379150390625,-0.583251953125,-6948,1618,509,-14,8,-6
30065733,0.43072509765625,0.6463623046875,0.2398681640625,-0.5823974609375,-6954,1564,401,-12,10,-4
30075709,0.43084716796875,0.6466064453125,0.241455078125,-0.581298828125,-7005,1545,272,-10,11,-1
30085696,0.43096923828125,0.6473388671875,0.24273681640625,-0.57989501953125,-7096,1567,160,-7,13,2
30095676,0.43115234375,0.64837646484375,0.24371337890625,-0.57818603515625,-7214,1616,32,-6,15,6
30105658,0.43133544921875,0.6497802734375,0.24444580078125,-0.576171875,-7365,1687,-80,-4,17,9
30115641,0.431640625,0.65142822265625,0.24493408203125,-0.5738525390625,-7519,1777,-156,-4,18,12
30125623,0.43194580078125,0.65325927734375,0.24530029296875,-0.5714111328125,-7685,1880,-210,-3,19,13
30135606,0.43231201171875,0.6551513671875,0.24554443359375,-0.56884765625,-7843,2003,-256,-3,20,13
30145590,0.4327392578125,0.656982421875,0.24578857421875,-0.5662841796875,-7988,2138,-282,-4,20,13
30155571,0.4332275390625,0.65863037109375,0.2462158203125,-0.56378173828125,-8125,2270,-268,-5,20,11
30165556,0.43377685546875,0.66009521484375,0.24676513671875,-0.5614013671875,-8257,2399,-276,-6,19,9
30175537,0.43426513671875,0.661376953125,0.24755859375,-0.55914306640625,-8377,2538,-281,-8,18,7
30185519,0.43487548828125,0.662353515625,0.2486572265625,-0.55706787109375,-8484,2639,-262,-10,16,4
30195500,0.43548583984375,0.66290283203125,0.24993896484375,-0.5552978515625,-8569,2708,-238,-12,14,2
30205487,0.43621826171875,0.6632080078125,0.25152587890625,-0.5537109375,-8633,2738,-209,-14,13,-1
30215466,0.43695068359375,0.6632080078125,0.2532958984375,-0.55230712890625,-8680,2734,-172,-16,11,-2
30225447,0.43780517578125,0.66290283203125,0.25518798828125,-0.5511474609375,-8721,2700,-132,-17,9,-3
30235427,0.438720703125,0.662353515625,0.257080078125,-0.55010986328125,-8756,2645,-97,-18,7,-3
30245419,0.43975830078125,0.66168212890625,0.25897216796875,-0.54925537109375,-8771,2567,-68,-19,6,-3
30255403,0.44085693359375,0.660888671875,0.26068115234375,-0.54852294921875,-8789,2482,-33,-18,4,-2
30265386,0.44207763671875,0.65997314453125,0.26220703125,-0.54791259765625,-8774,2394,12,-18,2,-1
30275367,0.44329833984375,0.65899658203125,0.2635498046875,-0.54742431640625,-8755,2309,57,-17,0,0
30285351,0.44451904296875,0.65802001953125,0.2646484375,-0.547119140625,-8714,2209,82,-16,-1,1
30295329,0.44561767578125,0.6571044921875,0.26556396484375,-0.546875,-8662,2140,104,-14,-2,1
30305311,0.44671630859375,0.65618896484375,0.26629638671875,-0.54669189453125,-8586,2091,123,-13,-3,2
30315294,0.44775390625,0.65533447265625,0.26678466796875,-0.546630859375,-8510,2070,130,-12,-4,2
30325278,0.44873046875,0.65447998046875,0.26727294921875,-0.546630859375,-8431,2087,132,-10,-4,1
30335261,0.44964599609375,0.65362548828125,0.2677001953125,-0.546630859375,-8329,2099,142,-10,-4,0
30345250,0.45050048828125,0.65283203125,0.2681884765625,-0.5467529296875,-8230,2125,147,-10,-4,0
30355234,0.4512939453125,0.65191650390625,0.26873779296875,-0.54681396484375,-8130,2151,144,-10,-4,-2
30365212,0.45208740234375,0.65106201171875,0.26934814453125,-0.546875,-8046,2190,149,-11,-4,-2
30375200,0.452880859375,0.650146484375,0.27008056640625,-0.5469970703125,-7994,2222,174,-11,-3,-3
30385185,0.45361328125,0.64923095703125,0.27093505859375,-0.54705810546875,-7944,2244,212,-11,-3,-4
30395169,0.454345703125,0.64825439453125,0.2718505859375,-0.547119140625,-7901,2259,261,-12,-2,-5
30405151,0.45501708984375,0.647216796875,0.27288818359375,-0.54730224609375,-7863,2259,332,-12,-2,-6
30415121,0.4556884765625,0.64617919921875,0.27398681640625,-0.5474853515625,-7841,2250,416,-12,-2,-6
30425104,0.45623779296875,0.64508056640625,0.27508544921875,-0.5477294921875,-7829,2239,504,-11,-2,-7
30435084,0.456787109375,0.6439208984375,0.2762451171875,-0.54803466796875,-7836,2226,566,-11,-2,-7
30445068,0.45733642578125,0.642822265625,0.27728271484375,-0.54827880859375,-7869,2224,600,-11,-2,-7
30455050,0.45794677734375,0.64178466796875,0.2781982421875,-0.548583984375,-7925,2232,598,-10,-3,-5
30465033,0.45855712890625,0.64080810546875,0.279052734375,-0.548828125,-7992,2240,547,-10,-3,-5
30475016,0.45916748046875,0.639892578125,0.27972412109375,-0.54901123046875,-8072,2256,478,-9,-4,-4
30484998,0.459716796875,0.6390380859375,0.2803955078125,-0.5491943359375,-8136,2258,383,-9,-5,-3
30494988,0.460205078125,0.63824462890625,0.28094482421875,-0.54949951171875,-8193,2258,287,-8,-5,-4
30504970,0.4605712890625,0.63739013671875,0.281494140625,-0.54986572265625,-8244,2256,193,-7,-6,-5
30514946,0.4608154296875,0.6365966796875,0.28192138671875,-0.55035400390625,-8274,2240,93,-6,-7,-5
30524930,0.4609375,0.63580322265625,0.28228759765625,-0.5509033203125,-8300,2222,-7,-5,-8,-5
30534912,0.4609375,0.63507080078125,0.2825927734375,-0.5516357421875,-8318,2190,-95,-3,-9,-5
30544893,0.46087646484375,0.6343994140625,0.28277587890625,-0.55242919921875,-8330,2185,-168,-2,-10,-5
30554874,0.4608154296875,0.63372802734375,0.28271484375,-0.55328369140625,-8333,2182,-192,-1,-11,-4
30564863,0.460693359375,0.63311767578125,0.28240966796875,-0.55419921875,-8332,2185,-194,1,-11,-4
30574843,0.46063232421875,0.63250732421875,0.28192138671875,-0.55517578125,-8328,2188,-170,2,-12,-2
30584826,0.4605712890625,0.63201904296875,0.2811279296875,-0.55621337890625,-8311,2208,-119,4,-13,-1
30594813,0.4605712890625,0.6314697265625,0.2801513671875,-0.5572509765625,-8272,2227,-38,5,-13,0
30604793,0.46063232421875,0.6309814453125,0.27899169921875,-0.55841064453125,-8216,2252,75,5,-14,0
30614778,0.4608154296875,0.63037109375,0.27764892578125,-0.5595703125,-8135,2274,204,6,-15,1
30624763,0.46112060546875,0.6297607421875,0.27618408203125,-0.560791015625,-8036,2289,341,6,-15,2
30634747,0.46148681640625,0.62908935546875,0.27459716796875,-0.56201171875,-7937,2300,472,5,-16,3
30644730,0.46197509765625,0.62835693359375,0.27288818359375,-0.563232421875,-7827,2313,579,5,-16,4
30654706,0.46258544921875,0.6275634765625,0.27117919921875,-0.56439208984375,-7730,2360,649,4,-16,4
30664688,0.4632568359375,0.62689208984375,0.26947021484375,-0.56549072265625,-7623,2394,672,4,-16,4
30674670,0.46392822265625,0.62615966796875,0.267822265625,-0.56646728515625,-7534,2425,677,3,-16,4
30684654,0.464599609375,0.62548828125,0.26629638671875,-0.5673828125,-7450,2455,650,3,-15,4
30694635,0.46514892578125,0.6248779296875,0.26495361328125,-0.5682373046875,-7391,2472,605,2,-14,2
30704619,0.46563720703125,0.6243896484375,0.2637939453125,-0.5689697265625,-7349,2479,555,2,-13,2
30714601,0.4659423828125,0.62396240234375,0.26275634765625,-0.56964111328125,-7316,2468,505,2,-11,1
30724584,0.46612548828125,0.6236572265625,0.261962890625,-0.5701904296875,-7300,2447,452,3,-9,1
30734566,0.46612548828125,0.62353515625,0.26123046875,-0.57061767578125,-7279,2418,419,3,-7,1
30744550,0.46600341796875,0.62359619140625,0.2606201171875,-0.57098388671875,-7278,2370,395,3,-5,0
30754536,0.46575927734375,0.62371826171875,0.26007080078125,-0.57122802734375,-7279,2354,383,4,-4,0
30764513,0.46539306640625,0.6240234375,0.25958251953125,-0.57147216796875,-7288,2336,399,5,-2,0
30774500,0.4649658203125,0.6243896484375,0.2591552734375,-0.5716552734375,-7316,2325,422,6,-1,-1
30784489,0.4644775390625,0.62481689453125,0.2586669921875,-0.57177734375,-7344,2317,468,7,0,0
30794465,0.4639892578125,0.62530517578125,0.258056640625,-0.5718994140625,-7390,2340,526,7,0,1
30804448,0.4635009765625,0.62591552734375,0.25738525390625,-0.57196044921875,-7451,2359,598,7,1,1
30814426,0.46307373046875,0.62646484375,0.25665283203125,-0.572021484375,-7509,2383,699,8,1,2
30824418,0.462646484375,0.6270751953125,0.25579833984375,-0.57208251953125,-7585,2413,795,9,1,2
30834402,0.4622802734375,0.62762451171875,0.25482177734375,-0.57220458984375,-7639,2436,878,9,0,3
30844385,0.4619140625,0.62823486328125,0.2537841796875,-0.572265625,-7702,2465,946,9,0,4
30854361,0.46160888671875,0.6287841796875,0.25262451171875,-0.57244873046875,-7750,2517,980,10,-1,4
30864344,0.4613037109375,0.62933349609375,0.2513427734375,-0.5726318359375,-7783,2553,1015,10,-2,4
30874325,0.4609375,0.62982177734375,0.2501220703125,-0.57293701171875,-7790,2596,1035,10,-2,3
30884307,0.46063232421875,0.6302490234375,0.2489013671875,-0.5732421875,-7796,2627,1027,10,-3,3
30894290,0.460205078125,0.63067626953125,0.2476806640625,-0.57366943359375,-7808,2668,1023,10,-3,2
