subject,Ian Lake
arm,left
label,0
hz,100.17190399926794
time,5.770081

timestamp_us,q0,q1,q2,q3,ax,ay,az,gx,gy,gz
78771351,0.6961669921875,-0.200927734375,0.68414306640625,0.082763671875,-8461,-1690,-259,4,-8,-10
78781334,0.69696044921875,-0.20166015625,0.68328857421875,0.08135986328125,-8460,-1641,-262,4,-8,-16
78791319,0.6978759765625,-0.20281982421875,0.6822509765625,0.07952880859375,-8431,-1609,-273,4,-8,-21
78801302,0.69873046875,-0.204345703125,0.68115234375,0.07733154296875,-8379,-1583,-281,4,-8,-25
78811282,0.69964599609375,-0.20611572265625,0.67999267578125,0.07489013671875,-8296,-1581,-282,4,-8,-27
78821266,0.70050048828125,-0.2080078125,0.67877197265625,0.07232666015625,-8207,-1573,-285,4,-7,-28
78831245,0.70123291015625,-0.2098388671875,0.67767333984375,0.06988525390625,-8106,-1580,-284,4,-7,-27
78841238,0.70196533203125,-0.21148681640625,0.6766357421875,0.067626953125,-8013,-1592,-283,3,-7,-24
78851221,0.70263671875,-0.21282958984375,0.67572021484375,0.065673828125,-7938,-1607,-273,3,-6,-20
78861206,0.70318603515625,-0.21368408203125,0.675048828125,0.064208984375,-7876,-1610,-258,3,-5,-14
78871194,0.70361328125,-0.21405029296875,0.674560546875,0.0633544921875,-7826,-1629,-268,3,-5,-7
78881184,0.7039794921875,-0.2138671875,0.67425537109375,0.06304931640625,-7805,-1638,-266,3,-5,0
78891160,0.7042236328125,-0.21319580078125,0.6741943359375,0.06329345703125,-7772,-1633,-283,3,-4,6
78901131,0.70440673828125,-0.212158203125,0.67425537109375,0.06402587890625,-7759,-1626,-290,3,-4,10
78911113,0.7044677734375,-0.2108154296875,0.67449951171875,0.06500244140625,-7745,-1618,-316,2,-3,13
78921097,0.70452880859375,-0.2093505859375,0.6748046875,0.06610107421875,-7750,-1605,-329,2,-3,15
78931080,0.7044677734375,-0.2078857421875,0.67523193359375,0.0672607421875,-7775,-1589,-338,2,-2,14
78941063,0.70440673828125,-0.20660400390625,0.67559814453125,0.0682373046875,-7797,-1582,-338,2,-2,13
78951051,0.70428466796875,-0.20550537109375,0.67596435546875,0.06903076171875,-7813,-1569,-340,2,-1,10
78961032,0.7041015625,-0.20465087890625,0.67633056640625,0.06951904296875,-7846,-1556,-341,2,0,7
78971014,0.7039794921875,-0.2041015625,0.6766357421875,0.0697021484375,-7875,-1550,-327,2,1,3
78980998,0.7037353515625,-0.203857421875,0.67694091796875,0.06951904296875,-7894,-1552,-338,2,1,0
78990986,0.70355224609375,-0.20379638671875,0.67724609375,0.06903076171875,-7913,-1538,-334,2,2,-3
79000958,0.70330810546875,-0.20391845703125,0.677490234375,0.068359375,-7927,-1532,-341,3,2,-5
79010941,0.70306396484375,-0.2042236328125,0.677734375,0.0675048828125,-7915,-1521,-355,3,2,-7
79020924,0.70281982421875,-0.20465087890625,0.677978515625,0.06658935546875,-7911,-1526,-355,3,3,-8
79030908,0.70257568359375,-0.205078125,0.67816162109375,0.0655517578125,-7910,-1523,-348,3,3,-9
79040889,0.702392578125,-0.2054443359375,0.67840576171875,0.0645751953125,-7918,-1513,-333,3,3,-8
79050871,0.7021484375,-0.205810546875,0.67864990234375,0.06365966796875,-7925,-1510,-322,3,3,-7
79060855,0.701904296875,-0.20599365234375,0.67889404296875,0.0628662109375,-7951,-1497,-314,3,3,-6
79070837,0.70159912109375,-0.20611572265625,0.67919921875,0.06219482421875,-7951,-1495,-308,3,3,-5
79080824,0.70135498046875,-0.2060546875,0.67950439453125,0.0616455078125,-7961,-1489,-277,3,3,-3
79090812,0.701171875,-0.20574951171875,0.67987060546875,0.061279296875,-7974,-1485,-271,3,2,0
79100790,0.700927734375,-0.20538330078125,0.68023681640625,0.06109619140625,-7997,-1489,-265,3,2,1
79110770,0.70074462890625,-0.204833984375,0.68060302734375,0.06109619140625,-8022,-1474,-257,3,2,2
79120763,0.7005615234375,-0.20416259765625,0.68096923828125,0.06121826171875,-8052,-1460,-264,2,2,4
79130743,0.70037841796875,-0.2034912109375,0.68133544921875,0.0614013671875,-8096,-1470,-278,2,1,5
79140719,0.70025634765625,-0.2027587890625,0.681640625,0.06158447265625,-8122,-1469,-284,2,1,5
79150705,0.70013427734375,-0.20208740234375,0.68194580078125,0.06182861328125,-8140,-1456,-284,2,0,4
79160688,0.7000732421875,-0.2015380859375,0.68218994140625,0.06195068359375,-8138,-1447,-286,2,0,3
79170672,0.7000732421875,-0.2010498046875,0.68231201171875,0.06201171875,-8135,-1451,-268,2,0,2
79180655,0.7000732421875,-0.20074462890625,0.68243408203125,0.06195068359375,-8112,-1442,-247,2,0,0
79190637,0.7000732421875,-0.200439453125,0.6824951171875,0.06182861328125,-8107,-1433,-233,2,0,0
79200619,0.7000732421875,-0.2001953125,0.6826171875,0.061767578125,-8094,-1419,-214,2,0,0
79210603,0.70001220703125,-0.199951171875,0.6827392578125,0.06170654296875,-8088,-1404,-193,1,0,0
79220584,0.699951171875,-0.19970703125,0.682861328125,0.061767578125,-8092,-1398,-174,1,0,1
79230567,0.69989013671875,-0.19940185546875,0.6829833984375,0.0618896484375,-8087,-1401,-164,1,1,1
79240550,0.69976806640625,-0.1990966796875,0.68316650390625,0.06201171875,-8062,-1408,-159,0,1,2
79250532,0.69970703125,-0.19879150390625,0.683349609375,0.06219482421875,-8035,-1413,-146,0,1,2
79260518,0.69952392578125,-0.198486328125,0.68359375,0.06243896484375,-8009,-1433,-139,0,1,3
79270500,0.69940185546875,-0.1981201171875,0.683837890625,0.062744140625,-8011,-1453,-138,0,1,4
79280483,0.69915771484375,-0.19769287109375,0.68414306640625,0.0631103515625,-8011,-1457,-103,-1,2,4
79290464,0.698974609375,-0.19720458984375,0.68438720703125,0.0634765625,-8015,-1470,-73,0,2,5
79300449,0.69873046875,-0.19671630859375,0.68475341796875,0.06396484375,-8034,-1476,-49,0,2,6
79310434,0.698486328125,-0.19610595703125,0.6851806640625,0.06451416015625,-8057,-1476,-40,-1,3,7
79320414,0.69818115234375,-0.19549560546875,0.68560791015625,0.06512451171875,-8072,-1466,-32,-1,3,7
79330398,0.6978759765625,-0.19488525390625,0.68597412109375,0.06573486328125,-8102,-1481,-18,-1,3,7
79340374,0.69757080078125,-0.1943359375,0.6864013671875,0.0662841796875,-8123,-1488,-27,-1,3,6
79350358,0.69732666015625,-0.19384765625,0.686767578125,0.06671142578125,-8129,-1503,-12,-1,3,6
79360338,0.69708251953125,-0.193359375,0.6871337890625,0.067138671875,-8123,-1509,-5,-1,3,5
79370326,0.69683837890625,-0.19305419921875,0.68743896484375,0.06744384765625,-8123,-1514,7,-1,2,4
79380313,0.69659423828125,-0.19281005859375,0.68768310546875,0.06756591796875,-8109,-1516,7,-1,3,2
79390295,0.6964111328125,-0.192626953125,0.68792724609375,0.067626953125,-8119,-1509,12,0,2,1
79400277,0.6962890625,-0.192626953125,0.68804931640625,0.06756591796875,-8125,-1501,27,0,2,-1
79410257,0.6961669921875,-0.19268798828125,0.688232421875,0.06732177734375,-8140,-1498,23,0,2,-2
79420245,0.696044921875,-0.19287109375,0.68829345703125,0.06707763671875,-8143,-1485,20,0,2,-3
79430228,0.69598388671875,-0.193115234375,0.6883544921875,0.06671142578125,-8144,-1483,11,0,2,-4
79440210,0.6959228515625,-0.193359375,0.6883544921875,0.0662841796875,-8147,-1484,7,0,1,-4
79450191,0.6959228515625,-0.19354248046875,0.68829345703125,0.06591796875,-8162,-1479,5,0,1,-4
79460185,0.69598388671875,-0.19366455078125,0.68829345703125,0.065673828125,-8193,-1477,12,0,0,-3
79470174,0.696044921875,-0.1937255859375,0.688232421875,0.0655517578125,-8217,-1463,14,0,0,-2
79480144,0.69610595703125,-0.19366455078125,0.68817138671875,0.06549072265625,-8245,-1457,13,0,-1,-1
79490123,0.69622802734375,-0.19354248046875,0.68804931640625,0.06549072265625,-8271,-1443,-5,0,-1,0
79500102,0.69635009765625,-0.19329833984375,0.68798828125,0.0655517578125,-8299,-1444,-12,1,-2,1
79510084,0.696533203125,-0.1929931640625,0.6878662109375,0.0657958984375,-8328,-1451,-24,0,-2,2
79520066,0.69677734375,-0.19256591796875,0.687744140625,0.0660400390625,-8338,-1457,-40,0,-3,3
79530051,0.697021484375,-0.192138671875,0.68756103515625,0.06640625,-8318,-1468,-32,1,-3,4
79540033,0.69732666015625,-0.19171142578125,0.6873779296875,0.06671142578125,-8284,-1455,-8,1,-4,3
79550016,0.69769287109375,-0.1912841796875,0.6871337890625,0.06695556640625,-8246,-1447,14,1,-4,3
79559999,0.697998046875,-0.19091796875,0.68682861328125,0.067138671875,-8216,-1445,26,1,-4,1
79569991,0.6983642578125,-0.19073486328125,0.6865234375,0.067138671875,-8200,-1428,45,1,-4,-1
79579963,0.69879150390625,-0.190673828125,0.6861572265625,0.0670166015625,-8184,-1412,54,1,-4,-2
79589945,0.69915771484375,-0.19073486328125,0.68572998046875,0.06683349609375,-8166,-1415,52,1,-4,-3
79599928,0.6995849609375,-0.19085693359375,0.685302734375,0.0665283203125,-8148,-1425,51,1,-4,-4
79609909,0.70001220703125,-0.19110107421875,0.68487548828125,0.06610107421875,-8119,-1439,58,1,-4,-5
79619891,0.70037841796875,-0.19134521484375,0.6844482421875,0.065673828125,-8080,-1449,68,1,-4,-5
79629878,0.7008056640625,-0.1915283203125,0.68402099609375,0.065185546875,-8046,-1452,70,1,-4,-5
79639859,0.701171875,-0.19171142578125,0.68365478515625,0.064697265625,-8041,-1449,75,1,-3,-5
79649843,0.701416015625,-0.19183349609375,0.683349609375,0.0643310546875,-8060,-1451,76,1,-2,-4
79659827,0.70172119140625,-0.1917724609375,0.68310546875,0.0640869140625,-8069,-1451,77,1,-2,-2
79669811,0.701904296875,-0.19158935546875,0.68292236328125,0.06396484375,-8095,-1450,71,1,-2,-1
79679796,0.70208740234375,-0.19134521484375,0.682861328125,0.06390380859375,-8105,-1456,61,2,-2,1
79689773,0.7022705078125,-0.1910400390625,0.6827392578125,0.06396484375,-8106,-1453,50,1,-2,1
79699765,0.702392578125,-0.190673828125,0.6827392578125,0.06402587890625,-8114,-1449,55,2,-1,2
79709748,0.7025146484375,-0.1903076171875,0.6827392578125,0.0640869140625,-8113,-1434,58,1,-1,2
79719724,0.70257568359375,-0.18994140625,0.6827392578125,0.06414794921875,-8106,-1424,52,1,-1,1
79729706,0.70263671875,-0.18963623046875,0.6827392578125,0.06414794921875,-8104,-1409,49,1,-1,0
79739692,0.70269775390625,-0.189453125,0.6827392578125,0.06402587890625,-8096,-1399,33,1,-1,0
79749679,0.7027587890625,-0.18927001953125,0.6827392578125,0.06390380859375,-8095,-1402,18,1,0,-1
79759657,0.70281982421875,-0.189208984375,0.6827392578125,0.06365966796875,-8084,-1406,3,1,0,-2
79769638,0.70281982421875,-0.189208984375,0.6827392578125,0.06341552734375,-8073,-1397,-8,1,0,-2
79779621,0.702880859375,-0.189208984375,0.6827392578125,0.0631103515625,-8085,-1399,-19,1,0,-2
79789605,0.702880859375,-0.189208984375,0.6827392578125,0.06280517578125,-8081,-1395,-32,1,0,-2
79799587,0.702880859375,-0.18914794921875,0.6827392578125,0.06256103515625,-8087,-1388,-53,1,0,-3
79809569,0.702880859375,-0.18914794921875,0.68280029296875,0.062255859375,-8089,-1379,-78,1,0,-2
79819555,0.702880859375,-0.18914794921875,0.68280029296875,0.06201171875,-8100,-1390,-97,1,-1,-2
79829542,0.702880859375,-0.1890869140625,0.682861328125,0.061767578125,-8104,-1393,-121,1,0,-2
79839520,0.70294189453125,-0.18902587890625,0.682861328125,0.06158447265625,-8108,-1394,-125,1,-1,-2
79849501,0.70294189453125,-0.18890380859375,0.682861328125,0.0614013671875,-8106,-1389,-148,1,-1,-1
79859489,0.70294189453125,-0.18878173828125,0.68292236328125,0.06134033203125,-8105,-1384,-171,1,-1,0
79869466,0.70294189453125,-0.18865966796875,0.6829833984375,0.06134033203125,-8098,-1377,-180,1,-1,0
79879451,0.7030029296875,-0.18853759765625,0.68292236328125,0.061279296875,-8107,-1378,-173,1,-1,-1
79889430,0.70306396484375,-0.18841552734375,0.68292236328125,0.0611572265625,-8106,-1389,-170,1,-1,-1
79899422,0.703125,-0.18829345703125,0.68292236328125,0.06103515625,-8097,-1388,-162,1,-1,-1
79909403,0.70318603515625,-0.18817138671875,0.68292236328125,0.06097412109375,-8070,-1390,-160,1,-1,-1
79919379,0.70318603515625,-0.18804931640625,0.68292236328125,0.06085205078125,-8057,-1382,-164,1,-1,-1
79929369,0.7032470703125,-0.18792724609375,0.682861328125,0.060791015625,-8033,-1374,-142,1,-1,0
79939350,0.703369140625,-0.187744140625,0.682861328125,0.06072998046875,-8004,-1387,-132,1,-1,0
79949330,0.703369140625,-0.18756103515625,0.682861328125,0.0606689453125,-7980,-1394,-122,1,-1,0
79959312,0.703369140625,-0.1873779296875,0.68292236328125,0.06060791015625,-7966,-1391,-115,1,-1,0
79969300,0.703369140625,-0.18719482421875,0.6829833984375,0.060546875,-7958,-1394,-101,1,0,0
79979280,0.703369140625,-0.18701171875,0.68304443359375,0.06048583984375,-7944,-1390,-103,1,0,0
79989264,0.70330810546875,-0.18682861328125,0.68316650390625,0.06048583984375,-7931,-1385,-113,1,0,0
79999242,0.70330810546875,-0.18658447265625,0.68328857421875,0.0604248046875,-7928,-1386,-117,1,0,1
80009232,0.7032470703125,-0.18634033203125,0.683349609375,0.060546875,-7919,-1385,-111,1,0,1
80019216,0.70318603515625,-0.18603515625,0.6834716796875,0.06060791015625,-7907,-1377,-119,1,0,2
80029196,0.703125,-0.1856689453125,0.68365478515625,0.06072998046875,-7900,-1372,-120,1,0,2
80039188,0.7030029296875,-0.185302734375,0.683837890625,0.0609130859375,-7888,-1363,-123,1,1,2
80049174,0.702880859375,-0.18505859375,0.68408203125,0.06103515625,-7878,-1355,-120,1,1,2
80059146,0.70269775390625,-0.18487548828125,0.68426513671875,0.06109619140625,-7870,-1352,-123,0,1,1
80071995,0.7025146484375,-0.18475341796875,0.68450927734375,0.06109619140625,-7878,-1339,-116,0,2,0
80079109,0.7022705078125,-0.184814453125,0.68475341796875,0.06103515625,-7884,-1319,-127,-1,2,-1
80089086,0.70196533203125,-0.1849365234375,0.68499755859375,0.0609130859375,-7870,-1310,-131,-1,2,-2
80099069,0.70172119140625,-0.1851806640625,0.68524169921875,0.06072998046875,-7868,-1304,-133,-1,3,-3
80109051,0.70135498046875,-0.18560791015625,0.685546875,0.0604248046875,-7865,-1301,-129,-2,4,-4
80119031,0.70098876953125,-0.18603515625,0.685791015625,0.06011962890625,-7867,-1289,-123,-2,4,-5
80129015,0.7005615234375,-0.18658447265625,0.68609619140625,0.05975341796875,-7893,-1286,-121,-2,5,-6
80138997,0.7000732421875,-0.18719482421875,0.68646240234375,0.05938720703125,-7921,-1282,-131,-3,5,-6
80148987,0.6995849609375,-0.18780517578125,0.68682861328125,0.05914306640625,-7949,-1267,-130,-3,5,-5
80158963,0.69903564453125,-0.1883544921875,0.687255859375,0.0589599609375,-7974,-1288,-140,-4,5,-4
80168944,0.698486328125,-0.18890380859375,0.6876220703125,0.05889892578125,-7995,-1296,-144,-4,5,-3
80178927,0.69793701171875,-0.18939208984375,0.6881103515625,0.05902099609375,-8021,-1316,-151,-4,5,-2
80188911,0.69732666015625,-0.18975830078125,0.6885986328125,0.05926513671875,-8033,-1331,-156,-5,5,-1
80198896,0.69671630859375,-0.19012451171875,0.68902587890625,0.05963134765625,-8026,-1350,-156,-5,5,0
80208878,0.69610595703125,-0.19049072265625,0.68951416015625,0.06005859375,-8033,-1366,-176,-6,5,1
80218862,0.695556640625,-0.1907958984375,0.69000244140625,0.060546875,-8059,-1381,-181,-6,5,1
80228844,0.6949462890625,-0.19110107421875,0.6904296875,0.06109619140625,-8091,-1393,-198,-6,4,2
80238827,0.69439697265625,-0.19140625,0.69085693359375,0.06170654296875,-8111,-1412,-218,-7,4,2
80248810,0.69384765625,-0.1917724609375,0.6912841796875,0.0623779296875,-8130,-1413,-235,-6,4,2
80258793,0.693359375,-0.192138671875,0.69158935546875,0.06298828125,-8164,-1424,-244,-7,3,1
80268774,0.69287109375,-0.1925048828125,0.69189453125,0.0635986328125,-8209,-1432,-272,-7,3,1
80278763,0.69244384765625,-0.19293212890625,0.692138671875,0.064208984375,-8239,-1444,-295,-7,2,1
80288746,0.692138671875,-0.19342041015625,0.69232177734375,0.06475830078125,-8254,-1450,-302,-7,1,0
80298722,0.69183349609375,-0.19390869140625,0.69244384765625,0.06536865234375,-8271,-1468,-309,-7,1,0
80308706,0.6915283203125,-0.1944580078125,0.6925048828125,0.06591796875,-8275,-1494,-334,-7,0,0
80318690,0.69134521484375,-0.19500732421875,0.69244384765625,0.06646728515625,-8274,-1515,-336,-7,-1,0
80328672,0.691162109375,-0.19549560546875,0.69244384765625,0.06707763671875,-8257,-1537,-343,-7,-1,0
80338652,0.6910400390625,-0.19598388671875,0.6923828125,0.067626953125,-8237,-1538,-341,-6,-1,0
80348636,0.69091796875,-0.1964111328125,0.69232177734375,0.06817626953125,-8227,-1534,-345,-6,-1,0
80358619,0.6907958984375,-0.19683837890625,0.6922607421875,0.0687255859375,-8219,-1528,-344,-6,-1,0
80368604,0.69073486328125,-0.19732666015625,0.69219970703125,0.0692138671875,-8209,-1525,-353,-6,-1,0
80378589,0.69061279296875,-0.19775390625,0.69207763671875,0.0697021484375,-8215,-1520,-357,-6,-1,0
80388571,0.6905517578125,-0.1982421875,0.6920166015625,0.07012939453125,-8214,-1527,-363,-6,-1,0
80398552,0.6904296875,-0.19866943359375,0.69189453125,0.07061767578125,-8209,-1531,-371,-6,-1,0
80408542,0.69036865234375,-0.1990966796875,0.69183349609375,0.07098388671875,-8194,-1527,-385,-5,-1,-1
80418516,0.6903076171875,-0.19952392578125,0.69171142578125,0.07135009765625,-8173,-1524,-387,-5,-1,-1
80428500,0.69024658203125,-0.20001220703125,0.691650390625,0.0716552734375,-8156,-1514,-388,-5,-1,-1
80438481,0.690185546875,-0.20050048828125,0.6915283203125,0.0718994140625,-8131,-1519,-383,-5,-1,-2
80448467,0.6900634765625,-0.20098876953125,0.69146728515625,0.0721435546875,-8119,-1521,-381,-5,-1,-2
80458449,0.69000244140625,-0.201416015625,0.69140625,0.07232666015625,-8109,-1512,-379,-4,-1,-2
80468435,0.68988037109375,-0.20184326171875,0.69134521484375,0.0726318359375,-8093,-1498,-389,-4,-1,-1
80478425,0.68975830078125,-0.20220947265625,0.69134521484375,0.0728759765625,-8076,-1479,-391,-4,0,-1
80488411,0.68963623046875,-0.2025146484375,0.69134521484375,0.0732421875,-8061,-1458,-377,-4,0,0
80498389,0.689453125,-0.20281982421875,0.69134521484375,0.07354736328125,-8041,-1454,-382,-4,0,0
80508365,0.68927001953125,-0.20318603515625,0.69140625,0.0738525390625,-8018,-1455,-380,-4,0,0
80518350,0.6890869140625,-0.20355224609375,0.69146728515625,0.07421875,-8004,-1446,-352,-5,0,-1
80528329,0.68890380859375,-0.20391845703125,0.6915283203125,0.07452392578125,-7986,-1439,-333,-4,1,-1
80538312,0.688720703125,-0.20428466796875,0.6915283203125,0.07489013671875,-7991,-1451,-313,-5,1,-1
80548296,0.6884765625,-0.2047119140625,0.69158935546875,0.0751953125,-7981,-1455,-304,-5,1,-1
80558279,0.688232421875,-0.20513916015625,0.69171142578125,0.07550048828125,-7990,-1453,-281,-5,1,-1
80568260,0.68798828125,-0.20556640625,0.6917724609375,0.07586669921875,-8005,-1446,-275,-5,1,-1
80578241,0.687744140625,-0.20599365234375,0.69189453125,0.076171875,-8023,-1449,-268,-5,2,-1
80588240,0.6875,-0.2064208984375,0.69195556640625,0.0765380859375,-8054,-1460,-265,-5,2,0
80598218,0.68719482421875,-0.2069091796875,0.69207763671875,0.076904296875,-8096,-1478,-263,-5,2,0
80608206,0.6868896484375,-0.207275390625,0.69219970703125,0.0772705078125,-8124,-1481,-249,-5,2,0
80618188,0.6866455078125,-0.20770263671875,0.6922607421875,0.07763671875,-8146,-1499,-253,-5,1,0
80628174,0.6864013671875,-0.20806884765625,0.6923828125,0.07794189453125,-8150,-1500,-246,-5,2,0
80638153,0.68621826171875,-0.20843505859375,0.69244384765625,0.07830810546875,-8160,-1502,-241,-5,1,0
80648126,0.68603515625,-0.20880126953125,0.6925048828125,0.07855224609375,-8200,-1495,-245,-5,1,-1
80658108,0.68585205078125,-0.20916748046875,0.69256591796875,0.078857421875,-8222,-1498,-258,-4,1,-1
80668090,0.6856689453125,-0.20953369140625,0.69256591796875,0.0791015625,-8234,-1501,-259,-4,1,-1
80678072,0.685546875,-0.20989990234375,0.69256591796875,0.0792236328125,-8220,-1498,-275,-4,1,-2
80688055,0.68536376953125,-0.21026611328125,0.69256591796875,0.07940673828125,-8207,-1508,-281,-4,1,-2
80698037,0.685302734375,-0.210693359375,0.69256591796875,0.0794677734375,-8187,-1504,-289,-3,0,-2
80708019,0.6851806640625,-0.2110595703125,0.6925048828125,0.07958984375,-8180,-1501,-295,-3,0,-2
80718004,0.6851806640625,-0.2113037109375,0.69244384765625,0.07965087890625,-8164,-1511,-281,-3,0,-1
80727996,0.6851806640625,-0.21148681640625,0.6923828125,0.07977294921875,-8163,-1522,-269,-2,0,0
80737980,0.6851806640625,-0.21160888671875,0.69232177734375,0.08001708984375,-8149,-1528,-269,-2,-1,1
80747953,0.6851806640625,-0.21160888671875,0.6922607421875,0.0802001953125,-8144,-1530,-261,-2,-1,1
80757934,0.68524169921875,-0.21148681640625,0.69219970703125,0.0804443359375,-8152,-1540,-269,-1,-1,1
80767916,0.685302734375,-0.21136474609375,0.692138671875,0.08062744140625,-8153,-1542,-271,-1,-1,2
80777904,0.6854248046875,-0.211181640625,0.69207763671875,0.080810546875,-8160,-1548,-278,0,-1,1
80787890,0.68548583984375,-0.2110595703125,0.6920166015625,0.0809326171875,-8149,-1540,-277,0,-2,1
80797868,0.6856689453125,-0.21087646484375,0.69189453125,0.0810546875,-8138,-1537,-284,0,-2,1
80807850,0.68585205078125,-0.21075439453125,0.6917724609375,0.0810546875,-8133,-1534,-285,1,-2,0
80817833,0.68603515625,-0.21063232421875,0.691650390625,0.08099365234375,-8140,-1546,-294,1,-2,0
80827815,0.68621826171875,-0.21044921875,0.6915283203125,0.08087158203125,-8128,-1558,-300,1,-2,0
80837799,0.6864013671875,-0.2103271484375,0.69140625,0.0806884765625,-8121,-1554,-308,2,-2,0
80847784,0.6866455078125,-0.21014404296875,0.69122314453125,0.08050537109375,-8120,-1554,-309,2,-2,-1
80857768,0.68682861328125,-0.2099609375,0.69110107421875,0.0802001953125,-8127,-1566,-299,3,-2,-1
80867750,0.6871337890625,-0.20977783203125,0.69091796875,0.079833984375,-8123,-1599,-279,3,-2,-2
80877734,0.68743896484375,-0.2095947265625,0.69073486328125,0.079345703125,-8120,-1607,-283,4,-2,-2
80887711,0.68768310546875,-0.20941162109375,0.69061279296875,0.07879638671875,-8114,-1613,-282,4,-2,-3
80897689,0.68798828125,-0.209228515625,0.6904296875,0.078125,-8118,-1595,-285,5,-2,-4
80907674,0.6883544921875,-0.20904541015625,0.69024658203125,0.077392578125,-8110,-1577,-285,5,-2,-5
80917657,0.688720703125,-0.20892333984375,0.69000244140625,0.07647705078125,-8100,-1574,-286,6,-2,-5
80927639,0.6890869140625,-0.20880126953125,0.6898193359375,0.07550048828125,-8087,-1559,-288,6,-2,-6
80937623,0.68939208984375,-0.2086181640625,0.6895751953125,0.0745849609375,-8092,-1534,-287,6,-2,-5
80947605,0.68975830078125,-0.20831298828125,0.689453125,0.07373046875,-8084,-1520,-289,7,-2,-4
80957586,0.69012451171875,-0.20782470703125,0.6893310546875,0.07305908203125,-8082,-1509,-288,7,-2,-1
80967574,0.6904296875,-0.20709228515625,0.68927001953125,0.0726318359375,-8085,-1508,-276,7,-2,2
80977554,0.69073486328125,-0.20611572265625,0.68927001953125,0.07244873046875,-8086,-1504,-277,7,-2,4
80987542,0.69097900390625,-0.20489501953125,0.6893310546875,0.072509765625,-8095,-1513,-292,6,-3,7
80997522,0.6912841796875,-0.20361328125,0.689453125,0.07275390625,-8123,-1505,-288,6,-3,9
81007502,0.6915283203125,-0.20220947265625,0.68951416015625,0.0731201171875,-8130,-1490,-299,6,-3,9
81017485,0.69183349609375,-0.2008056640625,0.68963623046875,0.07342529296875,-8141,-1475,-296,6,-3,9
81027467,0.69207763671875,-0.19964599609375,0.689697265625,0.07366943359375,-8152,-1457,-295,5,-3,7
81037452,0.6923828125,-0.1986083984375,0.68963623046875,0.07379150390625,-8152,-1445,-274,5,-3,5
81047433,0.69268798828125,-0.1978759765625,0.6895751953125,0.07366943359375,-8147,-1427,-268,5,-3,2
81057424,0.69305419921875,-0.19732666015625,0.689453125,0.0733642578125,-8131,-1420,-258,5,-3,0
81067408,0.693359375,-0.19696044921875,0.68927001953125,0.07293701171875,-8116,-1394,-256,4,-3,-2
81077382,0.693603515625,-0.19677734375,0.6890869140625,0.0723876953125,-8098,-1374,-248,4,-2,-4
81087365,0.69390869140625,-0.19677734375,0.68890380859375,0.07171630859375,-8069,-1374,-253,3,-2,-5
81097350,0.694091796875,-0.19677734375,0.688720703125,0.07110595703125,-8050,-1360,-250,3,-2,-5
81107333,0.6943359375,-0.19683837890625,0.68853759765625,0.070556640625,-8048,-1350,-258,3,-2,-5
81117316,0.6944580078125,-0.19683837890625,0.6884765625,0.07012939453125,-8066,-1345,-261,2,-1,-3
81127298,0.694580078125,-0.19677734375,0.68841552734375,0.06976318359375,-8058,-1347,-255,2,-1,-2
81137284,0.69464111328125,-0.1966552734375,0.68841552734375,0.069580078125,-8061,-1355,-267,2,-1,-1
81147268,0.69464111328125,-0.19647216796875,0.68841552734375,0.0694580078125,-8054,-1360,-267,2,-1,0
81157246,0.6947021484375,-0.1961669921875,0.6884765625,0.0694580078125,-8047,-1357,-267,1,-1,1
81167237,0.6947021484375,-0.1959228515625,0.68853759765625,0.06951904296875,-8034,-1353,-266,1,-1,1
81177227,0.6947021484375,-0.1956787109375,0.6885986328125,0.06951904296875,-8031,-1351,-278,1,0,0
81187207,0.6947021484375,-0.195556640625,0.68865966796875,0.06951904296875,-8021,-1344,-270,1,-1,0
81197190,0.6947021484375,-0.19549560546875,0.68865966796875,0.06939697265625,-8039,-1343,-269,1,-1,-2
81207179,0.6947021484375,-0.19549560546875,0.68865966796875,0.0692138671875,-8029,-1320,-278,1,-1,-2
81217155,0.6947021484375,-0.195556640625,0.68865966796875,0.06903076171875,-8046,-1332,-288,0,-1,-3
81227126,0.69476318359375,-0.1956787109375,0.68865966796875,0.06884765625,-8052,-1342,-293,0,-1,-3
81237110,0.69476318359375,-0.19580078125,0.6885986328125,0.06866455078125,-8060,-1339,-303,0,-1,-3
81247093,0.6947021484375,-0.1959228515625,0.6885986328125,0.0684814453125,-8068,-1340,-301,0,-1,-2
81257075,0.69476318359375,-0.19598388671875,0.6885986328125,0.068359375,-8088,-1340,-316,0,-1,-2
81267058,0.69476318359375,-0.19598388671875,0.6885986328125,0.0682373046875,-8107,-1350,-307,0,-1,-1
81277051,0.69476318359375,-0.1959228515625,0.6885986328125,0.0682373046875,-8122,-1347,-300,0,-1,0
81287031,0.69476318359375,-0.19586181640625,0.6885986328125,0.06829833984375,-8148,-1344,-290,0,-1,0
81297008,0.69482421875,-0.19580078125,0.6885986328125,0.068359375,-8160,-1339,-292,0,-1,0
81306996,0.69488525390625,-0.19573974609375,0.68853759765625,0.068359375,-8165,-1343,-284,0,-1,-1
81316979,0.6949462890625,-0.1956787109375,0.68853759765625,0.068359375,-8159,-1341,-281,0,-1,-1
81326956,0.6949462890625,-0.1956787109375,0.6884765625,0.0682373046875,-8147,-1351,-280,0,-1,-2
81336939,0.69500732421875,-0.19573974609375,0.68841552734375,0.068115234375,-8137,-1368,-260,0,-1,-2
81346921,0.695068359375,-0.19580078125,0.6883544921875,0.06793212890625,-8132,-1377,-241,1,-1,-2
81356905,0.6951904296875,-0.19580078125,0.688232421875,0.06781005859375,-8127,-1396,-219,0,-1,-2
81366887,0.69525146484375,-0.19573974609375,0.688232421875,0.06768798828125,-8121,-1406,-216,1,-1,-1
81376878,0.6953125,-0.19561767578125,0.68817138671875,0.06768798828125,-8115,-1414,-204,0,-1,0
81386852,0.69537353515625,-0.19537353515625,0.68817138671875,0.0677490234375,-8122,-1427,-201,1,-1,1
81396836,0.6954345703125,-0.195068359375,0.688232421875,0.06787109375,-8111,-1436,-199,1,-1,2
81406820,0.69549560546875,-0.1947021484375,0.688232421875,0.0679931640625,-8098,-1451,-178,1,-1,2
81416803,0.69561767578125,-0.1943359375,0.688232421875,0.06805419921875,-8085,-1460,-155,2,-1,2
81426785,0.6956787109375,-0.19403076171875,0.688232421875,0.0679931640625,-8079,-1477,-144,2,-1,1
81436769,0.69580078125,-0.19384765625,0.68817138671875,0.06781005859375,-8091,-1476,-125,2,-1,-1
81446753,0.69598388671875,-0.19366455078125,0.6881103515625,0.06756591796875,-8099,-1478,-118,2,-1,-2
81456736,0.69610595703125,-0.19354248046875,0.68798828125,0.06719970703125,-8101,-1463,-114,3,-1,-3
81466715,0.6962890625,-0.1934814453125,0.6878662109375,0.06671142578125,-8103,-1470,-108,3,-1,-3
81476696,0.69647216796875,-0.193359375,0.68780517578125,0.0662841796875,-8099,-1457,-106,3,-1,-3
81486678,0.6966552734375,-0.1932373046875,0.68768310546875,0.06585693359375,-8083,-1442,-97,3,-1,-3
81496662,0.6968994140625,-0.193115234375,0.68756103515625,0.0654296875,-8069,-1434,-97,3,-2,-2
81506646,0.69708251953125,-0.19281005859375,0.68743896484375,0.06512451171875,-8078,-1423,-90,3,-2,-1
81516636,0.69732666015625,-0.19244384765625,0.68731689453125,0.06488037109375,-8083,-1410,-88,3,-2,0
81526612,0.69757080078125,-0.19195556640625,0.687255859375,0.06475830078125,-8092,-1402,-84,3,-2,1
81536595,0.69775390625,-0.19134521484375,0.68719482421875,0.0648193359375,-8111,-1396,-84,3,-2,3
81546576,0.697998046875,-0.19061279296875,0.6871337890625,0.06494140625,-8126,-1389,-75,3,-2,4
81556559,0.6982421875,-0.18988037109375,0.68707275390625,0.065185546875,-8134,-1386,-69,3,-3,5
81566542,0.698486328125,-0.18902587890625,0.68701171875,0.0655517578125,-8140,-1372,-71,3,-3,6
81576522,0.69873046875,-0.18817138671875,0.68695068359375,0.06591796875,-8148,-1359,-55,2,-3,6
81586506,0.69903564453125,-0.18731689453125,0.6868896484375,0.0662841796875,-8172,-1348,-46,3,-3,5
81596489,0.6993408203125,-0.18658447265625,0.686767578125,0.066650390625,-8190,-1349,-41,2,-4,5
81606471,0.69964599609375,-0.185791015625,0.68658447265625,0.06695556640625,-8205,-1325,-49,3,-4,5
81616455,0.699951171875,-0.18511962890625,0.6864013671875,0.0672607421875,-8230,-1307,-55,2,-4,4
81626434,0.7003173828125,-0.18450927734375,0.68621826171875,0.06756591796875,-8246,-1301,-63,2,-4,3
81636425,0.70068359375,-0.183837890625,0.68597412109375,0.06781005859375,-8250,-1287,-64,2,-5,4
81646410,0.7010498046875,-0.18328857421875,0.6856689453125,0.068115234375,-8251,-1276,-50,2,-5,3
81656392,0.7015380859375,-0.18280029296875,0.68536376953125,0.06842041015625,-8241,-1271,-32,1,-5,3
81666369,0.70196533203125,-0.182373046875,0.68499755859375,0.06866455078125,-8218,-1264,-35,1,-5,2
81676355,0.702392578125,-0.18206787109375,0.68463134765625,0.06884765625,-8195,-1259,-23,1,-6,1
81686337,0.70281982421875,-0.1817626953125,0.6842041015625,0.0689697265625,-8160,-1249,-5,1,-5,0
81696322,0.70330810546875,-0.181640625,0.68377685546875,0.06903076171875,-8115,-1235,11,1,-6,-1
81706303,0.7037353515625,-0.18157958984375,0.68328857421875,0.0689697265625,-8097,-1235,12,0,-6,-2
81716285,0.70416259765625,-0.18157958984375,0.682861328125,0.06890869140625,-8078,-1245,9,0,-5,-2
81726267,0.70458984375,-0.18157958984375,0.6824951171875,0.06890869140625,-8064,-1246,4,0,-5,-1
81736258,0.7049560546875,-0.18145751953125,0.68212890625,0.0689697265625,-8052,-1248,0,0,-5,0
81746241,0.705322265625,-0.18133544921875,0.6817626953125,0.06915283203125,-8048,-1242,14,0,-5,1
81756224,0.70562744140625,-0.1810302734375,0.6815185546875,0.0694580078125,-8041,-1236,11,0,-5,2
81766212,0.70587158203125,-0.1806640625,0.6812744140625,0.06988525390625,-8040,-1233,15,0,-4,3
81776192,0.70611572265625,-0.1802978515625,0.68109130859375,0.0703125,-8055,-1230,20,0,-4,4
81786178,0.70635986328125,-0.17987060546875,0.680908203125,0.07080078125,-8072,-1211,34,-1,-4,4
81796160,0.70660400390625,-0.179443359375,0.68072509765625,0.07135009765625,-8095,-1208,33,-1,-4,4
81806131,0.706787109375,-0.17913818359375,0.6805419921875,0.07171630859375,-8126,-1206,10,-1,-4,3
81816115,0.70697021484375,-0.17889404296875,0.68035888671875,0.07208251953125,-8154,-1196,-9,-1,-4,2
81826095,0.7071533203125,-0.1787109375,0.68017578125,0.0723876953125,-8170,-1189,-31,-1,-4,1
81836079,0.70733642578125,-0.1785888671875,0.67999267578125,0.072509765625,-8193,-1189,-36,-1,-3,0
81846062,0.70751953125,-0.1785888671875,0.6798095703125,0.07269287109375,-8216,-1186,-50,-1,-4,0
81856051,0.707763671875,-0.17852783203125,0.6795654296875,0.07275390625,-8222,-1200,-56,0,-4,0
81866031,0.70794677734375,-0.17852783203125,0.67938232421875,0.07275390625,-8209,-1201,-53,0,-3,-1
81876012,0.7081298828125,-0.17852783203125,0.67919921875,0.07275390625,-8163,-1206,-44,0,-3,-1
81885996,0.70831298828125,-0.17852783203125,0.678955078125,0.07269287109375,-8126,-1215,-24,0,-3,-2
81895982,0.70855712890625,-0.1785888671875,0.67877197265625,0.07257080078125,-8077,-1206,-10,0,-3,-2
81905958,0.708740234375,-0.1787109375,0.6785888671875,0.0723876953125,-8026,-1204,18,0,-2,-3
81915940,0.7088623046875,-0.17877197265625,0.67840576171875,0.07220458984375,-7977,-1196,32,1,-2,-3
81925926,0.708984375,-0.17889404296875,0.67828369140625,0.0718994140625,-7950,-1193,49,1,-1,-3
81935909,0.70904541015625,-0.17901611328125,0.67822265625,0.0716552734375,-7919,-1192,57,1,-1,-3
81945891,0.7091064453125,-0.17901611328125,0.67822265625,0.07147216796875,-7898,-1200,77,0,-1,-2
81955878,0.7091064453125,-0.178955078125,0.67822265625,0.07135009765625,-7877,-1205,83,1,0,-1
81965862,0.70904541015625,-0.1788330078125,0.67828369140625,0.07135009765625,-7875,-1202,105,1,0,0
81975842,0.708984375,-0.1785888671875,0.67840576171875,0.0714111328125,-7891,-1218,122,0,0,2
81985825,0.7088623046875,-0.1783447265625,0.6785888671875,0.07159423828125,-7924,-1234,117,0,1,3
81995808,0.708740234375,-0.177978515625,0.6788330078125,0.07183837890625,-7945,-1236,114,0,1,4
82005792,0.70855712890625,-0.177490234375,0.6790771484375,0.07208251953125,-7979,-1230,125,0,1,4
82015769,0.7083740234375,-0.177001953125,0.6793212890625,0.07244873046875,-8009,-1209,117,0,2,5
82025759,0.70819091796875,-0.17645263671875,0.6796875,0.0728759765625,-8040,-1203,115,0,2,5
82035743,0.70794677734375,-0.17596435546875,0.67999267578125,0.0732421875,-8069,-1193,98,0,2,5
82045718,0.707763671875,-0.1754150390625,0.6802978515625,0.07366943359375,-8098,-1213,89,0,1,5
82055702,0.70751953125,-0.17486572265625,0.6806640625,0.07403564453125,-8133,-1222,76,1,1,6
82065684,0.70733642578125,-0.17425537109375,0.68096923828125,0.074462890625,-8180,-1236,75,0,1,6
82075668,0.7071533203125,-0.17364501953125,0.6812744140625,0.07489013671875,-8210,-1251,65,1,1,6
82085650,0.70703125,-0.17303466796875,0.6815185546875,0.0751953125,-8229,-1261,50,1,1,6
82095636,0.70684814453125,-0.17242431640625,0.6817626953125,0.0755615234375,-8246,-1254,37,1,0,5
82105618,0.706787109375,-0.171875,0.6820068359375,0.07574462890625,-8262,-1249,26,2,0,4
82115602,0.70672607421875,-0.1715087890625,0.68212890625,0.07574462890625,-8271,-1253,12,2,0,2
82125588,0.706787109375,-0.1712646484375,0.68218994140625,0.0755615234375,-8280,-1250,18,2,0,-1
82135565,0.70684814453125,-0.171142578125,0.68218994140625,0.07513427734375,-8278,-1241,30,3,0,-3
82145549,0.70697021484375,-0.17120361328125,0.68212890625,0.07452392578125,-8249,-1231,61,3,-1,-5
82155525,0.70709228515625,-0.1712646484375,0.6820068359375,0.07379150390625,-8220,-1218,81,4,-1,-6
82165513,0.70721435546875,-0.17138671875,0.68194580078125,0.072998046875,-8176,-1205,88,4,0,-6
82175492,0.7073974609375,-0.17144775390625,0.681884765625,0.07220458984375,-8146,-1202,115,4,0,-5
82185481,0.70751953125,-0.17138671875,0.6817626953125,0.071533203125,-8114,-1217,148,4,-1,-3
82195463,0.7076416015625,-0.171142578125,0.6817626953125,0.071044921875,-8087,-1225,153,4,0,-1
82205449,0.707763671875,-0.170654296875,0.68182373046875,0.0706787109375,-8078,-1220,168,4,0,1
82215431,0.70782470703125,-0.16998291015625,0.68194580078125,0.070556640625,-8076,-1224,179,4,0,4
82225416,0.70782470703125,-0.16912841796875,0.68212890625,0.07061767578125,-8074,-1226,177,4,0,5
82235397,0.7078857421875,-0.1680908203125,0.68231201171875,0.07080078125,-8074,-1208,194,4,0,7
82245374,0.70794677734375,-0.16705322265625,0.6824951171875,0.071044921875,-8080,-1212,204,5,0,7
82255356,0.7080078125,-0.166015625,0.68267822265625,0.0712890625,-8087,-1194,231,5,0,7
82265340,0.7080078125,-0.1650390625,0.682861328125,0.07147216796875,-8100,-1173,232,4,0,6
82275322,0.70806884765625,-0.1641845703125,0.6829833984375,0.07147216796875,-8121,-1156,225,4,0,4
82285306,0.7081298828125,-0.1634521484375,0.68310546875,0.0714111328125,-8146,-1144,212,4,0,3
82295293,0.70819091796875,-0.162841796875,0.6832275390625,0.07122802734375,-8181,-1146,201,4,0,1
82305275,0.708251953125,-0.162353515625,0.68328857421875,0.0709228515625,-8198,-1129,213,4,0,0
82315258,0.7083740234375,-0.16192626953125,0.683349609375,0.070556640625,-8215,-1109,210,4,0,0
82325237,0.70843505859375,-0.16156005859375,0.683349609375,0.0701904296875,-8217,-1087,210,4,0,-1
82335228,0.7086181640625,-0.16119384765625,0.683349609375,0.06982421875,-8213,-1079,222,4,-1,-1
82345214,0.70880126953125,-0.1607666015625,0.68328857421875,0.06951904296875,-8208,-1063,234,4,-1,0
82355191,0.708984375,-0.16033935546875,0.6832275390625,0.0693359375,-8216,-1036,231,3,-1,1
82365182,0.70916748046875,-0.1597900390625,0.68310546875,0.06927490234375,-8236,-1010,221,3,-2,2
82375164,0.70941162109375,-0.15924072265625,0.68304443359375,0.0693359375,-8253,-999,208,2,-3,2
82385142,0.7095947265625,-0.15863037109375,0.68292236328125,0.06951904296875,-8278,-974,201,2,-3,3
82395116,0.7098388671875,-0.15802001953125,0.68280029296875,0.06976318359375,-8304,-956,182,2,-4,4
82405097,0.71014404296875,-0.1573486328125,0.6826171875,0.070068359375,-8336,-935,181,2,-4,4
82415084,0.71044921875,-0.15679931640625,0.682373046875,0.07037353515625,-8356,-927,184,1,-4,3
82425067,0.7108154296875,-0.1563720703125,0.68206787109375,0.07061767578125,-8362,-917,182,1,-5,2
82435051,0.711181640625,-0.156005859375,0.6817626953125,0.07080078125,-8363,-913,187,1,-5,1
82445034,0.7115478515625,-0.15570068359375,0.681396484375,0.07086181640625,-8367,-899,187,1,-5,0
82455015,0.71197509765625,-0.1556396484375,0.6810302734375,0.07086181640625,-8343,-885,195,0,-5,-2
82464995,0.71234130859375,-0.1556396484375,0.68060302734375,0.07080078125,-8312,-869,205,0,-5,-3
82474987,0.7127685546875,-0.15576171875,0.68017578125,0.0706787109375,-8288,-875,210,0,-5,-4
82484967,0.713134765625,-0.15594482421875,0.67974853515625,0.07049560546875,-8248,-882,212,0,-5,-4
82494946,0.7135009765625,-0.15618896484375,0.67938232421875,0.07037353515625,-8211,-883,217,-1,-5,-4
82504925,0.7137451171875,-0.15643310546875,0.67901611328125,0.0703125,-8166,-885,226,-1,-4,-4
82514908,0.71405029296875,-0.15667724609375,0.67864990234375,0.07025146484375,-8120,-901,241,-2,-3,-3
82524891,0.7142333984375,-0.15692138671875,0.67840576171875,0.0703125,-8075,-909,250,-2,-3,-2
82534878,0.71441650390625,-0.1571044921875,0.67816162109375,0.07037353515625,-8025,-928,263,-2,-2,-1
82544856,0.71453857421875,-0.15728759765625,0.677978515625,0.070556640625,-8004,-950,286,-2,-2,-1
82554843,0.71453857421875,-0.1573486328125,0.67791748046875,0.07080078125,-7988,-965,286,-3,-1,0
82564823,0.71453857421875,-0.15740966796875,0.6778564453125,0.0711669921875,-7972,-961,292,-3,-1,1
82574806,0.71453857421875,-0.157470703125,0.6778564453125,0.07147216796875,-7966,-967,294,-3,-1,1
82584794,0.71441650390625,-0.15753173828125,0.6778564453125,0.07183837890625,-7959,-965,281,-3,0,1
82594771,0.71429443359375,-0.15753173828125,0.677978515625,0.072265625,-7958,-973,276,-3,0,2
82604765,0.71417236328125,-0.1575927734375,0.6781005859375,0.0726318359375,-7976,-982,274,-3,1,2
82614747,0.7139892578125,-0.15765380859375,0.67822265625,0.072998046875,-7981,-985,258,-3,1,2
82624721,0.7137451171875,-0.15765380859375,0.67840576171875,0.07342529296875,-7999,-987,251,-3,1,2
82634706,0.71356201171875,-0.15765380859375,0.67852783203125,0.0738525390625,-8023,-991,245,-3,1,3
82644689,0.71337890625,-0.1575927734375,0.6787109375,0.0743408203125,-8055,-1003,239,-3,1,3
82654671,0.7132568359375,-0.157470703125,0.6788330078125,0.0748291015625,-8083,-1000,237,-3,1,3
82664656,0.71307373046875,-0.15740966796875,0.678955078125,0.0753173828125,-8118,-1023,228,-3,0,3
82674639,0.71295166015625,-0.1573486328125,0.6790771484375,0.0758056640625,-8141,-1015,221,-3,0,3
82684623,0.71282958984375,-0.1573486328125,0.67913818359375,0.07623291015625,-8165,-991,197,-3,-1,2
82694601,0.7127685546875,-0.1573486328125,0.67913818359375,0.0765380859375,-8163,-977,190,-3,-1,1
82704586,0.7127685546875,-0.15753173828125,0.67913818359375,0.0767822265625,-8177,-960,181,-3,-1,-1
82714564,0.71270751953125,-0.15777587890625,0.6790771484375,0.076904296875,-8173,-950,169,-3,-1,-2
82724547,0.7127685546875,-0.1580810546875,0.678955078125,0.07696533203125,-8171,-953,177,-2,-2,-2
82734529,0.71282958984375,-0.15838623046875,0.67877197265625,0.07696533203125,-8177,-955,184,-2,-2,-2
82744512,0.712890625,-0.15863037109375,0.67864990234375,0.07708740234375,-8184,-953,188,-3,-2,-2
82754503,0.71295166015625,-0.1588134765625,0.67852783203125,0.07733154296875,-8191,-952,182,-3,-2,0
82764481,0.7130126953125,-0.158935546875,0.67840576171875,0.07769775390625,-8196,-958,190,-3,-2,2
82774465,0.71307373046875,-0.15887451171875,0.6783447265625,0.07818603515625,-8212,-962,191,-3,-2,3
82784449,0.71307373046875,-0.15869140625,0.67828369140625,0.0787353515625,-8208,-965,184,-3,-2,4
82794436,0.71307373046875,-0.15850830078125,0.67822265625,0.0794677734375,-8193,-950,193,-3,-2,4
82804417,0.71307373046875,-0.1583251953125,0.67822265625,0.080078125,-8169,-943,205,-3,-2,4
82814401,0.71307373046875,-0.1583251953125,0.67816162109375,0.0806884765625,-8141,-939,226,-3,-2,3
82824377,0.71307373046875,-0.15838623046875,0.6781005859375,0.08111572265625,-8126,-935,236,-3,-1,1
82834362,0.71307373046875,-0.15863037109375,0.67803955078125,0.0814208984375,-8114,-925,243,-4,-1,-1
82844350,0.7130126953125,-0.158935546875,0.677978515625,0.08154296875,-8107,-912,243,-3,0,-2
82854326,0.71295166015625,-0.159423828125,0.67791748046875,0.0816650390625,-8091,-895,246,-4,0,-3
82864310,0.71282958984375,-0.15997314453125,0.6778564453125,0.0816650390625,-8086,-879,261,-4,0,-4
82874293,0.7127685546875,-0.16058349609375,0.67779541015625,0.0816650390625,-8089,-857,261,-4,0,-5
82884272,0.71258544921875,-0.1612548828125,0.67779541015625,0.08172607421875,-8097,-844,262,-5,1,-4
82894256,0.71240234375,-0.16192626953125,0.6778564453125,0.08184814453125,-8103,-853,247,-5,1,-4
82904244,0.712158203125,-0.16259765625,0.677978515625,0.08203125,-8119,-871,248,-6,2,-3
82914226,0.71185302734375,-0.16314697265625,0.6781005859375,0.0823974609375,-8135,-902,240,-6,2,-1
82924211,0.71148681640625,-0.16363525390625,0.67828369140625,0.0828857421875,-8145,-922,233,-7,2,1
82934190,0.7110595703125,-0.16400146484375,0.67852783203125,0.08349609375,-8172,-942,238,-7,3,2
82944182,0.71063232421875,-0.164306640625,0.6788330078125,0.084228515625,-8208,-963,240,-7,3,3
82954164,0.710205078125,-0.16455078125,0.67919921875,0.08502197265625,-8230,-961,230,-7,3,4
82964140,0.70965576171875,-0.16473388671875,0.67950439453125,0.08587646484375,-8248,-967,232,-7,3,4
82974118,0.709228515625,-0.1649169921875,0.67987060546875,0.08673095703125,-8271,-956,224,-6,3,4
82984100,0.70867919921875,-0.16510009765625,0.68023681640625,0.08758544921875,-8290,-959,222,-7,4,4
82994083,0.70819091796875,-0.16534423828125,0.68060302734375,0.08831787109375,-8307,-968,206,-7,4,3
83004068,0.70770263671875,-0.165771484375,0.680908203125,0.08905029296875,-8328,-981,199,-7,4,2
83014051,0.70721435546875,-0.16632080078125,0.68121337890625,0.08953857421875,-8329,-984,189,-7,3,0
83024035,0.70684814453125,-0.16693115234375,0.68145751953125,0.0899658203125,-8321,-985,169,-7,3,-1
83034012,0.70648193359375,-0.1676025390625,0.68157958984375,0.09027099609375,-8323,-991,154,-7,2,-2
83043996,0.7061767578125,-0.16839599609375,0.68170166015625,0.0904541015625,-8331,-1012,149,-6,2,-3
83053985,0.7059326171875,-0.16925048828125,0.68170166015625,0.090576171875,-8333,-1043,153,-6,2,-4
83063961,0.70574951171875,-0.16998291015625,0.6817626953125,0.09063720703125,-8332,-1064,148,-5,1,-4
83073948,0.70556640625,-0.17059326171875,0.68170166015625,0.09075927734375,-8324,-1082,140,-5,0,-2
83083932,0.7054443359375,-0.17108154296875,0.68170166015625,0.09100341796875,-8356,-1094,146,-4,0,-1
83093919,0.70538330078125,-0.17132568359375,0.681640625,0.09130859375,-8365,-1116,150,-4,-1,1
83103895,0.70538330078125,-0.17144775390625,0.68157958984375,0.091796875,-8357,-1121,138,-4,-1,3
83113879,0.70538330078125,-0.17138671875,0.6815185546875,0.09228515625,-8365,-1131,140,-3,-2,4
83123862,0.70550537109375,-0.17120361328125,0.681396484375,0.09283447265625,-8358,-1133,132,-2,-3,4
83133842,0.70562744140625,-0.17095947265625,0.68121337890625,0.0933837890625,-8351,-1146,126,-1,-3,4
83143824,0.70587158203125,-0.17059326171875,0.68096923828125,0.0938720703125,-8365,-1140,136,-1,-4,5
83153811,0.7061767578125,-0.170166015625,0.68072509765625,0.0943603515625,-8382,-1134,142,0,-5,5
83163791,0.70648193359375,-0.16973876953125,0.680419921875,0.09478759765625,-8397,-1123,163,1,-5,5
83173770,0.7069091796875,-0.16912841796875,0.68011474609375,0.09515380859375,-8413,-1097,168,1,-6,4
83183764,0.70733642578125,-0.1685791015625,0.67974853515625,0.095458984375,-8426,-1080,181,2,-6,4
83193746,0.70782470703125,-0.16796875,0.67938232421875,0.09564208984375,-8424,-1061,175,3,-6,3
83203723,0.70831298828125,-0.16741943359375,0.678955078125,0.095703125,-8417,-1046,182,3,-6,3
83213707,0.7088623046875,-0.1668701171875,0.67852783203125,0.095703125,-8420,-1054,189,3,-6,2
83223689,0.70947265625,-0.16632080078125,0.6781005859375,0.09552001953125,-8419,-1049,198,4,-7,1
83233672,0.7100830078125,-0.165771484375,0.6776123046875,0.09527587890625,-8423,-1036,205,5,-7,0
83243658,0.710693359375,-0.165283203125,0.6771240234375,0.094970703125,-8418,-1020,205,5,-7,-1
83253636,0.7113037109375,-0.164794921875,0.6766357421875,0.094482421875,-8386,-999,208,6,-7,-2
83263619,0.71197509765625,-0.16436767578125,0.6761474609375,0.0938720703125,-8369,-982,214,6,-7,-3
83273602,0.71258544921875,-0.1639404296875,0.6756591796875,0.09320068359375,-8347,-958,215,6,-6,-4
83283582,0.7132568359375,-0.16351318359375,0.67523193359375,0.0924072265625,-8309,-931,235,7,-6,-4
83293568,0.7138671875,-0.16314697265625,0.67474365234375,0.091552734375,-8286,-916,249,7,-6,-4
83303550,0.7144775390625,-0.1627197265625,0.67437744140625,0.0906982421875,-8281,-887,247,7,-6,-4
83313533,0.71502685546875,-0.1622314453125,0.6739501953125,0.08990478515625,-8264,-869,251,7,-6,-4
83323515,0.71563720703125,-0.16162109375,0.673583984375,0.08917236328125,-8231,-856,248,8,-5,-2
83333498,0.71612548828125,-0.160888671875,0.67333984375,0.088623046875,-8179,-850,238,8,-5,-1
83343485,0.716552734375,-0.1600341796875,0.673095703125,0.08819580078125,-8134,-846,220,7,-5,1
83353465,0.717041015625,-0.15911865234375,0.6728515625,0.087890625,-8080,-835,216,7,-5,3
83363449,0.71746826171875,-0.1580810546875,0.67266845703125,0.087646484375,-8033,-833,220,7,-5,3
83373438,0.7178955078125,-0.156982421875,0.6724853515625,0.0875244140625,-8004,-822,224,7,-5,4
83383419,0.71826171875,-0.15594482421875,0.67236328125,0.08734130859375,-7986,-795,224,7,-4,4
83393402,0.7186279296875,-0.15496826171875,0.6722412109375,0.087158203125,-7972,-772,227,7,-4,3
83403378,0.718994140625,-0.15411376953125,0.67205810546875,0.0869140625,-7975,-746,237,6,-4,1
83413362,0.7193603515625,-0.15338134765625,0.671875,0.0865478515625,-7975,-715,254,6,-4,0
83423350,0.7197265625,-0.1527099609375,0.67169189453125,0.08612060546875,-7979,-698,258,6,-4,-1
83433326,0.72003173828125,-0.15216064453125,0.6715087890625,0.08563232421875,-7980,-680,263,6,-4,-2
83443308,0.72039794921875,-0.15167236328125,0.67132568359375,0.08514404296875,-7967,-663,278,5,-4,-2
83453293,0.720703125,-0.15118408203125,0.67120361328125,0.08477783203125,-7956,-649,268,5,-4,-1
83463272,0.72100830078125,-0.15069580078125,0.6710205078125,0.08441162109375,-7929,-638,265,5,-4,-1
83473267,0.7213134765625,-0.15020751953125,0.67083740234375,0.0841064453125,-7902,-636,269,4,-4,0
83483242,0.7215576171875,-0.149658203125,0.67071533203125,0.083984375,-7873,-636,280,4,-3,1
83493234,0.7218017578125,-0.1490478515625,0.67059326171875,0.08404541015625,-7875,-637,293,3,-4,2
83503212,0.7220458984375,-0.14837646484375,0.67041015625,0.08416748046875,-7880,-646,319,3,-4,3
83513192,0.7222900390625,-0.14764404296875,0.6702880859375,0.08441162109375,-7899,-652,330,2,-4,4
83523186,0.72247314453125,-0.1468505859375,0.67022705078125,0.08477783203125,-7932,-644,345,2,-3,6
83533174,0.72265625,-0.14605712890625,0.670166015625,0.0853271484375,-7951,-629,366,2,-3,7
83543143,0.7227783203125,-0.14520263671875,0.67010498046875,0.08599853515625,-7971,-587,381,1,-3,7
83553121,0.722900390625,-0.1444091796875,0.6700439453125,0.0867919921875,-7986,-550,401,0,-3,7
83563105,0.72308349609375,-0.1436767578125,0.669921875,0.08758544921875,-7995,-517,424,-1,-3,7
83573083,0.72314453125,-0.14306640625,0.66986083984375,0.0885009765625,-7979,-493,438,-2,-3,7
83583066,0.72314453125,-0.142578125,0.6697998046875,0.08953857421875,-7956,-462,478,-4,-2,7
83593052,0.72308349609375,-0.142333984375,0.66973876953125,0.09063720703125,-7937,-439,506,-5,-1,6
83603035,0.7230224609375,-0.14227294921875,0.66973876953125,0.0916748046875,-7927,-422,547,-7,-1,4
83613021,0.72283935546875,-0.14251708984375,0.669677734375,0.0926513671875,-7941,-410,592,-8,0,2
83623004,0.72265625,-0.14312744140625,0.669677734375,0.093505859375,-7967,-421,637,-9,1,-1
83632987,0.722412109375,-0.1441650390625,0.669677734375,0.093994140625,-8009,-451,674,-10,2,-4
83642964,0.72216796875,-0.1455078125,0.66961669921875,0.09429931640625,-8077,-492,700,-10,3,-7
83652947,0.72186279296875,-0.1470947265625,0.6695556640625,0.0943603515625,-8167,-539,720,-11,3,-10
83662930,0.72161865234375,-0.1488037109375,0.66943359375,0.09429931640625,-8242,-598,718,-10,3,-11
83672915,0.721435546875,-0.1505126953125,0.6693115234375,0.09405517578125,-8322,-648,713,-10,2,-11
83682897,0.72125244140625,-0.1522216796875,0.66912841796875,0.0938720703125,-8377,-695,701,-10,2,-11
83692879,0.72113037109375,-0.15374755859375,0.6689453125,0.09368896484375,-8408,-735,686,-9,1,-10
83702863,0.7210693359375,-0.15509033203125,0.668701171875,0.09356689453125,-8424,-789,678,-8,0,-8
83712846,0.72113037109375,-0.15618896484375,0.66839599609375,0.093505859375,-8420,-849,664,-7,-2,-6
83722826,0.72125244140625,-0.156982421875,0.6680908203125,0.09356689453125,-8414,-897,650,-5,-2,-4
83732811,0.721435546875,-0.157470703125,0.667724609375,0.09381103515625,-8401,-937,645,-4,-3,-1
83742798,0.72161865234375,-0.15765380859375,0.66741943359375,0.09405517578125,-8394,-979,641,-3,-4,1
83752784,0.72186279296875,-0.157470703125,0.6671142578125,0.094482421875,-8400,-985,633,-1,-4,3
83762770,0.72216796875,-0.15704345703125,0.66680908203125,0.09503173828125,-8370,-969,625,0,-5,5
83772750,0.7225341796875,-0.15643310546875,0.66650390625,0.0955810546875,-8328,-953,631,1,-5,6
83782733,0.722900390625,-0.1556396484375,0.66619873046875,0.09613037109375,-8278,-926,649,1,-5,7
83792709,0.7232666015625,-0.15478515625,0.66595458984375,0.0968017578125,-8230,-870,654,2,-5,7
83802693,0.7236328125,-0.1539306640625,0.6656494140625,0.097412109375,-8182,-822,647,1,-5,7
83812675,0.7239990234375,-0.15313720703125,0.6654052734375,0.09796142578125,-8126,-771,619,1,-5,6
83822659,0.7242431640625,-0.15240478515625,0.6651611328125,0.09857177734375,-8090,-735,598,1,-4,6
83832640,0.7244873046875,-0.15179443359375,0.66497802734375,0.09918212890625,-8059,-706,575,0,-4,6
83842624,0.724609375,-0.1512451171875,0.66485595703125,0.09979248046875,-8049,-676,562,-1,-3,5
83852606,0.72467041015625,-0.1507568359375,0.66473388671875,0.10040283203125,-8042,-659,539,-1,-3,5
83862590,0.7247314453125,-0.15045166015625,0.6646728515625,0.10107421875,-8049,-634,524,-2,-2,4
83872573,0.7247314453125,-0.1502685546875,0.6646728515625,0.10162353515625,-8060,-621,529,-3,-2,3
83882556,0.72467041015625,-0.15020751953125,0.66461181640625,0.1021728515625,-8085,-599,511,-4,-1,2
83892542,0.724609375,-0.150390625,0.66461181640625,0.1026611328125,-8119,-604,494,-4,-1,1
83902521,0.72454833984375,-0.15069580078125,0.66455078125,0.10302734375,-8143,-614,483,-5,-1,0
83912504,0.7244873046875,-0.151123046875,0.6644287109375,0.10333251953125,-8178,-639,451,-5,-2,-1
83922486,0.72442626953125,-0.151611328125,0.66436767578125,0.10357666015625,-8193,-672,427,-5,-2,-2
83932469,0.72442626953125,-0.15216064453125,0.66424560546875,0.10382080078125,-8191,-697,410,-5,-2,-2
83942451,0.72442626953125,-0.1527099609375,0.6640625,0.10400390625,-8197,-733,405,-5,-2,-2
83952438,0.72442626953125,-0.1531982421875,0.6639404296875,0.10418701171875,-8204,-767,408,-4,-2,-2
83962422,0.72442626953125,-0.15362548828125,0.66375732421875,0.10443115234375,-8220,-800,406,-4,-2,-1
83972410,0.7244873046875,-0.1539306640625,0.66363525390625,0.10467529296875,-8226,-832,417,-3,-2,0
83982389,0.7244873046875,-0.15411376953125,0.66351318359375,0.10498046875,-8223,-848,443,-3,-2,1
83992368,0.72454833984375,-0.1541748046875,0.66339111328125,0.105224609375,-8217,-866,471,-2,-2,2
84002350,0.724609375,-0.1541748046875,0.66326904296875,0.10552978515625,-8191,-875,488,-2,-2,2
84012334,0.72467041015625,-0.154052734375,0.6632080078125,0.10577392578125,-8178,-878,500,-1,-2,2
84022321,0.7247314453125,-0.1539306640625,0.66314697265625,0.10589599609375,-8148,-872,508,0,-2,2
84032301,0.724853515625,-0.15374755859375,0.66302490234375,0.10601806640625,-8122,-862,515,0,-2,1
84042285,0.7249755859375,-0.15362548828125,0.6629638671875,0.1060791015625,-8095,-851,526,0,-2,1
84052268,0.72509765625,-0.15350341796875,0.662841796875,0.1060791015625,-8060,-834,561,0,-2,1
84062256,0.7252197265625,-0.1533203125,0.6627197265625,0.10614013671875,-8033,-829,592,1,-2,1
84074995,0.72528076171875,-0.153076171875,0.66265869140625,0.10614013671875,-8015,-814,623,1,-1,1
84082222,0.725341796875,-0.15289306640625,0.66265869140625,0.10626220703125,-8015,-801,669,0,-1,1
84092211,0.72540283203125,-0.15264892578125,0.66265869140625,0.1063232421875,-8040,-791,680,1,0,1
84102194,0.72540283203125,-0.15252685546875,0.66265869140625,0.10638427734375,-8060,-786,692,0,0,1
84112177,0.7254638671875,-0.15234375,0.66265869140625,0.1064453125,-8086,-766,706,0,0,1
84122160,0.7254638671875,-0.15228271484375,0.66265869140625,0.10638427734375,-8125,-756,713,1,0,0
84132128,0.7254638671875,-0.1522216796875,0.66265869140625,0.106201171875,-8168,-745,710,1,0,-1
84142109,0.72552490234375,-0.15234375,0.66265869140625,0.10589599609375,-8200,-726,710,1,0,-3
84152094,0.72564697265625,-0.1524658203125,0.66259765625,0.10552978515625,-8215,-711,705,1,-1,-4
84162074,0.72576904296875,-0.15264892578125,0.6624755859375,0.10498046875,-8215,-699,702,1,-1,-5
84172054,0.7259521484375,-0.1529541015625,0.66229248046875,0.1043701171875,-8214,-700,699,1,-1,-6
84182036,0.72613525390625,-0.1531982421875,0.66217041015625,0.103759765625,-8194,-695,687,2,-1,-6
84192022,0.726318359375,-0.15338134765625,0.6619873046875,0.10321044921875,-8174,-693,675,2,-2,-5
84202007,0.72650146484375,-0.15350341796875,0.66180419921875,0.102783203125,-8167,-689,678,2,-2,-4
84211993,0.7266845703125,-0.15338134765625,0.66168212890625,0.10247802734375,-8153,-672,667,2,-2,-2
84221983,0.726806640625,-0.1531982421875,0.66162109375,0.102294921875,-8153,-662,651,2,-1,0
84231955,0.72686767578125,-0.15283203125,0.66162109375,0.10223388671875,-8156,-653,641,2,-1,1
84241937,0.7269287109375,-0.15240478515625,0.66168212890625,0.102294921875,-8150,-646,618,2,-1,2
84251922,0.7269287109375,-0.15191650390625,0.6617431640625,0.10247802734375,-8136,-641,592,2,-1,3
84261904,0.7269287109375,-0.1513671875,0.661865234375,0.1026611328125,-8137,-618,580,2,-1,3
84271887,0.72686767578125,-0.15087890625,0.6619873046875,0.10284423828125,-8120,-599,555,1,-1,2
84281869,0.72686767578125,-0.1505126953125,0.66204833984375,0.10296630859375,-8086,-587,556,1,-1,2
84291858,0.726806640625,-0.1502685546875,0.66217041015625,0.10296630859375,-8052,-589,560,1,0,1
84301840,0.726806640625,-0.150146484375,0.6622314453125,0.10296630859375,-8034,-595,562,0,0,0
84311822,0.726806640625,-0.15008544921875,0.6622314453125,0.1029052734375,-8008,-573,568,0,0,-1
84321800,0.7266845703125,-0.150146484375,0.662353515625,0.102783203125,-7994,-555,562,0,1,-2
84331787,0.72662353515625,-0.15032958984375,0.6624755859375,0.1025390625,-7985,-557,559,-1,1,-3
84341772,0.7264404296875,-0.15057373046875,0.66259765625,0.10235595703125,-7974,-544,567,-1,1,-4
84351752,0.726318359375,-0.15093994140625,0.6627197265625,0.10211181640625,-7984,-543,589,-1,2,-4
84361737,0.72613525390625,-0.1512451171875,0.662841796875,0.1019287109375,-8002,-534,593,-2,2,-3
84371712,0.7259521484375,-0.151611328125,0.66302490234375,0.10174560546875,-8038,-545,597,-2,2,-3
84381696,0.72564697265625,-0.15185546875,0.66326904296875,0.10174560546875,-8085,-556,594,-2,3,-2
84391685,0.72540283203125,-0.152099609375,0.66351318359375,0.101806640625,-8127,-570,600,-2,2,0
84401663,0.72515869140625,-0.15216064453125,0.6636962890625,0.10205078125,-8179,-582,614,-2,2,1
84411646,0.724853515625,-0.15228271484375,0.6639404296875,0.102294921875,-8222,-603,619,-3,2,1
84421628,0.724609375,-0.15240478515625,0.6641845703125,0.10247802734375,-8251,-598,622,-2,2,0
84431612,0.72442626953125,-0.15264892578125,0.664306640625,0.10260009765625,-8266,-603,632,-3,2,-2
84441592,0.7242431640625,-0.1529541015625,0.6644287109375,0.1025390625,-8297,-603,647,-2,1,-3
84451576,0.72418212890625,-0.15325927734375,0.6644287109375,0.1024169921875,-8321,-608,659,-2,1,-3
84461558,0.72412109375,-0.15362548828125,0.6644287109375,0.10223388671875,-8340,-623,663,-1,1,-4
84471542,0.72412109375,-0.1539306640625,0.6644287109375,0.1021728515625,-8342,-639,667,-2,0,-3
84481526,0.72412109375,-0.15411376953125,0.66436767578125,0.10211181640625,-8343,-654,671,-1,-1,-2
84491514,0.72418212890625,-0.15411376953125,0.664306640625,0.1021728515625,-8325,-667,667,-1,-1,0
84501492,0.72418212890625,-0.15399169921875,0.66424560546875,0.1024169921875,-8306,-666,659,-1,-1,1
84511479,0.7242431640625,-0.1536865234375,0.66424560546875,0.1026611328125,-8284,-657,660,0,-1,2
84521459,0.72430419921875,-0.15338134765625,0.66424560546875,0.1029052734375,-8249,-658,658,0,-1,3
84531449,0.724365234375,-0.153076171875,0.6641845703125,0.1031494140625,-8229,-640,655,0,-1,2
84541432,0.724365234375,-0.15277099609375,0.6641845703125,0.10333251953125,-8201,-636,630,0,-1,2
