subject,Ian Lake
arm,left
label,2
hz,100.17286008822866
time,4.442321

timestamp_us,q0,q1,q2,q3,ax,ay,az,gx,gy,gz
130112347,0.1126708984375,0.5267333984375,0.46234130859375,-0.704345703125,-7107,-4319,117,-1,0,-3
130122331,0.11260986328125,0.52667236328125,0.4625244140625,-0.70428466796875,-7104,-4308,131,-2,0,-3
130132313,0.11260986328125,0.526611328125,0.46270751953125,-0.70416259765625,-7074,-4292,140,-2,0,-1
130142304,0.11279296875,0.526611328125,0.46282958984375,-0.7041015625,-7049,-4276,151,-2,-1,0
130152279,0.11309814453125,0.5267333984375,0.46282958984375,-0.7039794921875,-7018,-4260,165,-2,-1,2
130162261,0.113525390625,0.52679443359375,0.4627685546875,-0.703857421875,-6985,-4246,185,-3,-1,3
130172250,0.114013671875,0.5269775390625,0.462646484375,-0.7037353515625,-6971,-4224,193,-3,0,3
130182234,0.114501953125,0.52716064453125,0.46258544921875,-0.70355224609375,-6964,-4202,206,-3,0,3
130192216,0.114990234375,0.52734375,0.4625244140625,-0.703369140625,-6964,-4193,201,-3,0,3
130202200,0.115478515625,0.52752685546875,0.4625244140625,-0.70318603515625,-6953,-4192,192,-3,0,2
130212188,0.1158447265625,0.52752685546875,0.46258544921875,-0.7030029296875,-6945,-4186,198,-3,-1,1
130222169,0.1162109375,0.527587890625,0.46270751953125,-0.702880859375,-6956,-4191,189,-3,-1,1
130232154,0.1165771484375,0.52752685546875,0.462890625,-0.7027587890625,-6963,-4206,184,-4,-1,0
130242124,0.116943359375,0.5274658203125,0.46307373046875,-0.70257568359375,-6964,-4225,170,-4,-1,1
130252106,0.11724853515625,0.52740478515625,0.46331787109375,-0.70245361328125,-6963,-4231,172,-4,-1,0
130262088,0.1175537109375,0.52734375,0.4635009765625,-0.7022705078125,-6961,-4243,176,-4,-1,0
130272070,0.1177978515625,0.5272216796875,0.46380615234375,-0.7021484375,-6951,-4246,172,-4,-1,-1
130282052,0.11798095703125,0.527099609375,0.464111328125,-0.7020263671875,-6951,-4255,174,-4,-1,-1
130292045,0.1180419921875,0.5269775390625,0.46441650390625,-0.701904296875,-6954,-4266,162,-3,0,-2
130302019,0.1181640625,0.52691650390625,0.4647216796875,-0.70172119140625,-6957,-4266,141,-3,0,-2
130312000,0.1182861328125,0.52685546875,0.4649658203125,-0.70159912109375,-6972,-4277,138,-3,0,-1
130321990,0.11834716796875,0.52685546875,0.4652099609375,-0.701416015625,-6985,-4284,113,-3,0,-1
130331978,0.1185302734375,0.52691650390625,0.46533203125,-0.70123291015625,-7005,-4298,92,-3,0,0
130341953,0.1187744140625,0.5269775390625,0.4654541015625,-0.70111083984375,-6999,-4309,65,-3,-1,1
130351933,0.11895751953125,0.52703857421875,0.46551513671875,-0.70098876953125,-6999,-4330,50,-2,-1,1
130361916,0.119140625,0.52703857421875,0.465576171875,-0.70086669921875,-6989,-4335,38,-2,-1,1
130371900,0.1192626953125,0.527099609375,0.46563720703125,-0.70074462890625,-6994,-4337,26,-1,-1,0
130381880,0.119384765625,0.52716064453125,0.46563720703125,-0.70074462890625,-6979,-4341,34,-1,-1,0
130391872,0.11944580078125,0.52716064453125,0.46563720703125,-0.70068359375,-6966,-4342,35,-1,0,0
130401853,0.119384765625,0.5272216796875,0.46563720703125,-0.70068359375,-6964,-4347,36,0,0,0
130411834,0.119384765625,0.5272216796875,0.465576171875,-0.70068359375,-6970,-4334,38,0,0,0
130421817,0.119384765625,0.52734375,0.4654541015625,-0.70068359375,-6981,-4328,39,0,0,0
130431799,0.119384765625,0.5274658203125,0.46533203125,-0.70068359375,-6985,-4325,17,1,0,1
130441781,0.119384765625,0.52764892578125,0.46514892578125,-0.70068359375,-6984,-4304,11,1,0,1
130451762,0.11932373046875,0.52777099609375,0.4649658203125,-0.70068359375,-6985,-4291,4,1,0,0
130461757,0.11920166015625,0.52789306640625,0.46490478515625,-0.70068359375,-6969,-4278,-11,1,0,-1
130471734,0.1190185546875,0.52783203125,0.46484375,-0.7008056640625,-6968,-4270,-6,1,-1,-2
130481712,0.1187744140625,0.52783203125,0.46478271484375,-0.70086669921875,-6978,-4266,2,1,0,-2
130491694,0.11859130859375,0.52783203125,0.46478271484375,-0.700927734375,-6985,-4271,-5,1,0,-1
130501683,0.11846923828125,0.52789306640625,0.46466064453125,-0.70098876953125,-6997,-4278,-16,1,0,0
130511660,0.1185302734375,0.528076171875,0.46441650390625,-0.70098876953125,-7007,-4277,-11,1,0,1
130521643,0.1185302734375,0.5281982421875,0.4642333984375,-0.70098876953125,-7019,-4273,-26,1,0,1
130531630,0.11865234375,0.52838134765625,0.4639892578125,-0.70098876953125,-7025,-4268,-27,1,-1,1
130541606,0.11865234375,0.52850341796875,0.4638671875,-0.70098876953125,-7004,-4278,-29,1,-1,0
130551598,0.11859130859375,0.528564453125,0.46380615234375,-0.70098876953125,-6992,-4281,-16,1,0,-1
130561572,0.118408203125,0.52850341796875,0.4638671875,-0.7010498046875,-6984,-4278,3,0,0,-2
130571554,0.11810302734375,0.52838134765625,0.4639892578125,-0.7010498046875,-6976,-4282,34,0,0,-3
130581537,0.1177978515625,0.5283203125,0.46417236328125,-0.70111083984375,-6969,-4291,42,0,0,-3
130591521,0.11749267578125,0.5281982421875,0.46435546875,-0.70111083984375,-6975,-4308,34,0,0,-3
130601503,0.1171875,0.52813720703125,0.46453857421875,-0.7010498046875,-6965,-4342,48,0,0,-3
130611487,0.1168212890625,0.528076171875,0.46478271484375,-0.7010498046875,-6949,-4390,53,-1,0,-3
130621467,0.116455078125,0.52789306640625,0.465087890625,-0.70098876953125,-6938,-4432,51,-1,1,-4
130631449,0.11602783203125,0.5277099609375,0.4654541015625,-0.70098876953125,-6948,-4499,72,-1,1,-5
130641426,0.115478515625,0.5274658203125,0.46600341796875,-0.700927734375,-6947,-4573,80,-1,1,-6
130651418,0.11468505859375,0.527099609375,0.46661376953125,-0.70086669921875,-6967,-4655,104,-2,1,-8
130661399,0.11358642578125,0.52655029296875,0.467529296875,-0.70086669921875,-6993,-4771,120,-2,2,-12
130671384,0.112060546875,0.5257568359375,0.46881103515625,-0.70086669921875,-7020,-4900,123,-2,2,-17
130681359,0.10986328125,0.52459716796875,0.47052001953125,-0.700927734375,-7043,-5091,126,-2,3,-24
130691344,0.10687255859375,0.52301025390625,0.4727783203125,-0.70111083984375,-7071,-5331,130,-1,4,-32
130701326,0.10308837890625,0.52093505859375,0.4755859375,-0.7012939453125,-7146,-5641,128,-1,4,-40
130711308,0.09844970703125,0.51837158203125,0.47894287109375,-0.7015380859375,-7240,-6022,124,-1,5,-48
130721291,0.09320068359375,0.51544189453125,0.4827880859375,-0.7017822265625,-7337,-6468,69,-2,6,-53
130731276,0.08734130859375,0.51220703125,0.48699951171875,-0.7020263671875,-7394,-6935,16,-1,6,-58
130741256,0.08099365234375,0.5086669921875,0.491455078125,-0.70220947265625,-7390,-7397,-21,-1,6,-62
130751237,0.07427978515625,0.50482177734375,0.4962158203125,-0.702392578125,-7353,-7819,-43,-1,7,-66
130761229,0.06689453125,0.50054931640625,0.50128173828125,-0.70257568359375,-7236,-8161,-26,-1,7,-73
130771215,0.0587158203125,0.49566650390625,0.50689697265625,-0.7027587890625,-7058,-8438,1,-1,8,-83
130781200,0.04937744140625,0.4901123046875,0.51312255859375,-0.702880859375,-6836,-8665,32,-1,9,-95
130791185,0.03900146484375,0.48382568359375,0.5198974609375,-0.702880859375,-6610,-8874,80,-1,11,-106
130801168,0.02777099609375,0.47705078125,0.52703857421875,-0.7027587890625,-6420,-9080,110,-1,12,-114
130811152,0.01617431640625,0.469970703125,0.53424072265625,-0.702392578125,-6278,-9286,121,-1,13,-117
130821122,0.0045166015625,0.46295166015625,0.5413818359375,-0.70184326171875,-6193,-9438,123,-1,14,-117
130831104,-0.00689697265625,0.4559326171875,0.54827880859375,-0.7010498046875,-6152,-9550,124,-2,14,-116
130841086,-0.01812744140625,0.44891357421875,0.55499267578125,-0.7000732421875,-6136,-9620,102,-2,14,-117
130851069,-0.029296875,0.4417724609375,0.56170654296875,-0.69891357421875,-6154,-9670,58,-3,13,-119
130861053,-0.04058837890625,0.4342041015625,0.5684814453125,-0.69757080078125,-6192,-9708,22,-3,12,-124
130871033,-0.052001953125,0.42626953125,0.5753173828125,-0.69610595703125,-6260,-9708,-39,-4,10,-129
130881018,-0.0635986328125,0.4178466796875,0.58221435546875,-0.69451904296875,-6307,-9703,-95,-4,9,-134
130891001,-0.0753173828125,0.408935546875,0.5892333984375,-0.6927490234375,-6331,-9693,-155,-4,6,-139
130900990,-0.08697509765625,0.39947509765625,0.59625244140625,-0.69085693359375,-6342,-9660,-219,-4,4,-143
130910971,-0.0986328125,0.3896484375,0.603271484375,-0.6888427734375,-6336,-9626,-289,-5,2,-145
130920951,-0.11004638671875,0.37945556640625,0.6102294921875,-0.6866455078125,-6281,-9562,-389,-5,-1,-147
130930931,-0.12139892578125,0.368896484375,0.61724853515625,-0.6842041015625,-6127,-9480,-468,-6,-3,-150
130940912,-0.1326904296875,0.35784912109375,0.624267578125,-0.68157958984375,-5923,-9397,-525,-7,-5,-153
130950896,-0.14410400390625,0.346435546875,0.63134765625,-0.67864990234375,-5649,-9307,-578,-8,-5,-156
130960879,-0.15576171875,0.33453369140625,0.63848876953125,-0.67535400390625,-5308,-9214,-603,-9,-6,-160
130970862,-0.16766357421875,0.322265625,0.6456298828125,-0.67169189453125,-4907,-9109,-615,-10,-5,-163
130980844,-0.1798095703125,0.3096923828125,0.65277099609375,-0.6676025390625,-4496,-8995,-631,-11,-4,-166
130990828,-0.192138671875,0.2969970703125,0.6597900390625,-0.66302490234375,-4069,-8891,-657,-12,-2,-167
131000815,-0.204345703125,0.2845458984375,0.66650390625,-0.6580810546875,-3670,-8820,-665,-14,0,-164
131010794,-0.2161865234375,0.2725830078125,0.67291259765625,-0.65283203125,-3271,-8779,-682,-15,2,-158
131020778,-0.22772216796875,0.26116943359375,0.678955078125,-0.64727783203125,-2893,-8718,-700,-17,5,-154
131030766,-0.2391357421875,0.2501220703125,0.6846923828125,-0.64141845703125,-2550,-8685,-750,-18,7,-152
131040749,-0.25067138671875,0.2392578125,0.6903076171875,-0.6351318359375,-2201,-8641,-798,-19,10,-153
131050732,-0.2626953125,0.22802734375,0.69580078125,-0.62835693359375,-1895,-8590,-846,-20,12,-159
131060709,-0.275390625,0.21630859375,0.70123291015625,-0.62103271484375,-1573,-8521,-869,-20,15,-168
131070695,-0.28900146484375,0.2037353515625,0.70660400390625,-0.61297607421875,-1187,-8425,-886,-20,17,-178
131080675,-0.3035888671875,0.19036865234375,0.7117919921875,-0.60418701171875,-817,-8334,-902,-20,20,-189
131090661,-0.3187255859375,0.1763916015625,0.71661376953125,-0.59478759765625,-476,-8288,-913,-20,23,-195
131100644,-0.3338623046875,0.16253662109375,0.720947265625,-0.58514404296875,-149,-8279,-957,-19,25,-192
131110630,-0.34857177734375,0.1492919921875,0.724609375,-0.575439453125,186,-8233,-994,-19,27,-186
131120609,-0.36285400390625,0.1365966796875,0.727783203125,-0.56573486328125,507,-8130,-1010,-18,29,-180
131130593,-0.3768310546875,0.12420654296875,0.7303466796875,-0.5560302734375,760,-8017,-1066,-16,30,-177
131140575,-0.39068603515625,0.11187744140625,0.73248291015625,-0.54620361328125,1022,-7902,-1122,-15,31,-177
131150558,-0.40447998046875,0.09942626953125,0.73419189453125,-0.53619384765625,1240,-7785,-1160,-14,32,-179
131160541,-0.4183349609375,0.08660888671875,0.7354736328125,-0.52587890625,1468,-7597,-1213,-12,33,-183
131170523,-0.4324951171875,0.07318115234375,0.73638916015625,-0.51507568359375,1652,-7391,-1277,-11,33,-190
131180507,-0.4466552734375,0.0592041015625,0.7369384765625,-0.50390625,1799,-7234,-1332,-10,34,-195
131190489,-0.46063232421875,0.04498291015625,0.737060546875,-0.4925537109375,1948,-7086,-1381,-8,33,-194
131200470,-0.47406005859375,0.0308837890625,0.73675537109375,-0.481201171875,2088,-6901,-1430,-7,32,-191
131210455,-0.48687744140625,0.01708984375,0.736083984375,-0.469970703125,2225,-6696,-1445,-6,31,-187
131220434,-0.49908447265625,0.003662109375,0.73504638671875,-0.458984375,2384,-6467,-1433,-5,30,-180
131230428,-0.51043701171875,-0.00927734375,0.7337646484375,-0.44830322265625,2535,-6213,-1415,-4,28,-172
131240410,-0.52117919921875,-0.02178955078125,0.73211669921875,-0.43804931640625,2705,-5916,-1333,-3,26,-165
131250390,-0.53118896484375,-0.0338134765625,0.73028564453125,-0.42822265625,2882,-5590,-1231,-2,25,-156
131260372,-0.5406494140625,-0.04522705078125,0.7281494140625,-0.41888427734375,3031,-5231,-1094,0,24,-148
131270350,-0.54949951171875,-0.05615234375,0.72576904296875,-0.41009521484375,3141,-4858,-955,1,23,-140
131280333,-0.5577392578125,-0.06646728515625,0.72320556640625,-0.40185546875,3211,-4532,-805,2,22,-131
131290315,-0.565185546875,-0.075927734375,0.72064208984375,-0.39434814453125,3248,-4214,-682,3,20,-120
131300299,-0.57171630859375,-0.08453369140625,0.7181396484375,-0.3876953125,3250,-3915,-551,4,18,-107
131310287,-0.57745361328125,-0.09228515625,0.71575927734375,-0.38177490234375,3220,-3634,-443,5,15,-96
131320263,-0.5823974609375,-0.0994873046875,0.71356201171875,-0.37646484375,3192,-3369,-370,5,12,-88
131330250,-0.58685302734375,-0.10650634765625,0.7115478515625,-0.37139892578125,3201,-3099,-299,6,9,-84
131340235,-0.591064453125,-0.11376953125,0.7095947265625,-0.36627197265625,3265,-2834,-230,7,6,-86
131350219,-0.59527587890625,-0.12164306640625,0.7076416015625,-0.3607177734375,3377,-2519,-171,7,4,-90
131360201,-0.59954833984375,-0.13018798828125,0.70562744140625,-0.3546142578125,3505,-2190,-107,7,2,-96
131370189,-0.60382080078125,-0.13922119140625,0.7034912109375,-0.34808349609375,3692,-1836,-34,7,0,-99
131380172,-0.6080322265625,-0.1485595703125,0.7012939453125,-0.3411865234375,3874,-1426,58,7,-1,-100
131390151,-0.61212158203125,-0.1578369140625,0.69903564453125,-0.33428955078125,4052,-1017,138,7,-2,-97
131400123,-0.6158447265625,-0.16668701171875,0.6968994140625,-0.3275146484375,4258,-599,236,6,-4,-91
131410107,-0.61932373046875,-0.175048828125,0.69476318359375,-0.321044921875,4483,-158,354,5,-4,-84
131420090,-0.62255859375,-0.182861328125,0.6927490234375,-0.31475830078125,4735,287,474,3,-5,-77
131430074,-0.62567138671875,-0.190185546875,0.69073486328125,-0.30865478515625,5002,737,593,2,-4,-72
131440056,-0.62860107421875,-0.1968994140625,0.68878173828125,-0.30279541015625,5234,1157,687,0,-4,-65
131450039,-0.6312255859375,-0.2027587890625,0.68707275390625,-0.29742431640625,5435,1546,750,-2,-4,-55
131460017,-0.6334228515625,-0.2076416015625,0.68560791015625,-0.2926025390625,5600,1896,772,-3,-4,-44
131470000,-0.63519287109375,-0.21142578125,0.6845703125,-0.2884521484375,5700,2173,781,-5,-6,-32
131479988,-0.6363525390625,-0.21405029296875,0.68408203125,-0.28515625,5772,2387,775,-7,-8,-18
131489971,-0.6368408203125,-0.21551513671875,0.68414306640625,-0.28271484375,5849,2516,763,-8,-9,-5
131499947,-0.63690185546875,-0.21588134765625,0.6846923828125,-0.28106689453125,5927,2584,750,-9,-11,6
131509927,-0.636474609375,-0.21527099609375,0.6856689453125,-0.28009033203125,6017,2592,721,-11,-12,16
131519910,-0.6356201171875,-0.2137451171875,0.68707275390625,-0.27978515625,6084,2550,655,-12,-13,26
131529892,-0.63421630859375,-0.21136474609375,0.68896484375,-0.28009033203125,6153,2442,566,-13,-15,35
131539877,-0.63232421875,-0.2081298828125,0.6912841796875,-0.28094482421875,6198,2279,459,-14,-17,44
131549860,-0.6300048828125,-0.2041015625,0.69403076171875,-0.282470703125,6227,2055,345,-15,-18,52
131559841,-0.6270751953125,-0.19915771484375,0.69720458984375,-0.28472900390625,6226,1778,218,-16,-20,62
131569825,-0.62359619140625,-0.1932373046875,0.70074462890625,-0.2877197265625,6227,1442,99,-16,-21,72
131579810,-0.61956787109375,-0.18646240234375,0.70452880859375,-0.29150390625,6220,1096,-13,-16,-22,80
131589792,-0.6151123046875,-0.17901611328125,0.70855712890625,-0.29583740234375,6208,717,-117,-16,-23,87
131599778,-0.61029052734375,-0.17108154296875,0.71270751953125,-0.30059814453125,6191,331,-235,-15,-23,91
131609766,-0.60516357421875,-0.16278076171875,0.716796875,-0.30572509765625,6155,-65,-366,-15,-23,95
131619749,-0.5997314453125,-0.154296875,0.720947265625,-0.31109619140625,6139,-478,-492,-13,-23,96
131629734,-0.59417724609375,-0.14569091796875,0.724853515625,-0.31671142578125,6171,-867,-584,-12,-22,97
131639708,-0.58856201171875,-0.136962890625,0.728515625,-0.32269287109375,6201,-1260,-657,-10,-21,99
131649692,-0.58282470703125,-0.12774658203125,0.73187255859375,-0.3292236328125,6180,-1666,-703,-8,-18,105
131659673,-0.57672119140625,-0.11761474609375,0.7349853515625,-0.336669921875,6117,-2104,-751,-6,-16,116
131669657,-0.57012939453125,-0.10638427734375,0.73785400390625,-0.34527587890625,6036,-2553,-817,-3,-13,128
131679642,-0.56304931640625,-0.09405517578125,0.74041748046875,-0.35491943359375,5937,-2972,-876,0,-10,138
131689622,-0.55572509765625,-0.081298828125,0.742431640625,-0.36517333984375,5868,-3355,-905,4,-8,143
131699605,-0.54852294921875,-0.0687255859375,0.74383544921875,-0.375732421875,5781,-3695,-930,8,-4,141
131709587,-0.54144287109375,-0.0565185546875,0.7445068359375,-0.386474609375,5662,-4031,-935,13,-1,138
131719574,-0.53460693359375,-0.0445556640625,0.7445068359375,-0.3974609375,5476,-4395,-967,18,2,137
131729554,-0.5274658203125,-0.032470703125,0.743896484375,-0.40911865234375,5237,-4780,-1059,24,4,142
131739537,-0.51947021484375,-0.01959228515625,0.7427978515625,-0.42193603515625,4946,-5179,-1146,29,5,154
131749522,-0.5103759765625,-0.00555419921875,0.7412109375,-0.43597412109375,4677,-5546,-1224,35,5,170
131759504,-0.50030517578125,0.0093994140625,0.739013671875,-0.4510498046875,4506,-5790,-1260,39,4,183
131769488,-0.4898681640625,0.0242919921875,0.73614501953125,-0.46636962890625,4451,-5905,-1216,44,4,184
131779469,-0.47998046875,0.0380859375,0.7325439453125,-0.48126220703125,4440,-5975,-1132,47,6,175
131789451,-0.47076416015625,0.05072021484375,0.728271484375,-0.49542236328125,4378,-6095,-1060,50,8,163
131799432,-0.46209716796875,0.062744140625,0.72344970703125,-0.509033203125,4302,-6199,-976,52,11,157
131809422,-0.45355224609375,0.07470703125,0.71807861328125,-0.52252197265625,4155,-6347,-935,53,14,158
131819406,-0.44439697265625,0.08746337890625,0.71221923828125,-0.5362548828125,3970,-6498,-887,54,16,168
131829389,-0.4345703125,0.10125732421875,0.70574951171875,-0.55035400390625,3769,-6598,-779,54,17,179
131839366,-0.424072265625,0.11572265625,0.69866943359375,-0.564453125,3549,-6708,-679,54,19,185
131849352,-0.41351318359375,0.13031005859375,0.691162109375,-0.57818603515625,3338,-6794,-530,53,21,184
131859333,-0.40350341796875,0.144287109375,0.683349609375,-0.59112548828125,3049,-6863,-407,52,22,174
131869318,-0.3941650390625,0.157470703125,0.67547607421875,-0.60296630859375,2762,-6974,-303,51,24,162
131879299,-0.38555908203125,0.169921875,0.66748046875,-0.61395263671875,2460,-7064,-184,49,25,152
131889287,-0.37713623046875,0.18194580078125,0.6595458984375,-0.62420654296875,2075,-7173,-103,46,25,147
131899267,-0.36859130859375,0.194091796875,0.651611328125,-0.6339111328125,1736,-7247,9,43,25,147
131909250,-0.35992431640625,0.20611572265625,0.64373779296875,-0.64312744140625,1472,-7205,156,39,25,144
131919237,-0.35186767578125,0.21746826171875,0.63604736328125,-0.65142822265625,1255,-7153,305,36,25,134
131929218,-0.34478759765625,0.2279052734375,0.62872314453125,-0.65875244140625,1036,-7146,487,33,27,121
131939202,-0.33843994140625,0.2376708984375,0.62164306640625,-0.66522216796875,687,-7266,587,30,27,111
131949182,-0.33160400390625,0.24798583984375,0.6146240234375,-0.67138671875,226,-7603,584,27,27,117
131959172,-0.32293701171875,0.2596435546875,0.607421875,-0.677734375,-264,-7933,575,23,25,136
131969159,-0.312255859375,0.2725830078125,0.59991455078125,-0.684326171875,-781,-8227,575,18,23,152
131979137,-0.30029296875,0.28619384765625,0.59228515625,-0.69073486328125,-1183,-8514,568,14,20,160
131989112,-0.288330078125,0.29925537109375,0.5849609375,-0.696533203125,-1365,-8620,625,10,18,153
131999096,-0.278076171875,0.310546875,0.5784912109375,-0.70111083984375,-1334,-8505,742,7,18,129
132009078,-0.27093505859375,0.3192138671875,0.5732421875,-0.704345703125,-1241,-8240,918,6,20,93
132019059,-0.2667236328125,0.32574462890625,0.569091796875,-0.706298828125,-1313,-8161,1023,6,22,62
132029045,-0.26373291015625,0.33148193359375,0.56561279296875,-0.70758056640625,-1499,-8286,1063,5,23,53
132039025,-0.2598876953125,0.33782958984375,0.56182861328125,-0.708984375,-1747,-8428,1086,4,22,67
132049008,-0.25372314453125,0.34576416015625,0.55718994140625,-0.7110595703125,-2003,-8544,1110,2,21,93
132058990,-0.24517822265625,0.35528564453125,0.55157470703125,-0.7137451171875,-2143,-8544,1148,0,19,117
132068978,-0.23541259765625,0.3653564453125,0.54541015625,-0.7166748046875,-2188,-8433,1233,0,19,127
132078954,-0.22601318359375,0.3751220703125,0.5391845703125,-0.7193603515625,-2194,-8264,1363,-1,19,121
132088937,-0.2178955078125,0.3839111328125,0.53338623046875,-0.7215576171875,-2298,-8164,1471,0,21,104
132098919,-0.21142578125,0.39166259765625,0.52813720703125,-0.72320556640625,-2428,-8079,1546,1,23,88
132111989,-0.2060546875,0.39862060546875,0.52337646484375,-0.724365234375,-2695,-8027,1560,2,23,77
132118884,-0.2008056640625,0.40545654296875,0.5186767578125,-0.7254638671875,-3081,-8032,1504,2,22,75
132128872,-0.19482421875,0.4124755859375,0.513671875,-0.72662353515625,-3423,-8012,1429,2,19,83
132138849,-0.187744140625,0.41986083984375,0.50836181640625,-0.72802734375,-3770,-7964,1360,1,16,92
132148833,-0.1798095703125,0.4273681640625,0.50274658203125,-0.72955322265625,-4057,-7926,1309,0,14,97
132158817,-0.17181396484375,0.43450927734375,0.497314453125,-0.73095703125,-4189,-7866,1306,-1,12,95
132168795,-0.16461181640625,0.44091796875,0.4923095703125,-0.732177734375,-4313,-7756,1359,-1,11,84
132178780,-0.15838623046875,0.44647216796875,0.48785400390625,-0.733154296875,-4432,-7704,1379,-1,11,72
132188759,-0.153076171875,0.45147705078125,0.48388671875,-0.73388671875,-4510,-7645,1366,-1,11,65
132198749,-0.14788818359375,0.456298828125,0.48004150390625,-0.7344970703125,-4649,-7581,1319,-1,10,64
132208733,-0.14227294921875,0.46124267578125,0.47607421875,-0.73504638671875,-4785,-7544,1255,-2,9,69
132218709,-0.1357421875,0.466552734375,0.47174072265625,-0.73577880859375,-4886,-7481,1218,-3,8,78
132228693,-0.12835693359375,0.47210693359375,0.46697998046875,-0.736572265625,-4965,-7387,1207,-4,6,86
132238676,-0.12066650390625,0.47760009765625,0.462158203125,-0.73736572265625,-4964,-7243,1244,-4,6,86
132248658,-0.11358642578125,0.48272705078125,0.45751953125,-0.738037109375,-4976,-7087,1290,-4,7,79
132258640,-0.10723876953125,0.4874267578125,0.4532470703125,-0.73858642578125,-5112,-7023,1280,-3,7,71
132268622,-0.10113525390625,0.49200439453125,0.44915771484375,-0.7388916015625,-5342,-7079,1175,-3,7,71
132278606,-0.09442138671875,0.4969482421875,0.4447021484375,-0.73919677734375,-5659,-7256,1019,-3,6,80
132288588,-0.08624267578125,0.5025634765625,0.43939208984375,-0.73956298828125,-6043,-7521,860,-3,4,96
132298572,-0.07647705078125,0.50872802734375,0.43310546875,-0.7401123046875,-6454,-7860,776,-3,2,113
132308552,-0.06573486328125,0.51519775390625,0.42608642578125,-0.74072265625,-6804,-8191,780,-2,0,122
132318536,-0.0550537109375,0.5213623046875,0.4188232421875,-0.741455078125,-7141,-8516,867,-1,0,120
132328520,-0.0455322265625,0.52679443359375,0.412109375,-0.74200439453125,-7450,-8856,962,1,0,108
132338502,-0.03790283203125,0.53118896484375,0.4063720703125,-0.742431640625,-7694,-9154,1039,2,1,88
132348486,-0.0328369140625,0.53436279296875,0.4022216796875,-0.74273681640625,-7860,-9367,1098,4,2,61
132358470,-0.030517578125,0.53607177734375,0.3997802734375,-0.74285888671875,-7967,-9527,1148,6,3,32
132368452,-0.031005859375,0.5364990234375,0.3990478515625,-0.742919921875,-7972,-9658,1234,7,4,5
132378431,-0.03387451171875,0.53564453125,0.39984130859375,-0.7430419921875,-7872,-9711,1376,9,5,-19
132388421,-0.0386962890625,0.53387451171875,0.40167236328125,-0.74310302734375,-7688,-9704,1532,10,7,-37
132398404,-0.0447998046875,0.531494140625,0.40411376953125,-0.74310302734375,-7477,-9646,1681,11,8,-48
132408385,-0.05169677734375,0.52880859375,0.406982421875,-0.7430419921875,-7224,-9525,1814,12,9,-55
132418365,-0.0589599609375,0.52593994140625,0.409912109375,-0.74285888671875,-6993,-9370,1891,12,10,-58
132428348,-0.0662841796875,0.5230712890625,0.412841796875,-0.74267578125,-6804,-9197,1945,12,9,-59
132438329,-0.073486328125,0.52020263671875,0.4156494140625,-0.742431640625,-6696,-9070,1996,12,9,-59
132448313,-0.08038330078125,0.517333984375,0.41845703125,-0.74212646484375,-6658,-8978,2028,11,7,-58
132458296,-0.0872802734375,0.5142822265625,0.4212646484375,-0.74188232421875,-6698,-8905,2066,11,6,-60
132468279,-0.09429931640625,0.51092529296875,0.42431640625,-0.74163818359375,-6777,-8835,2083,10,5,-66
132478260,-0.1016845703125,0.507080078125,0.42791748046875,-0.7412109375,-6901,-8776,2070,8,2,-74
132488240,-0.109619140625,0.50262451171875,0.43206787109375,-0.74072265625,-7087,-8748,2027,7,0,-83
132498233,-0.11773681640625,0.49774169921875,0.43670654296875,-0.74005126953125,-7302,-8747,1944,5,-3,-89
132508214,-0.1259765625,0.4923095703125,0.44183349609375,-0.7392578125,-7530,-8762,1810,3,-6,-96
132518200,-0.13409423828125,0.48638916015625,0.44744873046875,-0.73834228515625,-7756,-8813,1682,1,-11,-100
132528183,-0.14208984375,0.47998046875,0.45355224609375,-0.73736572265625,-7910,-8864,1528,-2,-16,-104
132538168,-0.1500244140625,0.47283935546875,0.460205078125,-0.73626708984375,-7973,-8913,1407,-5,-20,-109
132548147,-0.157958984375,0.465087890625,0.4674072265625,-0.73504638671875,-7932,-8972,1328,-8,-24,-115
132558118,-0.1661376953125,0.45660400390625,0.47509765625,-0.73358154296875,-7792,-9035,1264,-10,-27,-121
132568101,-0.17437744140625,0.44757080078125,0.48333740234375,-0.73187255859375,-7575,-9095,1199,-13,-30,-126
132578083,-0.1829833984375,0.43792724609375,0.4920654296875,-0.72979736328125,-7295,-9118,1150,-15,-31,-133
132588065,-0.192138671875,0.4276123046875,0.50128173828125,-0.727294921875,-6968,-9131,1107,-17,-32,-142
132598047,-0.20196533203125,0.41650390625,0.51104736328125,-0.7242431640625,-6631,-9172,1049,-18,-33,-152
132608030,-0.2122802734375,0.4049072265625,0.52105712890625,-0.72076416015625,-6248,-9254,1010,-19,-33,-157
132618013,-0.22265625,0.3929443359375,0.53106689453125,-0.7169189453125,-5801,-9314,991,-19,-32,-157
132627997,-0.23291015625,0.3809814453125,0.540771484375,-0.71282958984375,-5336,-9324,964,-19,-31,-156
132637985,-0.2431640625,0.36895751953125,0.55029296875,-0.70843505859375,-4860,-9304,950,-19,-30,-156
132647968,-0.25347900390625,0.35699462890625,0.5594482421875,-0.70379638671875,-4368,-9279,926,-18,-28,-155
132657945,-0.26397705078125,0.34490966796875,0.56829833984375,-0.6988525390625,-3831,-9208,898,-17,-26,-156
132667928,-0.2747802734375,0.33270263671875,0.576904296875,-0.69354248046875,-3259,-9097,869,-16,-23,-157
132677911,-0.28607177734375,0.3204345703125,0.5850830078125,-0.6878662109375,-2669,-8939,892,-14,-20,-159
132687893,-0.29754638671875,0.3082275390625,0.5927734375,-0.6820068359375,-2115,-8788,927,-13,-16,-157
132697876,-0.308837890625,0.29656982421875,0.59967041015625,-0.67608642578125,-1615,-8662,962,-11,-11,-150
132707860,-0.31964111328125,0.28582763671875,0.605712890625,-0.67022705078125,-1187,-8568,948,-9,-7,-140
132717841,-0.32989501953125,0.27606201171875,0.61090087890625,-0.6646728515625,-893,-8492,925,-7,-3,-131
132727831,-0.3397216796875,0.26702880859375,0.61541748046875,-0.65924072265625,-703,-8449,857,-5,1,-125
132737808,-0.34967041015625,0.25823974609375,0.61944580078125,-0.65374755859375,-566,-8398,792,-2,3,-126
132747796,-0.35992431640625,0.24932861328125,0.62310791015625,-0.64813232421875,-551,-8423,668,1,5,-131
132757778,-0.37054443359375,0.24005126953125,0.62652587890625,-0.642333984375,-510,-8469,542,4,6,-136
132767764,-0.381591796875,0.2303466796875,0.629638671875,-0.63629150390625,-473,-8492,437,7,7,-142
132777746,-0.39306640625,0.22003173828125,0.6324462890625,-0.630126953125,-447,-8496,345,11,8,-147
132787731,-0.40478515625,0.2093505859375,0.63494873046875,-0.62384033203125,-452,-8486,241,14,8,-152
132797707,-0.41668701171875,0.1981201171875,0.63714599609375,-0.61737060546875,-474,-8411,116,17,8,-157
132807691,-0.42877197265625,0.186279296875,0.63916015625,-0.6107177734375,-475,-8312,24,20,6,-163
132817674,-0.44085693359375,0.1737060546875,0.64093017578125,-0.6038818359375,-419,-8213,-53,23,4,-166
132827654,-0.4527587890625,0.16070556640625,0.64239501953125,-0.59710693359375,-295,-8079,-75,26,2,-166
132837640,-0.4642333984375,0.1475830078125,0.6434326171875,-0.59051513671875,-190,-7918,-58,28,0,-162
132847621,-0.47509765625,0.1343994140625,0.6441650390625,-0.58416748046875,-36,-7725,-37,30,-2,-159
132857601,-0.48565673828125,0.12103271484375,0.6446533203125,-0.577880859375,97,-7515,-14,32,-4,-158
132867587,-0.49578857421875,0.107421875,0.64495849609375,-0.5716552734375,282,-7263,28,33,-7,-156
132877568,-0.505615234375,0.09356689453125,0.64501953125,-0.56524658203125,503,-6978,110,34,-9,-156
132887554,-0.51531982421875,0.079345703125,0.64501953125,-0.5587158203125,739,-6664,210,33,-10,-157
132897537,-0.52484130859375,0.06500244140625,0.644775390625,-0.5518798828125,992,-6370,339,33,-11,-157
132907519,-0.5343017578125,0.05047607421875,0.6444091796875,-0.54473876953125,1241,-6034,485,32,-12,-158
132917502,-0.543701171875,0.03570556640625,0.64385986328125,-0.5372314453125,1500,-5711,594,31,-12,-161
132927484,-0.55322265625,0.0206298828125,0.64312744140625,-0.529052734375,1757,-5374,703,30,-12,-165
132937467,-0.56280517578125,0.0052490234375,0.64227294921875,-0.52032470703125,2008,-5026,804,28,-12,-169
132947449,-0.572509765625,-0.010498046875,0.64117431640625,-0.5108642578125,2233,-4621,907,27,-13,-174
132957430,-0.58251953125,-0.0267333984375,0.63983154296875,-0.5006103515625,2424,-4176,992,25,-12,-180
132967421,-0.592529296875,-0.04339599609375,0.6383056640625,-0.489501953125,2603,-3714,1064,24,-13,-185
132977403,-0.60247802734375,-0.06036376953125,0.6365966796875,-0.47772216796875,2770,-3250,1120,22,-15,-187
132987387,-0.61199951171875,-0.07720947265625,0.6346435546875,-0.46551513671875,2947,-2774,1191,20,-16,-185
132997365,-0.620849609375,-0.09368896484375,0.6326904296875,-0.453369140625,3126,-2279,1224,19,-17,-177
133007347,-0.62890625,-0.10943603515625,0.630615234375,-0.44140625,3325,-1778,1263,17,-18,-168
133017330,-0.6361083984375,-0.12432861328125,0.62860107421875,-0.42987060546875,3543,-1260,1298,15,-20,-157
133027314,-0.64251708984375,-0.13836669921875,0.6265869140625,-0.4188232421875,3790,-751,1357,14,-20,-145
133037298,-0.648193359375,-0.1513671875,0.62457275390625,-0.40850830078125,4005,-274,1413,13,-20,-131
133047280,-0.653076171875,-0.1632080078125,0.62255859375,-0.3990478515625,4240,193,1450,12,-19,-116
133057263,-0.6572265625,-0.1739501953125,0.6207275390625,-0.390625,4442,630,1464,12,-18,-101
133067250,-0.66070556640625,-0.1837158203125,0.61895751953125,-0.383056640625,4658,1065,1477,11,-17,-89
133077233,-0.66375732421875,-0.1927490234375,0.61712646484375,-0.3760986328125,4866,1466,1471,11,-16,-81
133087216,-0.66656494140625,-0.2012939453125,0.61529541015625,-0.36968994140625,5057,1823,1447,12,-14,-74
133097200,-0.6690673828125,-0.20928955078125,0.6134033203125,-0.36383056640625,5208,2114,1409,13,-13,-67
133107188,-0.67108154296875,-0.2164306640625,0.61151123046875,-0.35894775390625,5346,2363,1349,14,-10,-54
133117169,-0.67254638671875,-0.2225341796875,0.60986328125,-0.3553466796875,5461,2578,1296,15,-9,-39
133127150,-0.67315673828125,-0.227294921875,0.60858154296875,-0.35333251953125,5522,2754,1229,15,-8,-19
133137132,-0.6729736328125,-0.23046875,0.6077880859375,-0.35302734375,5566,2888,1153,16,-7,1
133147105,-0.67193603515625,-0.232177734375,0.6075439453125,-0.354248046875,5633,2974,1087,15,-7,20
133157087,-0.670166015625,-0.23248291015625,0.60784912109375,-0.35687255859375,5704,3023,1035,14,-7,37
133167070,-0.66790771484375,-0.231689453125,0.60858154296875,-0.36041259765625,5802,3047,980,12,-6,49
133177054,-0.66534423828125,-0.2301025390625,0.6094970703125,-0.36456298828125,5865,3005,934,10,-5,56
133187035,-0.6624755859375,-0.2275390625,0.61077880859375,-0.3692626953125,5894,2899,888,8,-4,65
133197018,-0.65924072265625,-0.2239990234375,0.61236572265625,-0.37457275390625,5893,2742,854,5,-4,74
133207001,-0.6556396484375,-0.2193603515625,0.6142578125,-0.3804931640625,5913,2568,812,3,-3,85
133216989,-0.651611328125,-0.213623046875,0.616455078125,-0.38702392578125,5948,2383,778,0,-2,94
133226968,-0.647216796875,-0.20697021484375,0.618896484375,-0.39398193359375,5956,2186,770,-3,-1,102
133236951,-0.642578125,-0.199462890625,0.62152099609375,-0.40130615234375,5882,1934,726,-6,0,108
133246929,-0.6375732421875,-0.19091796875,0.624267578125,-0.4090576171875,5740,1644,668,-9,1,117
133256913,-0.63201904296875,-0.18133544921875,0.62738037109375,-0.41729736328125,5569,1317,618,-12,1,126
133266895,-0.62579345703125,-0.170654296875,0.63067626953125,-0.426025390625,5379,956,565,-14,1,135
133276878,-0.61907958984375,-0.15911865234375,0.6341552734375,-0.43511962890625,5222,567,512,-17,1,142
133286860,-0.6119384765625,-0.1468505859375,0.6376953125,-0.44427490234375,5114,183,466,-19,1,145
133296843,-0.604736328125,-0.13446044921875,0.64105224609375,-0.4530029296875,4988,-197,449,-21,2,141
133306826,-0.59771728515625,-0.1220703125,0.644287109375,-0.46124267578125,4823,-657,419,-23,3,136
133316808,-0.590576171875,-0.10955810546875,0.64739990234375,-0.46917724609375,4604,-1157,372,-24,3,135
133326792,-0.5830078125,-0.096435546875,0.65045166015625,-0.47723388671875,4388,-1671,324,-25,3,139
133336778,-0.57464599609375,-0.08258056640625,0.653564453125,-0.4857177734375,4193,-2192,275,-26,2,148
133346763,-0.5654296875,-0.06787109375,0.6566162109375,-0.49456787109375,4006,-2681,198,-26,2,156
133356747,-0.5556640625,-0.0528564453125,0.65948486328125,-0.5035400390625,3862,-3145,153,-26,1,158
133366728,-0.5457763671875,-0.0379638671875,0.662109375,-0.51214599609375,3738,-3596,139,-26,1,154
133376704,-0.5360107421875,-0.02337646484375,0.6644287109375,-0.52032470703125,3625,-4103,87,-26,1,150
133386690,-0.5260009765625,-0.0087890625,0.66650390625,-0.5281982421875,3498,-4613,65,-26,1,149
133396671,-0.515869140625,0.00592041015625,0.668212890625,-0.5360107421875,3382,-5084,59,-25,2,149
133406653,-0.50555419921875,0.02069091796875,0.66961669921875,-0.543701171875,3280,-5526,50,-25,3,150
133416636,-0.4951171875,0.0355224609375,0.67059326171875,-0.55126953125,3166,-5960,91,-24,4,150
133426618,-0.48455810546875,0.0504150390625,0.671142578125,-0.55877685546875,2997,-6442,59,-23,6,151
133436602,-0.47357177734375,0.06585693359375,0.6712646484375,-0.56646728515625,2808,-6962,48,-21,7,156
133446584,-0.4619140625,0.08172607421875,0.6708984375,-0.5743408203125,2608,-7405,46,-20,7,162
133456567,-0.45013427734375,0.09765625,0.67010498046875,-0.5821533203125,2388,-7799,43,-19,8,161
133466551,-0.4384765625,0.1131591796875,0.6688232421875,-0.589599609375,2173,-8132,53,-17,9,156
133476536,-0.4273681640625,0.1279296875,0.66717529296875,-0.5965576171875,1989,-8426,98,-15,10,149
133486515,-0.41705322265625,0.14178466796875,0.6651611328125,-0.6029052734375,1820,-8680,134,-13,12,138
133496500,-0.407470703125,0.1549072265625,0.662841796875,-0.6087646484375,1632,-8923,184,-11,13,131
133506480,-0.39813232421875,0.167724609375,0.66021728515625,-0.61444091796875,1404,-9124,230,-9,14,129
133516464,-0.38848876953125,0.18072509765625,0.6572265625,-0.62005615234375,1112,-9326,226,-8,15,132
133526448,-0.378173828125,0.194091796875,0.65386962890625,-0.62591552734375,838,-9464,260,-8,14,139
133536428,-0.36773681640625,0.2073974609375,0.650146484375,-0.6317138671875,636,-9527,328,-7,13,139
133546420,-0.35760498046875,0.2200927734375,0.646240234375,-0.63720703125,513,-9551,402,-6,14,134
133556402,-0.348388671875,0.2318115234375,0.642333984375,-0.64208984375,461,-9500,513,-5,15,123
133566383,-0.340576171875,0.24237060546875,0.63848876953125,-0.64617919921875,344,-9432,593,-5,17,107
133576359,-0.33392333984375,0.25189208984375,0.63494873046875,-0.6495361328125,194,-9381,610,-5,19,93
133586344,-0.32794189453125,0.26080322265625,0.63153076171875,-0.65240478515625,18,-9315,633,-4,19,87
133596324,-0.3218994140625,0.26971435546875,0.6279296875,-0.65521240234375,-251,-9286,623,-4,19,90
133606308,-0.3148193359375,0.27935791015625,0.62396240234375,-0.658447265625,-523,-9293,607,-3,17,102
133616291,-0.30621337890625,0.2899169921875,0.619384765625,-0.6622314453125,-727,-9229,611,-3,15,118
133626274,-0.296630859375,0.30096435546875,0.61431884765625,-0.6663818359375,-885,-9109,635,-3,13,127
133636256,-0.28692626953125,0.31170654296875,0.609130859375,-0.67041015625,-993,-8995,659,-2,12,125
133646235,-0.27801513671875,0.321533203125,0.6041259765625,-0.674072265625,-1094,-8853,730,-2,11,113
133656226,-0.2701416015625,0.33026123046875,0.59942626953125,-0.67718505859375,-1334,-8825,732,-1,11,100
133666215,-0.26300048828125,0.33831787109375,0.59503173828125,-0.679931640625,-1565,-8804,703,0,11,92
133676200,-0.25592041015625,0.34613037109375,0.5904541015625,-0.68267822265625,-1862,-8739,682,2,10,92
133686183,-0.248046875,0.354248046875,0.58563232421875,-0.685546875,-2203,-8709,565,2,8,100
133696168,-0.2388916015625,0.363037109375,0.580322265625,-0.688720703125,-2457,-8624,487,1,5,113
133706150,-0.22857666015625,0.3721923828125,0.57464599609375,-0.69207763671875,-2645,-8468,437,0,2,122
133716122,-0.218017578125,0.381103515625,0.56903076171875,-0.6953125,-2665,-8263,443,-2,1,120
133726101,-0.20849609375,0.3890380859375,0.5638427734375,-0.69805908203125,-2598,-8001,548,-3,1,108
133736083,-0.2005615234375,0.395751953125,0.55938720703125,-0.7001953125,-2643,-7745,613,-4,3,88
133746066,-0.1939697265625,0.401611328125,0.5556640625,-0.70166015625,-2757,-7614,549,-4,5,74
133756048,-0.18780517578125,0.4073486328125,0.55230712890625,-0.70269775390625,-2958,-7577,455,-6,6,73
133766031,-0.18060302734375,0.41375732421875,0.548583984375,-0.7037353515625,-3276,-7635,319,-7,5,85
133776013,-0.17144775390625,0.4215087890625,0.54412841796875,-0.70489501953125,-3678,-7825,146,-10,4,106
133785995,-0.1600341796875,0.43072509765625,0.53851318359375,-0.706298828125,-4073,-8080,3,-12,3,130
133795985,-0.14697265625,0.44085693359375,0.53216552734375,-0.70770263671875,-4472,-8340,-92,-14,2,144
133805970,-0.133544921875,0.45111083984375,0.52557373046875,-0.7088623046875,-4896,-8649,-158,-16,3,144
133815946,-0.12091064453125,0.4608154296875,0.519287109375,-0.70947265625,-5351,-9003,-221,-16,4,134
133825928,-0.1094970703125,0.4696044921875,0.5137939453125,-0.70953369140625,-5823,-9375,-338,-17,6,119
133835912,-0.09967041015625,0.47735595703125,0.50921630859375,-0.7091064453125,-6264,-9688,-463,-17,7,102
133845896,-0.09136962890625,0.4840087890625,0.50567626953125,-0.70831298828125,-6586,-9909,-579,-18,7,84
133855879,-0.08477783203125,0.48931884765625,0.5032958984375,-0.7071533203125,-6765,-10050,-639,-18,7,66
133865863,-0.08001708984375,0.49334716796875,0.50201416015625,-0.705810546875,-6798,-10098,-618,-18,7,45
133875845,-0.0771484375,0.49591064453125,0.50201416015625,-0.704345703125,-6721,-10086,-536,-18,7,25
133885825,-0.07611083984375,0.4971923828125,0.50311279296875,-0.7027587890625,-6530,-10010,-412,-17,8,6
133895807,-0.07659912109375,0.4974365234375,0.50506591796875,-0.70111083984375,-6222,-9852,-258,-17,8,-9
133905788,-0.07818603515625,0.4969482421875,0.507568359375,-0.69952392578125,-5864,-9650,-86,-15,9,-18
133915766,-0.080078125,0.4962158203125,0.51007080078125,-0.697998046875,-5501,-9412,82,-14,9,-19
133925758,-0.081787109375,0.49566650390625,0.51214599609375,-0.6966552734375,-5152,-9168,245,-13,9,-13
133935740,-0.0828857421875,0.4954833984375,0.51361083984375,-0.695556640625,-4839,-8879,386,-11,9,-5
133945730,-0.08343505859375,0.49566650390625,0.51446533203125,-0.69476318359375,-4585,-8594,508,-9,7,1
133955701,-0.08349609375,0.49603271484375,0.51483154296875,-0.6942138671875,-4388,-8313,583,-8,6,6
133965685,-0.083251953125,0.49652099609375,0.5147705078125,-0.69390869140625,-4238,-8069,642,-5,5,10
133975665,-0.08270263671875,0.49725341796875,0.51434326171875,-0.69378662109375,-4126,-7827,683,-4,4,14
133985646,-0.08172607421875,0.4981689453125,0.51336669921875,-0.6939697265625,-4062,-7617,694,-1,2,19
133995633,-0.08038330078125,0.499267578125,0.511962890625,-0.69439697265625,-4022,-7427,703,1,2,24
134005616,-0.078857421875,0.5006103515625,0.5101318359375,-0.6949462890625,-4029,-7270,687,2,1,27
134015600,-0.0771484375,0.50201416015625,0.50811767578125,-0.69561767578125,-4053,-7129,658,4,1,28
134025580,-0.07562255859375,0.5032958984375,0.5059814453125,-0.69635009765625,-4095,-7003,648,6,1,26
134035564,-0.07427978515625,0.50457763671875,0.50384521484375,-0.6971435546875,-4194,-6920,587,8,1,25
134045548,-0.0731201171875,0.50579833984375,0.5015869140625,-0.697998046875,-4319,-6881,480,9,1,24
134055529,-0.0718994140625,0.50726318359375,0.4991455078125,-0.6988525390625,-4454,-6845,373,11,1,26
134065513,-0.07049560546875,0.50885009765625,0.4964599609375,-0.69970703125,-4609,-6813,269,12,1,28
134075495,-0.0689697265625,0.51068115234375,0.49359130859375,-0.70062255859375,-4769,-6763,164,13,2,31
134085479,-0.06719970703125,0.5126953125,0.4903564453125,-0.7015380859375,-4923,-6700,56,14,2,34
134095462,-0.06512451171875,0.5150146484375,0.48687744140625,-0.70245361328125,-5049,-6620,-23,14,2,38
134105443,-0.06268310546875,0.51763916015625,0.4830322265625,-0.70343017578125,-5160,-6516,-72,15,2,43
134115424,-0.0596923828125,0.5206298828125,0.47869873046875,-0.7044677734375,-5244,-6425,-105,15,2,50
134125417,-0.05609130859375,0.5240478515625,0.47381591796875,-0.7054443359375,-5330,-6349,-120,15,3,58
134135400,-0.0517578125,0.52801513671875,0.46826171875,-0.70654296875,-5462,-6285,-104,16,3,67
134145383,-0.04681396484375,0.5323486328125,0.462158203125,-0.70770263671875,-5607,-6215,-94,16,3,74
134155359,-0.0416259765625,0.536865234375,0.4556884765625,-0.70880126953125,-5740,-6112,-92,17,4,76
134165344,-0.03656005859375,0.54132080078125,0.44915771484375,-0.7098388671875,-5837,-5980,-63,18,4,74
134175325,-0.031982421875,0.54547119140625,0.44293212890625,-0.7108154296875,-5932,-5825,-54,19,4,68
134185309,-0.028076171875,0.5491943359375,0.43701171875,-0.71173095703125,-6007,-5659,-49,19,4,61
134195290,-0.02459716796875,0.5526123046875,0.431396484375,-0.712646484375,-6081,-5484,-58,20,4,55
134205272,-0.0216064453125,0.5557861328125,0.42608642578125,-0.7135009765625,-6136,-5312,-58,20,4,51
134215256,-0.01861572265625,0.55889892578125,0.42083740234375,-0.71429443359375,-6218,-5130,-66,19,4,50
134225237,-0.01568603515625,0.56195068359375,0.41558837890625,-0.71502685546875,-6310,-4945,-67,19,4,50
134235230,-0.01263427734375,0.56494140625,0.41033935546875,-0.7156982421875,-6381,-4771,-45,19,3,49
134245213,-0.0096435546875,0.5677490234375,0.4052734375,-0.7164306640625,-6417,-4594,-43,18,2,47
134255200,-0.0068359375,0.5704345703125,0.40045166015625,-0.71710205078125,-6423,-4423,-36,17,2,44
134265185,-0.00421142578125,0.57281494140625,0.39593505859375,-0.71771240234375,-6424,-4252,-13,16,1,41
134275168,-0.001708984375,0.574951171875,0.39166259765625,-0.71832275390625,-6401,-4108,13,15,1,38
134285139,0.00067138671875,0.5770263671875,0.3875732421875,-0.7188720703125,-6409,-3981,14,14,1,37
134295115,0.00311279296875,0.5791015625,0.38360595703125,-0.7193603515625,-6455,-3884,29,13,1,37
134305100,0.00567626953125,0.5810546875,0.37969970703125,-0.7198486328125,-6511,-3814,65,12,0,38
134315082,0.00848388671875,0.58306884765625,0.37579345703125,-0.72021484375,-6600,-3757,69,11,0,39
134325064,0.011474609375,0.58502197265625,0.3719482421875,-0.7205810546875,-6681,-3690,89,9,-1,39
134335046,0.0145263671875,0.58685302734375,0.3681640625,-0.72100830078125,-6763,-3634,98,9,-2,39
134345029,0.01763916015625,0.588623046875,0.36444091796875,-0.7213134765625,-6824,-3575,105,7,-2,39
134355013,0.020751953125,0.59027099609375,0.3609619140625,-0.7216796875,-6856,-3534,135,6,-3,37
134364995,0.02386474609375,0.59185791015625,0.35760498046875,-0.72198486328125,-6875,-3482,142,5,-3,36
134374984,0.02691650390625,0.59332275390625,0.3544921875,-0.72216796875,-6892,-3467,161,5,-3,36
134384959,0.030029296875,0.5948486328125,0.35137939453125,-0.72235107421875,-6937,-3433,170,3,-3,36
134394941,0.03326416015625,0.59637451171875,0.3482666015625,-0.722412109375,-7019,-3420,182,2,-3,37
134404925,0.03680419921875,0.5980224609375,0.34521484375,-0.722412109375,-7118,-3411,175,1,-2,39
134414908,0.04052734375,0.59967041015625,0.342041015625,-0.7222900390625,-7221,-3401,165,0,-2,41
134424890,0.04437255859375,0.60137939453125,0.33892822265625,-0.72210693359375,-7321,-3380,160,-1,-2,41
134434872,0.04840087890625,0.60308837890625,0.33587646484375,-0.721923828125,-7429,-3367,164,-2,-3,42
134444855,0.05242919921875,0.604736328125,0.33282470703125,-0.72161865234375,-7517,-3342,174,-2,-2,42
134454836,0.0565185546875,0.6064453125,0.329833984375,-0.72125244140625,-7590,-3327,182,-3,-2,42
134464818,0.06060791015625,0.608154296875,0.326904296875,-0.7208251953125,-7639,-3311,179,-4,-1,42
134474807,0.06463623046875,0.60992431640625,0.32403564453125,-0.72027587890625,-7697,-3303,182,-4,0,43
134484787,0.0687255859375,0.6116943359375,0.3211669921875,-0.71966552734375,-7718,-3294,203,-5,1,43
134494766,0.07281494140625,0.61358642578125,0.31829833984375,-0.71893310546875,-7712,-3273,219,-5,2,44
134504760,0.07684326171875,0.61553955078125,0.3155517578125,-0.71807861328125,-7678,-3269,230,-6,3,44
134514741,0.08087158203125,0.61761474609375,0.31280517578125,-0.717041015625,-7654,-3244,241,-6,5,44
134524718,0.08477783203125,0.6197509765625,0.31005859375,-0.71588134765625,-7613,-3232,277,-6,7,45
134534701,0.08880615234375,0.62213134765625,0.30718994140625,-0.714599609375,-7580,-3223,299,-6,8,48
134544685,0.09307861328125,0.624755859375,0.30401611328125,-0.713134765625,-7553,-3190,319,-5,10,52
134554668,0.09759521484375,0.627685546875,0.300537109375,-0.71142578125,-7567,-3144,331,-5,12,56
