subject,Ian Lake
arm,left
label,2
hz,100.17218275186215
time,4.761801

timestamp_us,q0,q1,q2,q3,ax,ay,az,gx,gy,gz
140145612,0.59002685546875,0.10040283203125,0.7532958984375,0.2724609375,-6951,4460,-1120,2,-1,-1
140155596,0.59014892578125,0.1004638671875,0.75323486328125,0.27227783203125,-6974,4493,-1086,1,-1,-1
140165579,0.59033203125,0.10052490234375,0.753173828125,0.27215576171875,-6998,4516,-1039,1,-1,-1
140175562,0.5904541015625,0.10052490234375,0.7530517578125,0.2720947265625,-7030,4533,-1016,1,-1,-1
140185542,0.59063720703125,0.10052490234375,0.7529296875,0.2720947265625,-7062,4554,-1005,0,-1,-1
140195533,0.59075927734375,0.1005859375,0.7528076171875,0.27215576171875,-7089,4568,-1015,-1,-1,0
140205510,0.5909423828125,0.1005859375,0.75262451171875,0.27227783203125,-7113,4594,-1040,-1,-1,0
140215492,0.591064453125,0.1007080078125,0.75238037109375,0.27252197265625,-7132,4607,-1059,-2,-2,1
140225474,0.59130859375,0.10076904296875,0.75213623046875,0.272705078125,-7152,4608,-1104,-2,-3,1
140235458,0.591552734375,0.100830078125,0.75189208984375,0.27288818359375,-7150,4593,-1151,-2,-3,0
140245437,0.591796875,0.100830078125,0.75164794921875,0.2730712890625,-7138,4562,-1192,-2,-4,0
140255430,0.5921630859375,0.10076904296875,0.7513427734375,0.273193359375,-7116,4534,-1239,-2,-4,-1
140265411,0.592529296875,0.10064697265625,0.75103759765625,0.273193359375,-7087,4500,-1271,-2,-5,-2
140275394,0.5928955078125,0.1005859375,0.750732421875,0.273193359375,-7047,4471,-1315,-2,-5,-2
140285369,0.59332275390625,0.10052490234375,0.75042724609375,0.273193359375,-7004,4443,-1355,-2,-5,-1
140295352,0.59368896484375,0.10052490234375,0.7501220703125,0.27325439453125,-6956,4415,-1362,-2,-5,-1
140305342,0.59405517578125,0.10052490234375,0.74981689453125,0.2733154296875,-6909,4385,-1368,-2,-5,0
140315320,0.5943603515625,0.10064697265625,0.74951171875,0.27337646484375,-6848,4379,-1361,-2,-5,0
140325304,0.59466552734375,0.10076904296875,0.74920654296875,0.2734375,-6795,4347,-1345,-2,-4,0
140335285,0.59490966796875,0.100830078125,0.74896240234375,0.27349853515625,-6751,4331,-1336,-1,-4,0
140345270,0.59515380859375,0.1009521484375,0.748779296875,0.27349853515625,-6726,4317,-1318,-1,-3,0
140355256,0.5953369140625,0.10101318359375,0.7486572265625,0.2734375,-6709,4296,-1302,0,-3,-1
140365245,0.595458984375,0.10107421875,0.74859619140625,0.2733154296875,-6675,4269,-1268,0,-2,-1
140375223,0.5955810546875,0.10107421875,0.74853515625,0.273193359375,-6680,4263,-1251,1,-1,-1
140385206,0.59564208984375,0.10113525390625,0.74859619140625,0.27294921875,-6687,4248,-1210,1,-1,-2
140395193,0.595703125,0.10125732421875,0.74859619140625,0.272705078125,-6700,4239,-1175,2,-1,-1
140405184,0.595703125,0.1014404296875,0.7486572265625,0.27239990234375,-6717,4249,-1161,3,-1,0
140415161,0.595703125,0.10174560546875,0.74871826171875,0.27215576171875,-6750,4272,-1141,3,-1,0
140425138,0.595703125,0.10211181640625,0.748779296875,0.2718505859375,-6793,4309,-1128,4,-1,1
140435116,0.59564208984375,0.10260009765625,0.7489013671875,0.2716064453125,-6824,4338,-1111,4,-1,1
140445099,0.59564208984375,0.10302734375,0.7489013671875,0.2713623046875,-6873,4393,-1090,4,-1,1
140455081,0.59564208984375,0.10345458984375,0.74896240234375,0.2711181640625,-6903,4433,-1075,3,-1,0
140465068,0.59564208984375,0.10382080078125,0.74896240234375,0.2708740234375,-6920,4477,-1085,3,-1,-1
140475044,0.59564208984375,0.10406494140625,0.7490234375,0.27056884765625,-6915,4499,-1100,3,-1,-1
140485028,0.59564208984375,0.104248046875,0.74908447265625,0.270263671875,-6930,4542,-1116,2,-1,-1
140495017,0.59564208984375,0.1043701171875,0.7491455078125,0.2701416015625,-6939,4563,-1127,2,0,-1
140504996,0.59564208984375,0.1044921875,0.7491455078125,0.27008056640625,-6945,4574,-1134,1,-1,-1
140514990,0.59564208984375,0.1046142578125,0.74920654296875,0.27001953125,-6950,4567,-1140,0,0,0
140524963,0.59564208984375,0.104736328125,0.7491455078125,0.27008056640625,-6942,4549,-1127,0,-1,0
140534956,0.59564208984375,0.104736328125,0.7491455078125,0.2701416015625,-6937,4525,-1130,0,-1,0
140544934,0.59564208984375,0.104736328125,0.74908447265625,0.270263671875,-6933,4517,-1140,-1,0,0
140554910,0.5955810546875,0.10479736328125,0.74908447265625,0.27032470703125,-6911,4503,-1142,-1,0,0
140564897,0.59552001953125,0.104736328125,0.74908447265625,0.27044677734375,-6881,4490,-1142,-1,0,-1
140574878,0.595458984375,0.10467529296875,0.7491455078125,0.2705078125,-6860,4474,-1142,-1,1,-1
140584858,0.59539794921875,0.1046142578125,0.7491455078125,0.2706298828125,-6847,4474,-1151,-1,0,-1
140594841,0.59527587890625,0.1044921875,0.74920654296875,0.270751953125,-6829,4463,-1139,-1,1,-1
140604821,0.59515380859375,0.10430908203125,0.749267578125,0.2708740234375,-6817,4452,-1143,-2,1,-1
140614803,0.594970703125,0.1041259765625,0.7493896484375,0.27093505859375,-6810,4444,-1134,-2,2,-2
140624786,0.5948486328125,0.10382080078125,0.74951171875,0.27105712890625,-6801,4432,-1126,-2,2,-2
140634766,0.5946044921875,0.10345458984375,0.74969482421875,0.27117919921875,-6802,4441,-1133,-2,3,-2
140644758,0.5943603515625,0.10308837890625,0.7498779296875,0.2713623046875,-6795,4449,-1134,-3,3,-2
140654741,0.5941162109375,0.1026611328125,0.75006103515625,0.27154541015625,-6810,4460,-1138,-3,3,-3
140664719,0.5938720703125,0.1021728515625,0.75030517578125,0.271728515625,-6832,4467,-1136,-3,4,-3
140674698,0.5936279296875,0.1015625,0.75048828125,0.27197265625,-6852,4452,-1125,-4,4,-3
140684680,0.59332275390625,0.10089111328125,0.750732421875,0.27215576171875,-6866,4443,-1108,-4,4,-4
140694663,0.5931396484375,0.10009765625,0.75091552734375,0.2723388671875,-6884,4429,-1097,-4,4,-4
140704647,0.5928955078125,0.099365234375,0.75115966796875,0.2724609375,-6897,4398,-1090,-4,5,-4
140714629,0.5926513671875,0.09857177734375,0.75140380859375,0.2725830078125,-6907,4373,-1100,-4,4,-4
140724613,0.5924072265625,0.09783935546875,0.75164794921875,0.27264404296875,-6932,4352,-1125,-3,4,-4
140734598,0.5921630859375,0.09722900390625,0.751953125,0.27276611328125,-6950,4332,-1158,-3,4,-3
140744582,0.59185791015625,0.09674072265625,0.752197265625,0.2728271484375,-6972,4320,-1204,-3,4,-2
140754563,0.591552734375,0.096435546875,0.75244140625,0.27301025390625,-7007,4338,-1227,-2,3,-1
140764544,0.59124755859375,0.09613037109375,0.752685546875,0.27313232421875,-7052,4361,-1262,-2,3,-1
140774535,0.5909423828125,0.09588623046875,0.75286865234375,0.27325439453125,-7108,4372,-1296,-2,2,-1
140784512,0.5906982421875,0.09564208984375,0.7530517578125,0.2733154296875,-7157,4374,-1328,-2,2,-1
140794493,0.59063720703125,0.0953369140625,0.753173828125,0.2733154296875,-7209,4377,-1325,-1,1,-2
140804477,0.59063720703125,0.09490966796875,0.75323486328125,0.273193359375,-7231,4373,-1337,-1,0,-3
140814459,0.59075927734375,0.094482421875,0.7532958984375,0.27294921875,-7248,4365,-1343,-1,0,-4
140824449,0.59100341796875,0.093994140625,0.7532958984375,0.272705078125,-7266,4340,-1342,-1,-1,-4
140834430,0.59124755859375,0.0936279296875,0.75323486328125,0.2723388671875,-7279,4328,-1357,-1,-3,-4
140844416,0.591552734375,0.093505859375,0.75311279296875,0.27203369140625,-7274,4304,-1364,0,-3,-2
140854398,0.5919189453125,0.09356689453125,0.7529296875,0.2718505859375,-7257,4279,-1366,0,-4,-1
140864380,0.59228515625,0.09381103515625,0.75262451171875,0.271728515625,-7219,4255,-1353,1,-5,1
140874358,0.5926513671875,0.09423828125,0.75238037109375,0.2716064453125,-7158,4215,-1335,1,-5,2
140884339,0.593017578125,0.0947265625,0.7520751953125,0.27142333984375,-7091,4196,-1311,2,-6,2
140894323,0.59344482421875,0.09521484375,0.751708984375,0.271240234375,-7024,4160,-1279,2,-6,1
140904305,0.5938720703125,0.09564208984375,0.75146484375,0.2708740234375,-6943,4129,-1262,3,-6,0
140914286,0.59423828125,0.09600830078125,0.751220703125,0.27044677734375,-6877,4107,-1237,3,-5,0
140924270,0.5946044921875,0.096435546875,0.7510986328125,0.26995849609375,-6813,4083,-1216,4,-5,-1
140934257,0.59490966796875,0.09686279296875,0.7509765625,0.26953125,-6750,4082,-1176,5,-4,0
140944242,0.59515380859375,0.097412109375,0.7508544921875,0.26910400390625,-6709,4088,-1159,5,-3,1
140954225,0.59521484375,0.09808349609375,0.7508544921875,0.2686767578125,-6702,4088,-1139,5,-2,2
140964209,0.59515380859375,0.09881591796875,0.75091552734375,0.2684326171875,-6683,4106,-1121,5,-1,3
140974187,0.59503173828125,0.09954833984375,0.7509765625,0.26824951171875,-6676,4127,-1118,5,-1,3
140984182,0.5948486328125,0.100341796875,0.75103759765625,0.26806640625,-6694,4159,-1091,5,0,4
140994162,0.5946044921875,0.10107421875,0.75115966796875,0.26806640625,-6698,4202,-1077,5,1,4
141004139,0.59423828125,0.101806640625,0.75140380859375,0.26800537109375,-6735,4241,-1076,4,1,4
141014117,0.5938720703125,0.10247802734375,0.7515869140625,0.2679443359375,-6793,4283,-1087,4,2,4
141024100,0.593505859375,0.10302734375,0.7518310546875,0.26788330078125,-6838,4328,-1113,4,2,3
141034080,0.5931396484375,0.10357666015625,0.7520751953125,0.267822265625,-6902,4376,-1138,3,2,3
141044069,0.5927734375,0.10400390625,0.75238037109375,0.2677001953125,-6955,4401,-1153,3,2,2
141054052,0.592529296875,0.1043701171875,0.7525634765625,0.267578125,-7007,4419,-1156,3,2,2
141064033,0.59228515625,0.10467529296875,0.75274658203125,0.2674560546875,-7040,4443,-1179,3,1,1
141074017,0.59210205078125,0.10504150390625,0.75286865234375,0.267333984375,-7080,4478,-1187,2,1,1
141083998,0.5919189453125,0.10540771484375,0.75299072265625,0.26727294921875,-7103,4495,-1201,3,0,1
141093989,0.59185791015625,0.105712890625,0.7530517578125,0.26715087890625,-7146,4530,-1226,2,0,1
141103966,0.59173583984375,0.1060791015625,0.7530517578125,0.26708984375,-7152,4548,-1263,2,-1,1
141113946,0.59173583984375,0.1063232421875,0.75311279296875,0.2669677734375,-7163,4551,-1276,2,-1,0
141123928,0.59173583984375,0.1065673828125,0.75311279296875,0.26678466796875,-7156,4557,-1288,2,-1,0
141133913,0.591796875,0.106689453125,0.75311279296875,0.2666015625,-7140,4542,-1291,2,-1,-1
141143893,0.59197998046875,0.1068115234375,0.7530517578125,0.266357421875,-7113,4521,-1296,1,-2,-2
141153878,0.59210205078125,0.10687255859375,0.7530517578125,0.26611328125,-7097,4504,-1284,1,-2,-2
141163858,0.59234619140625,0.10693359375,0.7529296875,0.265869140625,-7068,4482,-1274,1,-2,-1
141173842,0.592529296875,0.10693359375,0.75286865234375,0.26568603515625,-7045,4468,-1276,1,-2,-2
141183824,0.59271240234375,0.10693359375,0.7528076171875,0.2655029296875,-7028,4475,-1279,0,-2,-2
141193807,0.5928955078125,0.10687255859375,0.752685546875,0.26531982421875,-6999,4474,-1293,0,-2,-3
141203789,0.593017578125,0.10675048828125,0.752685546875,0.26507568359375,-6980,4455,-1300,0,-2,-3
141213768,0.59326171875,0.1065673828125,0.75262451171875,0.26483154296875,-6937,4420,-1300,0,-2,-3
141223762,0.59344482421875,0.10638427734375,0.75262451171875,0.26458740234375,-6894,4367,-1279,0,-2,-3
141233745,0.5936279296875,0.10614013671875,0.7525634765625,0.26434326171875,-6857,4312,-1252,0,-1,-3
141243721,0.59375,0.10595703125,0.7525634765625,0.26409912109375,-6819,4267,-1239,0,-1,-2
141253710,0.59381103515625,0.1060791015625,0.7525634765625,0.26397705078125,-6809,4274,-1249,1,-1,0
141263694,0.59368896484375,0.10638427734375,0.75262451171875,0.26397705078125,-6819,4317,-1257,1,0,2
141273671,0.593505859375,0.10699462890625,0.7525634765625,0.2642822265625,-6835,4379,-1280,1,-1,5
141283654,0.59320068359375,0.10772705078125,0.7525634765625,0.26470947265625,-6860,4429,-1299,1,0,7
141293636,0.5928955078125,0.10858154296875,0.75250244140625,0.26531982421875,-6879,4460,-1304,0,-1,8
141303621,0.592529296875,0.1094970703125,0.75238037109375,0.26593017578125,-6891,4457,-1321,0,0,9
141313604,0.59222412109375,0.1103515625,0.752197265625,0.2667236328125,-6907,4453,-1332,-1,-1,9
141323579,0.59197998046875,0.11126708984375,0.75201416015625,0.26751708984375,-6911,4420,-1348,-1,-1,10
141333564,0.59173583984375,0.1121826171875,0.75177001953125,0.268310546875,-6900,4399,-1341,-2,-2,10
141343544,0.59149169921875,0.11309814453125,0.75152587890625,0.26910400390625,-6891,4381,-1321,-1,-2,10
141353528,0.59136962890625,0.11395263671875,0.75128173828125,0.269775390625,-6868,4351,-1302,-1,-2,9
141363514,0.59124755859375,0.11474609375,0.7510986328125,0.27032470703125,-6859,4315,-1270,0,-2,8
141373495,0.5911865234375,0.115478515625,0.7508544921875,0.27069091796875,-6869,4295,-1235,1,-2,7
141383477,0.59112548828125,0.11627197265625,0.75067138671875,0.27099609375,-6888,4279,-1200,2,-2,7
141393461,0.59100341796875,0.11724853515625,0.75048828125,0.271240234375,-6929,4255,-1171,3,-2,9
141403449,0.5909423828125,0.118408203125,0.75030517578125,0.27142333984375,-7001,4239,-1121,4,-2,10
141413433,0.59088134765625,0.1197509765625,0.75006103515625,0.271728515625,-7106,4216,-1073,5,-3,12
141423415,0.5908203125,0.121337890625,0.74969482421875,0.27203369140625,-7259,4191,-1056,5,-4,15
141433398,0.5908203125,0.12310791015625,0.74932861328125,0.27239990234375,-7473,4172,-1047,5,-5,17
141443374,0.5908203125,0.1251220703125,0.748779296875,0.27288818359375,-7718,4170,-1066,5,-6,20
141453358,0.59088134765625,0.12744140625,0.7481689453125,0.2735595703125,-8009,4127,-1090,5,-7,24
141463340,0.59100341796875,0.12994384765625,0.747314453125,0.27435302734375,-8284,4045,-1060,4,-9,28
141473325,0.59130859375,0.132568359375,0.7462158203125,0.2752685546875,-8554,3925,-1003,4,-10,29
141483309,0.59197998046875,0.1351318359375,0.74493408203125,0.276123046875,-8823,3805,-901,4,-13,29
141493293,0.593017578125,0.137451171875,0.74346923828125,0.27667236328125,-9093,3717,-795,4,-16,26
141503274,0.59454345703125,0.13946533203125,0.7418212890625,0.27679443359375,-9369,3701,-716,4,-19,21
141513257,0.5965576171875,0.14105224609375,0.74005126953125,0.27642822265625,-9674,3766,-689,4,-23,15
141523237,0.59906005859375,0.14215087890625,0.7381591796875,0.2755126953125,-9978,3907,-717,4,-26,7
141533230,0.60211181640625,0.14251708984375,0.7362060546875,0.27392578125,-10254,4064,-780,3,-30,-2
141543207,0.605712890625,0.14202880859375,0.73419189453125,0.2716064453125,-10459,4191,-822,2,-32,-13
141553187,0.60992431640625,0.14031982421875,0.732177734375,0.2685546875,-10636,4268,-824,0,-34,-26
141563180,0.61468505859375,0.13739013671875,0.73016357421875,0.2646484375,-10769,4309,-802,-2,-35,-39
141573161,0.61981201171875,0.13336181640625,0.728271484375,0.25994873046875,-10894,4324,-776,-3,-35,-50
141583138,0.625244140625,0.1282958984375,0.72637939453125,0.254638671875,-10984,4330,-757,-4,-35,-60
141593117,0.630859375,0.1221923828125,0.72467041015625,0.24871826171875,-11070,4342,-736,-6,-35,-71
141603100,0.63653564453125,0.11517333984375,0.7230224609375,0.24224853515625,-11151,4358,-722,-8,-34,-80
141613084,0.64227294921875,0.10723876953125,0.72149658203125,0.23516845703125,-11235,4372,-686,-9,-32,-90
141623067,0.64801025390625,0.098388671875,0.7200927734375,0.22760009765625,-11295,4400,-616,-10,-30,-99
141633051,0.6536865234375,0.0888671875,0.71868896484375,0.2196044921875,-11361,4428,-547,-11,-28,-106
141643033,0.6591796875,0.07861328125,0.7174072265625,0.2110595703125,-11448,4452,-479,-11,-26,-114
141653017,0.66448974609375,0.06768798828125,0.7161865234375,0.20208740234375,-11539,4466,-447,-12,-24,-121
141663000,0.6695556640625,0.05621337890625,0.715087890625,0.192626953125,-11636,4493,-454,-12,-22,-129
141672988,0.6744384765625,0.0440673828125,0.7139892578125,0.1826171875,-11727,4513,-484,-13,-20,-137
141682964,0.67901611328125,0.03125,0.71295166015625,0.17205810546875,-11854,4548,-533,-13,-19,-145
141692948,0.683349609375,0.01788330078125,0.71185302734375,0.1611328125,-12005,4585,-584,-14,-17,-151
141702930,0.68731689453125,0.004150390625,0.71063232421875,0.14990234375,-12189,4624,-650,-14,-16,-156
141712914,0.6910400390625,-0.009765625,0.70928955078125,0.13848876953125,-12411,4643,-715,-15,-16,-159
141722896,0.69439697265625,-0.02392578125,0.70782470703125,0.1270751953125,-12685,4652,-818,-16,-15,-161
141732878,0.697509765625,-0.0380859375,0.70611572265625,0.1156005859375,-12961,4616,-901,-16,-16,-163
141742864,0.70037841796875,-0.0523681640625,0.7041015625,0.10400390625,-13145,4496,-937,-17,-16,-166
141752847,0.70318603515625,-0.06719970703125,0.7017822265625,0.09185791015625,-13248,4351,-973,-17,-17,-174
141762829,0.70587158203125,-0.082763671875,0.69903564453125,0.07891845703125,-13304,4189,-1001,-16,-18,-186
141772810,0.70843505859375,-0.0992431640625,0.6956787109375,0.06475830078125,-13299,3974,-1021,-15,-19,-199
141782794,0.71087646484375,-0.1165771484375,0.69171142578125,0.049560546875,-13228,3681,-1023,-14,-21,-211
141792774,0.713134765625,-0.134521484375,0.6871337890625,0.03326416015625,-13054,3326,-997,-12,-23,-221
141802764,0.7152099609375,-0.15301513671875,0.68170166015625,0.01617431640625,-12832,2965,-943,-10,-25,-229
141812748,0.717041015625,-0.17156982421875,0.675537109375,-0.00152587890625,-12551,2593,-878,-8,-27,-233
141822725,0.71856689453125,-0.1898193359375,0.668701171875,-0.0194091796875,-12229,2186,-789,-5,-29,-233
141832708,0.71990966796875,-0.20751953125,0.66119384765625,-0.03729248046875,-11856,1777,-691,-2,-31,-230
141842695,0.720947265625,-0.22454833984375,0.6531982421875,-0.0550537109375,-11438,1377,-590,1,-32,-226
141852676,0.7218017578125,-0.24072265625,0.644775390625,-0.07244873046875,-11031,996,-521,4,-33,-221
141862658,0.72247314453125,-0.2559814453125,0.635986328125,-0.0894775390625,-10641,666,-478,7,-35,-214
141872641,0.722900390625,-0.27032470703125,0.626953125,-0.10601806640625,-10245,354,-468,10,-36,-207
141882624,0.72314453125,-0.28387451171875,0.61761474609375,-0.1221923828125,-9836,78,-454,13,-37,-202
141892607,0.72320556640625,-0.2967529296875,0.6080322265625,-0.13818359375,-9414,-182,-428,16,-37,-200
141902588,0.72296142578125,-0.309326171875,0.59808349609375,-0.1544189453125,-8953,-388,-422,18,-37,-201
141912572,0.72235107421875,-0.32183837890625,0.58758544921875,-0.17108154296875,-8461,-542,-424,21,-37,-205
141922556,0.7213134765625,-0.33428955078125,0.57659912109375,-0.18829345703125,-7996,-676,-423,24,-37,-210
141932542,0.7198486328125,-0.34649658203125,0.5650634765625,-0.2059326171875,-7562,-783,-445,26,-36,-212
141942519,0.7178955078125,-0.35821533203125,0.553466796875,-0.22344970703125,-7177,-860,-503,29,-34,-209
141952502,0.71563720703125,-0.3690185546875,0.54205322265625,-0.24041748046875,-6794,-932,-547,30,-32,-200
141962486,0.7132568359375,-0.37884521484375,0.53106689453125,-0.25628662109375,-6453,-1000,-602,30,-30,-186
141972468,0.71087646484375,-0.3873291015625,0.5208740234375,-0.27069091796875,-6106,-1060,-646,30,-27,-169
141982452,0.7086181640625,-0.3946533203125,0.51153564453125,-0.28363037109375,-5746,-1129,-678,29,-24,-151
141992431,0.7064208984375,-0.40081787109375,0.5032958984375,-0.2950439453125,-5396,-1211,-689,27,-20,-133
142002423,0.7042236328125,-0.40618896484375,0.49591064453125,-0.30517578125,-5058,-1276,-695,24,-17,-121
142012406,0.70184326171875,-0.4112548828125,0.4891357421875,-0.31475830078125,-4709,-1318,-689,21,-14,-115
142022389,0.69891357421875,-0.41650390625,0.4825439453125,-0.32440185546875,-4321,-1346,-662,18,-11,-118
142032367,0.6951904296875,-0.42242431640625,0.47552490234375,-0.33489990234375,-3908,-1372,-584,15,-8,-129
142042350,0.6904296875,-0.42913818359375,0.46795654296875,-0.3465576171875,-3490,-1422,-487,13,-5,-144
142052332,0.68463134765625,-0.436767578125,0.4595947265625,-0.35955810546875,-3038,-1532,-334,10,-3,-158
142062318,0.677734375,-0.44512939453125,0.45037841796875,-0.37371826171875,-2547,-1668,-132,9,0,-171
142072295,0.6697998046875,-0.4541015625,0.44036865234375,-0.388916015625,-2019,-1839,85,7,1,-183
142082279,0.6610107421875,-0.46331787109375,0.4295654296875,-0.40478515625,-1444,-2018,330,6,2,-190
142092262,0.6514892578125,-0.47265625,0.4180908203125,-0.421142578125,-865,-2171,572,6,4,-195
142102243,0.64141845703125,-0.4818115234375,0.4061279296875,-0.43756103515625,-277,-2340,819,6,4,-195
142112236,0.631103515625,-0.49053955078125,0.39404296875,-0.45367431640625,326,-2483,1062,6,4,-191
142122219,0.620849609375,-0.49859619140625,0.3819580078125,-0.4691162109375,941,-2635,1321,7,4,-182
142132206,0.6109619140625,-0.50579833984375,0.36993408203125,-0.4837646484375,1589,-2806,1616,9,4,-170
142142191,0.6016845703125,-0.51202392578125,0.3583984375,-0.49737548828125,2250,-2964,1942,11,4,-155
142152175,0.5933837890625,-0.51708984375,0.3472900390625,-0.50982666015625,2851,-3115,2264,14,4,-139
142162156,0.5860595703125,-0.52105712890625,0.33660888671875,-0.52130126953125,3306,-3263,2619,18,2,-125
142172129,0.57977294921875,-0.524169921875,0.32586669921875,-0.5318603515625,3586,-3324,3031,23,-2,-116
142182112,0.574951171875,-0.5264892578125,0.31488037109375,-0.54132080078125,3708,-3272,3541,29,-11,-103
142192093,0.57232666015625,-0.52801513671875,0.3038330078125,-0.5489501953125,3721,-3111,4009,35,-24,-83
142202079,0.572265625,-0.529052734375,0.29315185546875,-0.55377197265625,3785,-2895,4253,40,-39,-53
142212063,0.5750732421875,-0.52960205078125,0.283447265625,-0.555419921875,4007,-2659,4214,43,-51,-16
142222044,0.58050537109375,-0.52972412109375,0.2752685546875,-0.55377197265625,4360,-2471,3988,45,-60,22
142232025,0.58819580078125,-0.52923583984375,0.268798828125,-0.54925537109375,4707,-2303,3684,46,-64,55
142242007,0.59765625,-0.528076171875,0.26409912109375,-0.5423583984375,4978,-2155,3375,44,-65,83
142251996,0.60821533203125,-0.5264892578125,0.26080322265625,-0.53369140625,5158,-2034,3084,42,-66,101
142261977,0.619140625,-0.52471923828125,0.2584228515625,-0.52398681640625,5256,-1944,2820,39,-65,110
142271955,0.6298828125,-0.52288818359375,0.256591796875,-0.5137939453125,5285,-1887,2587,35,-64,112
142281937,0.6402587890625,-0.52117919921875,0.25518798828125,-0.5032958984375,5257,-1839,2393,31,-62,113
142291924,0.650146484375,-0.51947021484375,0.25421142578125,-0.4927978515625,5169,-1807,2226,27,-59,112
142301906,0.65960693359375,-0.51776123046875,0.25384521484375,-0.4820556640625,4983,-1776,2097,23,-55,113
142311888,0.66876220703125,-0.51593017578125,0.25433349609375,-0.4710693359375,4752,-1761,1968,18,-51,117
142321870,0.677734375,-0.51385498046875,0.25579833984375,-0.4595947265625,4501,-1798,1845,15,-46,123
142331854,0.68658447265625,-0.511474609375,0.2584228515625,-0.447509765625,4244,-1841,1762,11,-41,131
142341836,0.69537353515625,-0.50860595703125,0.26220703125,-0.43475341796875,3972,-1907,1696,8,-35,139
142351819,0.70416259765625,-0.50518798828125,0.267333984375,-0.4212646484375,3676,-2024,1645,5,-29,150
142361803,0.712890625,-0.5010986328125,0.273681640625,-0.40716552734375,3379,-2152,1606,3,-22,158
142371784,0.721435546875,-0.496337890625,0.28125,-0.392578125,3063,-2274,1572,2,-15,166
142381772,0.72967529296875,-0.49090576171875,0.289794921875,-0.377685546875,2709,-2407,1542,2,-7,170
142391759,0.73748779296875,-0.48480224609375,0.299072265625,-0.36285400390625,2337,-2546,1513,2,0,171
142401736,0.74468994140625,-0.47808837890625,0.30889892578125,-0.34844970703125,1954,-2701,1496,3,8,169
142411714,0.75128173828125,-0.47088623046875,0.31903076171875,-0.334716796875,1515,-2812,1456,5,15,163
142421696,0.75726318359375,-0.463134765625,0.32952880859375,-0.321533203125,971,-2907,1406,7,21,159
142431679,0.7628173828125,-0.45477294921875,0.34051513671875,-0.30865478515625,416,-3016,1340,10,27,159
142441662,0.76806640625,-0.4456787109375,0.35205078125,-0.2957763671875,-236,-3104,1271,12,33,161
142451646,0.7730712890625,-0.43560791015625,0.36444091796875,-0.28240966796875,-928,-3171,1214,15,37,167
142461628,0.7779541015625,-0.42449951171875,0.37738037109375,-0.26861572265625,-1574,-3222,1186,17,42,174
142471611,0.78253173828125,-0.41253662109375,0.39080810546875,-0.25439453125,-2209,-3256,1134,20,45,178
142481594,0.7867431640625,-0.39971923828125,0.404541015625,-0.2398681640625,-2768,-3281,1119,23,48,181
142491577,0.79052734375,-0.38629150390625,0.418212890625,-0.2254638671875,-3298,-3270,1103,26,51,181
142501559,0.7938232421875,-0.372314453125,0.431884765625,-0.21124267578125,-3843,-3268,1080,28,53,179
142511543,0.796630859375,-0.35791015625,0.44537353515625,-0.19732666015625,-4390,-3252,1115,31,55,177
142521526,0.7989501953125,-0.34295654296875,0.4586181640625,-0.1834716796875,-4960,-3172,1135,33,56,176
142531509,0.80072021484375,-0.32763671875,0.4718017578125,-0.16986083984375,-5455,-3154,1155,35,58,175
142541491,0.80206298828125,-0.3121337890625,0.4844970703125,-0.15667724609375,-5860,-3126,1222,37,59,171
142551476,0.80279541015625,-0.29656982421875,0.49676513671875,-0.14422607421875,-6304,-3000,1243,39,60,163
142561460,0.80291748046875,-0.28106689453125,0.50860595703125,-0.13250732421875,-6756,-2862,1276,41,61,155
142571439,0.8026123046875,-0.26568603515625,0.51995849609375,-0.12158203125,-7167,-2717,1297,43,61,149
142581431,0.80194091796875,-0.25018310546875,0.531005859375,-0.1109619140625,-7644,-2476,1277,43,61,147
142591415,0.80084228515625,-0.23443603515625,0.5418701171875,-0.10009765625,-8036,-2259,1266,43,60,149
142601396,0.79949951171875,-0.2183837890625,0.5523681640625,-0.08868408203125,-8367,-1990,1263,42,59,154
142611373,0.79779052734375,-0.20166015625,0.56298828125,-0.0762939453125,-8826,-1607,1197,41,59,164
142621357,0.79571533203125,-0.18408203125,0.5736083984375,-0.0623779296875,-9170,-1259,1135,39,59,178
142631339,0.79315185546875,-0.16571044921875,0.58404541015625,-0.0469970703125,-9445,-886,1121,36,59,191
142641322,0.7900390625,-0.14678955078125,0.5943603515625,-0.03033447265625,-9737,-503,1083,33,59,200
142651305,0.786376953125,-0.1278076171875,0.60418701171875,-0.01312255859375,-9868,-216,1112,29,59,203
142661293,0.78216552734375,-0.10931396484375,0.61334228515625,0.003662109375,-9976,113,1146,28,59,196
142671271,0.77734375,-0.09161376953125,0.62200927734375,0.01971435546875,-10054,381,1164,27,60,187
142681256,0.7720947265625,-0.07464599609375,0.630126953125,0.03485107421875,-10189,664,1204,26,61,179
142691241,0.7662353515625,-0.05804443359375,0.637939453125,0.0496826171875,-10568,1095,1137,25,62,176
142701226,0.75970458984375,-0.041259765625,0.6456298828125,0.06494140625,-11078,1555,965,23,62,181
142711209,0.7525634765625,-0.02410888671875,0.65301513671875,0.0810546875,-11567,1946,818,20,63,190
142721188,0.744873046875,-0.0068359375,0.65985107421875,0.0980224609375,-12011,2272,701,16,63,197
142731180,0.73675537109375,0.009765625,0.6661376953125,0.1148681640625,-12371,2537,661,12,63,192
142741163,0.7286376953125,0.0247802734375,0.67181396484375,0.13043212890625,-12763,2770,690,10,62,174
142751140,0.72076416015625,0.03729248046875,0.67706298828125,0.14361572265625,-13155,2915,759,8,61,147
142761116,0.71343994140625,0.04705810546875,0.681884765625,0.15399169921875,-13578,3004,866,8,60,117
142771100,0.7066650390625,0.0543212890625,0.6865234375,0.161865234375,-14122,3100,928,7,59,91
142781081,0.700439453125,0.05987548828125,0.6910400390625,0.16796875,-14706,3172,956,6,57,76
142791063,0.694580078125,0.0645751953125,0.6951904296875,0.17340087890625,-15151,3241,929,5,54,70
142801051,0.68902587890625,0.06903076171875,0.6988525390625,0.1788330078125,-15478,3300,855,3,49,71
142811029,0.683837890625,0.07330322265625,0.70208740234375,0.184326171875,-15719,3345,733,-1,44,70
142821006,0.67938232421875,0.07659912109375,0.7047119140625,0.1893310546875,-15895,3424,621,-5,38,59
142830995,0.6759033203125,0.07806396484375,0.7069091796875,0.19305419921875,-16025,3537,527,-9,32,37
142840978,0.673583984375,0.07696533203125,0.708740234375,0.19476318359375,-16120,3653,443,-12,26,8
142850952,0.672607421875,0.072998046875,0.71026611328125,0.1942138671875,-16190,3669,371,-17,20,-24
142860936,0.67291259765625,0.06610107421875,0.71142578125,0.19140625,-16242,3527,347,-21,14,-54
142870917,0.67431640625,0.0565185546875,0.7122802734375,0.18634033203125,-16257,3234,371,-23,10,-81
142880901,0.67657470703125,0.04473876953125,0.71270751953125,0.1795654296875,-16087,2808,450,-26,6,-102
142890885,0.679443359375,0.03155517578125,0.712646484375,0.17156982421875,-15777,2302,567,-27,2,-116
142900863,0.6826171875,0.017578125,0.71209716796875,0.162841796875,-15426,1810,700,-28,0,-123
142910846,0.685791015625,0.0035400390625,0.71124267578125,0.1539306640625,-15102,1345,759,-28,-2,-123
142920829,0.6888427734375,-0.0101318359375,0.71014404296875,0.14508056640625,-14776,929,791,-26,-3,-121
142930812,0.691650390625,-0.0233154296875,0.70880126953125,0.136474609375,-14465,588,789,-25,-4,-118
142940794,0.69415283203125,-0.0361328125,0.7073974609375,0.1279296875,-14233,341,754,-24,-4,-117
142950775,0.6964111328125,-0.0487060546875,0.7059326171875,0.1192626953125,-14097,191,677,-22,-3,-119
142960767,0.69830322265625,-0.061279296875,0.70452880859375,0.1102294921875,-13983,110,552,-20,-2,-123
142970751,0.70001220703125,-0.074462890625,0.70306396484375,0.10040283203125,-13866,70,404,-19,-1,-135
142980734,0.7015380859375,-0.08868408203125,0.70135498046875,0.08935546875,-13758,60,242,-19,-1,-151
142990712,0.702880859375,-0.10418701171875,0.69940185546875,0.07684326171875,-13620,-1,111,-18,0,-169
143000692,0.7039794921875,-0.1209716796875,0.69696044921875,0.06280517578125,-13471,-104,0,-17,1,-186
143010675,0.7047119140625,-0.13861083984375,0.69415283203125,0.047607421875,-13306,-226,-89,-15,2,-198
143020657,0.70501708984375,-0.156494140625,0.69091796875,0.03173828125,-13125,-368,-170,-14,3,-204
143030640,0.70489501953125,-0.17413330078125,0.6873779296875,0.0157470703125,-12891,-556,-224,-13,4,-203
143040624,0.704345703125,-0.19140625,0.68353271484375,-0.00018310546875,-12608,-742,-273,-11,4,-202
143050607,0.703369140625,-0.2083740234375,0.67938232421875,-0.0159912109375,-12320,-884,-350,-10,4,-201
143060589,0.7020263671875,-0.224853515625,0.6749267578125,-0.03167724609375,-11982,-1024,-432,-9,4,-201
143070572,0.70025634765625,-0.2413330078125,0.67010498046875,-0.04754638671875,-11579,-1187,-494,-8,5,-203
143080556,0.6982421875,-0.25775146484375,0.664794921875,-0.0638427734375,-11128,-1389,-514,-6,4,-207
143090542,0.69580078125,-0.27410888671875,0.65887451171875,-0.08056640625,-10661,-1590,-516,-3,5,-211
143100523,0.69305419921875,-0.29034423828125,0.65252685546875,-0.0977783203125,-10178,-1771,-473,-1,5,-213
143110511,0.69000244140625,-0.30621337890625,0.6456298828125,-0.115234375,-9704,-1915,-422,2,6,-215
143120491,0.68658447265625,-0.32159423828125,0.63836669921875,-0.1328125,-9191,-2047,-377,5,6,-214
143130474,0.682861328125,-0.33648681640625,0.6307373046875,-0.1505126953125,-8659,-2147,-324,8,6,-213
143140458,0.6788330078125,-0.3509521484375,0.6226806640625,-0.16815185546875,-8149,-2211,-256,10,6,-212
143150435,0.674560546875,-0.3648681640625,0.6142578125,-0.18572998046875,-7643,-2269,-188,12,6,-210
143160429,0.67010498046875,-0.378173828125,0.60546875,-0.203125,-7166,-2333,-104,14,6,-207
143170411,0.66558837890625,-0.39068603515625,0.5965576171875,-0.22015380859375,-6686,-2429,-32,16,6,-200
143180394,0.66094970703125,-0.40228271484375,0.587646484375,-0.236572265625,-6225,-2533,32,18,6,-191
143190370,0.6563720703125,-0.41278076171875,0.578857421875,-0.25225830078125,-5771,-2659,105,19,6,-180
143200354,0.65191650390625,-0.4222412109375,0.57037353515625,-0.26708984375,-5320,-2775,183,20,7,-168
143210336,0.64764404296875,-0.43072509765625,0.56219482421875,-0.28106689453125,-4886,-2896,261,21,7,-157
143220320,0.64337158203125,-0.4383544921875,0.55419921875,-0.29443359375,-4487,-3017,352,23,8,-149
143230303,0.63916015625,-0.44549560546875,0.5462646484375,-0.30755615234375,-4141,-3138,449,23,8,-146
143240285,0.63470458984375,-0.4525146484375,0.5380859375,-0.32073974609375,-3794,-3263,533,24,8,-148
143250267,0.62982177734375,-0.4595947265625,0.5294189453125,-0.33441162109375,-3487,-3365,598,25,9,-154
143260256,0.62457275390625,-0.466796875,0.52020263671875,-0.348388671875,-3228,-3442,629,26,9,-159
143270240,0.61895751953125,-0.47393798828125,0.51068115234375,-0.362548828125,-2996,-3514,643,27,9,-161
143280222,0.6131591796875,-0.48095703125,0.5008544921875,-0.37664794921875,-2773,-3578,631,28,8,-161
143290206,0.60723876953125,-0.48773193359375,0.49090576171875,-0.390380859375,-2556,-3639,620,28,7,-159
143300194,0.60137939453125,-0.494140625,0.4808349609375,-0.403564453125,-2359,-3655,606,28,5,-155
143310178,0.5955810546875,-0.5003662109375,0.4708251953125,-0.41619873046875,-2204,-3636,564,27,3,-151
143320157,0.58978271484375,-0.50640869140625,0.4608154296875,-0.42822265625,-2026,-3567,471,26,1,-147
143330127,0.583984375,-0.51239013671875,0.45074462890625,-0.43963623046875,-1849,-3466,375,25,-2,-145
143340112,0.578125,-0.5184326171875,0.44061279296875,-0.45037841796875,-1673,-3381,251,23,-5,-141
143350095,0.5723876953125,-0.52447509765625,0.43060302734375,-0.4603271484375,-1489,-3265,118,20,-8,-137
143360078,0.566650390625,-0.5306396484375,0.420654296875,-0.469482421875,-1280,-3141,-30,18,-12,-132
143370060,0.56097412109375,-0.536865234375,0.4107666015625,-0.47784423828125,-1022,-3022,-178,15,-15,-127
143380044,0.5552978515625,-0.5433349609375,0.40106201171875,-0.48541259765625,-715,-2939,-313,11,-19,-122
143390027,0.549560546875,-0.5499267578125,0.391357421875,-0.4923095703125,-366,-2880,-416,8,-21,-118
143400008,0.54388427734375,-0.5565185546875,0.3818359375,-0.4986572265625,22,-2830,-472,6,-23,-112
143409996,0.53857421875,-0.56292724609375,0.372802734375,-0.5040283203125,446,-2833,-516,3,-25,-101
143419982,0.5340576171875,-0.56878662109375,0.36480712890625,-0.50811767578125,922,-2910,-501,1,-27,-81
143429956,0.53094482421875,-0.57373046875,0.35845947265625,-0.5103759765625,1365,-3009,-432,-1,-28,-54
143439936,0.5296630859375,-0.57745361328125,0.354248046875,-0.51043701171875,1765,-3105,-339,-4,-30,-21
143449923,0.5302734375,-0.58001708984375,0.35223388671875,-0.50823974609375,2121,-3183,-218,-6,-31,11
143459903,0.53253173828125,-0.58148193359375,0.3521728515625,-0.5042724609375,2433,-3235,-66,-8,-32,37
143469884,0.53564453125,-0.58233642578125,0.35333251953125,-0.49908447265625,2766,-3305,77,-10,-32,51
143479866,0.53887939453125,-0.5831298828125,0.354736328125,-0.4937744140625,3130,-3428,264,-11,-32,53
143489850,0.5416259765625,-0.58404541015625,0.355712890625,-0.4888916015625,3523,-3606,473,-12,-31,46
143499832,0.54364013671875,-0.5853271484375,0.35589599609375,-0.48492431640625,3931,-3827,696,-12,-29,35
143509815,0.544921875,-0.58697509765625,0.355224609375,-0.48199462890625,4330,-4036,933,-12,-27,24
143519798,0.54559326171875,-0.5887451171875,0.35400390625,-0.47998046875,4687,-4213,1141,-11,-24,17
143529784,0.5460205078125,-0.59039306640625,0.35272216796875,-0.4783935546875,5025,-4376,1323,-11,-21,16
143539769,0.546630859375,-0.59161376953125,0.351806640625,-0.4769287109375,5295,-4497,1490,-10,-17,22
143549751,0.547607421875,-0.5921630859375,0.351806640625,-0.47503662109375,5443,-4558,1607,-10,-14,33
143559735,0.5494384765625,-0.59173583984375,0.353271484375,-0.472412109375,5470,-4586,1702,-10,-10,50
143569711,0.55230712890625,-0.59014892578125,0.3564453125,-0.46868896484375,5404,-4608,1749,-9,-6,71
143579693,0.55633544921875,-0.587158203125,0.36163330078125,-0.46356201171875,5248,-4620,1772,-9,-2,95
143589683,0.5616455078125,-0.5828857421875,0.3687744140625,-0.45697021484375,5002,-4595,1776,-8,2,118
143599665,0.5679931640625,-0.57720947265625,0.37774658203125,-0.44891357421875,4664,-4512,1755,-8,5,139
143609646,0.57501220703125,-0.57037353515625,0.3880615234375,-0.43975830078125,4238,-4380,1720,-7,8,154
143619636,0.5823974609375,-0.562744140625,0.39923095703125,-0.4298095703125,3774,-4231,1659,-7,11,161
143629611,0.58953857421875,-0.5546875,0.41058349609375,-0.419677734375,3314,-4079,1565,-7,13,160
143639594,0.5963134765625,-0.5465087890625,0.42169189453125,-0.4097900390625,2835,-3959,1479,-6,14,154
143649577,0.6025390625,-0.538330078125,0.43231201171875,-0.40032958984375,2347,-3841,1389,-4,16,147
143659558,0.60845947265625,-0.530029296875,0.44268798828125,-0.3909912109375,1853,-3733,1298,-4,17,144
143669543,0.61431884765625,-0.5213623046875,0.45306396484375,-0.3814697265625,1373,-3617,1197,-3,17,146
143679525,0.62017822265625,-0.5123291015625,0.463623046875,-0.37152099609375,913,-3496,1081,-3,17,149
143689507,0.6259765625,-0.5029296875,0.4742431640625,-0.3609619140625,472,-3395,967,-3,16,153
143699491,0.6317138671875,-0.4932861328125,0.48492431640625,-0.34991455078125,41,-3332,874,-4,15,155
143709474,0.63739013671875,-0.48345947265625,0.495361328125,-0.33856201171875,-382,-3326,798,-4,14,155
143719457,0.6429443359375,-0.47332763671875,0.5057373046875,-0.32684326171875,-922,-3229,733,-3,13,156
143729437,0.6485595703125,-0.4625244140625,0.5162353515625,-0.314453125,-1579,-3093,596,-3,12,161
143739427,0.65435791015625,-0.450927734375,0.5272216796875,-0.30078125,-2264,-2973,378,-3,10,171
143749411,0.660400390625,-0.4383544921875,0.5386962890625,-0.28546142578125,-2887,-2911,202,-4,8,187
143759393,0.6666259765625,-0.4248046875,0.55047607421875,-0.2685546875,-3434,-2891,57,-6,5,199
143769371,0.67266845703125,-0.41082763671875,0.56195068359375,-0.2508544921875,-3815,-2954,-21,-7,2,202
143779353,0.67816162109375,-0.397216796875,0.5723876953125,-0.23370361328125,-4236,-2951,-60,-6,1,192
143789337,0.68310546875,-0.38397216796875,0.58197021484375,-0.21722412109375,-4919,-2829,-202,-4,-1,178
143799316,0.6876220703125,-0.37078857421875,0.5909423828125,-0.20111083984375,-5658,-2727,-413,-3,-2,173
143809299,0.69189453125,-0.35711669921875,0.59979248046875,-0.184326171875,-6395,-2664,-664,-2,-4,180
143819283,0.69610595703125,-0.34210205078125,0.60888671875,-0.1658935546875,-7072,-2621,-898,-4,-6,199
143829266,0.7003173828125,-0.32562255859375,0.6182861328125,-0.14556884765625,-7514,-2627,-1011,-5,-8,219
143839246,0.70428466796875,-0.3082275390625,0.62725830078125,-0.12432861328125,-7662,-2708,-911,-5,-9,228
143849239,0.7078857421875,-0.2908935546875,0.6351318359375,-0.10382080078125,-7741,-2692,-730,-3,-10,219
143859224,0.7109375,-0.27471923828125,0.6417236328125,-0.08526611328125,-7971,-2447,-633,0,-10,195
143869206,0.71331787109375,-0.2596435546875,0.6473388671875,-0.0684814453125,-8582,-2000,-735,3,-11,173
143879192,0.71514892578125,-0.24468994140625,0.65264892578125,-0.05206298828125,-9446,-1562,-973,3,-12,170
143889175,0.716552734375,-0.22857666015625,0.6580810546875,-0.0343017578125,-10208,-1229,-1243,2,-13,189
143899161,0.71746826171875,-0.21051025390625,0.663818359375,-0.0140380859375,-10784,-925,-1497,-2,-14,218
143909128,0.7176513671875,-0.190673828125,0.669677734375,0.008544921875,-11062,-647,-1649,-5,-13,241
143919111,0.71710205078125,-0.17022705078125,0.675048828125,0.03179931640625,-10982,-486,-1588,-7,-11,246
143929094,0.71588134765625,-0.15069580078125,0.6795654296875,0.0537109375,-10683,-361,-1385,-6,-7,232
143939077,0.7142333984375,-0.13330078125,0.6832275390625,0.07281494140625,-10389,-108,-1223,-4,-5,199
143949059,0.71221923828125,-0.11871337890625,0.68609619140625,0.0885009765625,-10394,361,-1184,-2,-2,161
143959051,0.70989990234375,-0.1060791015625,0.688720703125,0.10174560546875,-10779,913,-1237,-2,0,138
143969027,0.7071533203125,-0.09375,0.6912841796875,0.11456298828125,-11264,1345,-1286,-2,2,141
143979010,0.7037353515625,-0.08001708984375,0.69403076171875,0.12890625,-11703,1718,-1290,-3,5,164
143988996,0.6993408203125,-0.06427001953125,0.69677734375,0.14544677734375,-11917,1998,-1222,-4,8,191
143998983,0.6943359375,-0.0474853515625,0.69927978515625,0.1629638671875,-11860,2178,-1010,-4,10,200
144008961,0.6890869140625,-0.03155517578125,0.70135498046875,0.1793212890625,-11662,2387,-747,-3,13,184
144018946,0.68402099609375,-0.0179443359375,0.70318603515625,0.1929931640625,-11554,2683,-541,0,15,152
144028926,0.67938232421875,-0.00701904296875,0.70489501953125,0.20355224609375,-11644,3067,-459,3,17,118
144038908,0.67510986328125,0.00177001953125,0.7066650390625,0.2115478515625,-11854,3402,-479,5,18,95
144048890,0.6708984375,0.00958251953125,0.70849609375,0.21844482421875,-12080,3617,-536,6,18,89
144058878,0.66668701171875,0.01751708984375,0.71014404296875,0.22540283203125,-12272,3748,-541,6,18,95
144068857,0.6622314453125,0.02618408203125,0.71160888671875,0.23284912109375,-12383,3834,-480,6,17,104
144078841,0.65771484375,0.035400390625,0.71282958984375,0.24072265625,-12438,3956,-400,7,16,108
144088821,0.65325927734375,0.04443359375,0.71380615234375,0.248291015625,-12420,4083,-289,8,16,104
144098805,0.6492919921875,0.05255126953125,0.714599609375,0.25482177734375,-12351,4200,-211,8,14,90
144108787,0.6458740234375,0.0592041015625,0.71533203125,0.2598876953125,-12259,4294,-198,9,12,73
144121995,0.64312744140625,0.06439208984375,0.71600341796875,0.2635498046875,-12166,4322,-205,8,10,56
144128758,0.6409912109375,0.06829833984375,0.71661376953125,0.26611328125,-11993,4291,-204,7,9,44
144138742,0.6392822265625,0.0714111328125,0.7171630859375,0.2679443359375,-11755,4210,-138,7,7,36
144148718,0.63800048828125,0.07391357421875,0.71746826171875,0.2694091796875,-11436,4101,-26,6,6,29
144158700,0.6370849609375,0.07574462890625,0.71771240234375,0.2703857421875,-11076,3979,102,5,6,22
144168683,0.636474609375,0.076904296875,0.71795654296875,0.27093505859375,-10701,3866,223,4,5,15
144178665,0.63623046875,0.077392578125,0.71807861328125,0.27105712890625,-10325,3755,369,4,5,8
144188649,0.63616943359375,0.077392578125,0.71826171875,0.27081298828125,-9986,3655,487,3,5,3
144198636,0.63623046875,0.07708740234375,0.71832275390625,0.2705078125,-9709,3577,573,2,4,2
144208613,0.63623046875,0.076904296875,0.71832275390625,0.27044677734375,-9460,3512,615,1,4,4
144218599,0.63616943359375,0.07696533203125,0.71826171875,0.27081298828125,-9244,3434,620,-1,3,9
144228579,0.63592529296875,0.0775146484375,0.7181396484375,0.27166748046875,-9027,3389,643,-2,3,14
144238562,0.63555908203125,0.07830810546875,0.7178955078125,0.27301025390625,-8867,3389,649,-3,3,18
144248543,0.635009765625,0.0792236328125,0.71759033203125,0.274658203125,-8769,3430,628,-4,4,20
144258526,0.634521484375,0.080078125,0.71728515625,0.27642822265625,-8700,3476,590,-6,4,19
144268508,0.63397216796875,0.0806884765625,0.71697998046875,0.27813720703125,-8643,3520,522,-7,3,17
144278493,0.63360595703125,0.080810546875,0.71673583984375,0.279541015625,-8612,3551,443,-8,3,12
144288475,0.6334228515625,0.0804443359375,0.71649169921875,0.28070068359375,-8556,3572,374,-9,3,7
144298457,0.6334228515625,0.07952880859375,0.71630859375,0.28143310546875,-8501,3591,334,-9,3,1
144308436,0.63360595703125,0.07818603515625,0.7161865234375,0.2818603515625,-8472,3621,277,-10,3,-3
144318426,0.63385009765625,0.0765380859375,0.716064453125,0.28204345703125,-8420,3622,214,-10,3,-6
144328409,0.6341552734375,0.07470703125,0.71600341796875,0.28204345703125,-8374,3615,156,-10,3,-9
144338391,0.63446044921875,0.07269287109375,0.7159423828125,0.28192138671875,-8334,3618,78,-10,3,-10
144348367,0.634765625,0.070556640625,0.7159423828125,0.28173828125,-8276,3617,3,-10,3,-11
144358350,0.6351318359375,0.06842041015625,0.7159423828125,0.28143310546875,-8222,3609,-70,-10,2,-12
144368332,0.63555908203125,0.0662841796875,0.71600341796875,0.28106689453125,-8146,3582,-111,-9,2,-14
144378316,0.635986328125,0.06396484375,0.71600341796875,0.28045654296875,-8044,3521,-141,-9,2,-16
144388301,0.6365966796875,0.0615234375,0.71600341796875,0.2796630859375,-7940,3440,-135,-8,2,-17
144398280,0.63720703125,0.05908203125,0.7159423828125,0.27880859375,-7834,3386,-113,-8,1,-18
144408265,0.63787841796875,0.05682373046875,0.71588134765625,0.27789306640625,-7763,3346,-106,-7,1,-17
144418244,0.63848876953125,0.0548095703125,0.7158203125,0.27716064453125,-7706,3333,-103,-7,0,-14
144428237,0.63897705078125,0.05322265625,0.7156982421875,0.27667236328125,-7677,3350,-120,-6,-1,-10
144438217,0.63934326171875,0.05206298828125,0.71551513671875,0.27655029296875,-7666,3391,-156,-6,-1,-6
144448196,0.63970947265625,0.05120849609375,0.7152099609375,0.276611328125,-7649,3446,-208,-7,-2,-3
144458189,0.63995361328125,0.050537109375,0.71490478515625,0.27691650390625,-7642,3503,-258,-7,-3,-2
144468174,0.6402587890625,0.050048828125,0.71453857421875,0.27728271484375,-7645,3548,-306,-7,-4,-1
144478159,0.640625,0.049560546875,0.71405029296875,0.27777099609375,-7664,3565,-347,-7,-5,0
144488126,0.64105224609375,0.04913330078125,0.7135009765625,0.27825927734375,-7664,3561,-371,-7,-6,1
144498108,0.6414794921875,0.04876708984375,0.71295166015625,0.27880859375,-7662,3533,-393,-8,-6,1
144508092,0.64202880859375,0.04840087890625,0.7122802734375,0.279296875,-7648,3530,-387,-7,-7,0
144518078,0.64263916015625,0.04791259765625,0.711669921875,0.27960205078125,-7654,3525,-379,-6,-7,-1
144528054,0.643310546875,0.0474853515625,0.71099853515625,0.27978515625,-7653,3548,-360,-6,-8,-3
144538038,0.64404296875,0.0469970703125,0.71038818359375,0.27972412109375,-7645,3558,-347,-4,-8,-4
144548020,0.64483642578125,0.04656982421875,0.709716796875,0.27960205078125,-7619,3569,-347,-4,-8,-4
144558003,0.6456298828125,0.04620361328125,0.70916748046875,0.27935791015625,-7590,3564,-343,-3,-8,-4
144567992,0.6463623046875,0.04595947265625,0.70855712890625,0.27911376953125,-7550,3535,-344,-2,-8,-3
144577980,0.6470947265625,0.04595947265625,0.70806884765625,0.27880859375,-7495,3495,-346,0,-9,-2
144587954,0.6478271484375,0.04608154296875,0.70751953125,0.27850341796875,-7446,3448,-325,0,-9,-1
144597945,0.64849853515625,0.04632568359375,0.70697021484375,0.27813720703125,-7393,3407,-307,2,-9,0
144607922,0.64910888671875,0.04681396484375,0.70654296875,0.27777099609375,-7350,3381,-299,3,-9,0
144617904,0.649658203125,0.04742431640625,0.7061767578125,0.27734375,-7321,3383,-271,4,-8,1
144627886,0.6502685546875,0.0482177734375,0.70574951171875,0.27685546875,-7279,3396,-249,5,-9,2
144637870,0.6507568359375,0.04931640625,0.70538330078125,0.27642822265625,-7253,3420,-222,7,-8,3
144647853,0.65118408203125,0.050537109375,0.705078125,0.2760009765625,-7220,3452,-206,8,-8,4
144657837,0.65167236328125,0.05181884765625,0.70477294921875,0.2755126953125,-7180,3483,-187,8,-9,4
144667819,0.65216064453125,0.0531005859375,0.7044677734375,0.27490234375,-7144,3515,-165,9,-9,2
144677801,0.6527099609375,0.05426025390625,0.7041015625,0.27410888671875,-7121,3548,-161,9,-9,0
144687785,0.65338134765625,0.0552978515625,0.70379638671875,0.2730712890625,-7093,3602,-141,10,-9,-2
144697771,0.65411376953125,0.0562744140625,0.70355224609375,0.27191162109375,-7086,3634,-139,10,-9,-3
144707755,0.65484619140625,0.05718994140625,0.7032470703125,0.27069091796875,-7082,3680,-145,10,-10,-4
144717737,0.655517578125,0.0582275390625,0.70294189453125,0.26959228515625,-7081,3713,-145,11,-10,-2
144727718,0.6561279296875,0.0595703125,0.70257568359375,0.26873779296875,-7090,3754,-157,10,-10,2
144737698,0.65655517578125,0.06134033203125,0.70220947265625,0.268310546875,-7076,3783,-161,10,-10,7
144747681,0.6568603515625,0.0635986328125,0.70172119140625,0.268310546875,-7071,3822,-137,10,-10,12
144757666,0.6571044921875,0.0660400390625,0.701171875,0.26861572265625,-7055,3857,-110,10,-11,14
144767647,0.65728759765625,0.06854248046875,0.7005615234375,0.26898193359375,-7050,3905,-106,9,-10,14
144777629,0.6575927734375,0.07086181640625,0.699951171875,0.269287109375,-7057,3960,-95,9,-11,13
144787612,0.65789794921875,0.072998046875,0.69940185546875,0.2694091796875,-7059,4025,-72,9,-10,10
144797593,0.6583251953125,0.0748291015625,0.69879150390625,0.26934814453125,-7066,4091,-70,8,-11,7
144807577,0.6588134765625,0.07647705078125,0.6982421875,0.2691650390625,-7067,4144,-63,7,-11,5
144817561,0.65936279296875,0.07794189453125,0.6976318359375,0.2689208984375,-7056,4167,-48,7,-11,4
144827545,0.659912109375,0.0794677734375,0.697021484375,0.268798828125,-7042,4177,-26,7,-11,6
144837527,0.660400390625,0.08111572265625,0.69635009765625,0.26885986328125,-7039,4199,-15,6,-10,8
144847508,0.6607666015625,0.08294677734375,0.6956787109375,0.2691650390625,-7033,4193,27,6,-10,11
144857492,0.6610107421875,0.08489990234375,0.69500732421875,0.2696533203125,-7046,4183,81,6,-10,13
144867474,0.6612548828125,0.0869140625,0.69427490234375,0.27032470703125,-7070,4187,119,5,-9,14
144877458,0.66143798828125,0.08892822265625,0.69366455078125,0.27093505859375,-7083,4188,138,5,-9,13
144887439,0.66162109375,0.09063720703125,0.69305419921875,0.27130126953125,-7091,4177,170,5,-8,10
144897431,0.6619873046875,0.09197998046875,0.6925048828125,0.2713623046875,-7110,4172,190,5,-8,6
144907413,0.662353515625,0.093017578125,0.692138671875,0.2711181640625,-7139,4171,201,6,-7,2
