subject,Ian Lake
arm,left
label,2
hz,100.17170187302143
time,4.751841

timestamp_us,q0,q1,q2,q3,ax,ay,az,gx,gy,gz
31772469,0.68658447265625,-0.263427734375,-0.6461181640625,-0.204345703125,7961,-779,135,5,-3,4
31782451,0.6866455078125,-0.263427734375,-0.64630126953125,-0.20343017578125,7982,-764,140,5,-3,5
31792432,0.68670654296875,-0.263671875,-0.64654541015625,-0.202392578125,8034,-777,135,4,-4,7
31802422,0.686767578125,-0.263916015625,-0.64666748046875,-0.20135498046875,8084,-784,141,4,-3,7
31812406,0.68682861328125,-0.26416015625,-0.64678955078125,-0.20037841796875,8127,-799,154,3,-3,6
31822390,0.68682861328125,-0.2642822265625,-0.64697265625,-0.19964599609375,8153,-799,167,3,-3,4
31832368,0.68682861328125,-0.26422119140625,-0.6470947265625,-0.19921875,8169,-785,185,3,-2,1
31842346,0.68682861328125,-0.2640380859375,-0.64727783203125,-0.19891357421875,8161,-781,202,2,-2,0
31852329,0.68682861328125,-0.26385498046875,-0.64739990234375,-0.19873046875,8139,-780,218,2,-1,-1
31862313,0.68682861328125,-0.26373291015625,-0.64752197265625,-0.1986083984375,8132,-794,200,1,-1,0
31872294,0.6868896484375,-0.26373291015625,-0.6475830078125,-0.1983642578125,8141,-823,206,1,-1,1
31882278,0.68695068359375,-0.2637939453125,-0.6475830078125,-0.197998046875,8127,-834,201,1,-1,2
31892263,0.68701171875,-0.2640380859375,-0.64752197265625,-0.19757080078125,8120,-855,193,0,-1,3
31902250,0.6871337890625,-0.2642822265625,-0.6474609375,-0.1971435546875,8136,-880,187,0,-1,4
31912239,0.68719482421875,-0.26458740234375,-0.6473388671875,-0.19677734375,8128,-901,178,0,-1,3
31922222,0.687255859375,-0.26495361328125,-0.647216796875,-0.1964111328125,8127,-914,173,0,-1,3
31932205,0.68731689453125,-0.2652587890625,-0.64715576171875,-0.196044921875,8121,-942,176,-1,-1,3
31942181,0.6873779296875,-0.26556396484375,-0.64703369140625,-0.19580078125,8121,-965,169,-1,-1,2
31952177,0.68743896484375,-0.265869140625,-0.64697265625,-0.195556640625,8125,-984,168,-1,0,2
31962160,0.6875,-0.26611328125,-0.6468505859375,-0.19537353515625,8120,-993,167,-1,-1,2
31972133,0.6875,-0.26641845703125,-0.646728515625,-0.1951904296875,8106,-1009,163,-1,-1,2
31982113,0.68756103515625,-0.2667236328125,-0.6466064453125,-0.1949462890625,8083,-1018,158,-1,0,2
31992095,0.6876220703125,-0.26702880859375,-0.646484375,-0.19476318359375,8074,-1033,149,-1,-1,2
32002082,0.68768310546875,-0.267333984375,-0.64642333984375,-0.1944580078125,8066,-1039,139,-1,0,3
32012067,0.68780517578125,-0.26763916015625,-0.64630126953125,-0.194091796875,8054,-1043,136,0,0,3
32022046,0.6878662109375,-0.26800537109375,-0.6461181640625,-0.19366455078125,8061,-1052,115,0,0,4
32034989,0.68804931640625,-0.26837158203125,-0.64599609375,-0.193115234375,8065,-1070,110,1,0,4
32042013,0.68817138671875,-0.26873779296875,-0.6458740234375,-0.1925048828125,8058,-1089,125,0,-1,5
32051992,0.6883544921875,-0.26898193359375,-0.64581298828125,-0.19189453125,8061,-1082,125,2,-1,4
32061981,0.68841552734375,-0.2691650390625,-0.645751953125,-0.1912841796875,8055,-1071,123,2,-1,4
32071959,0.68853759765625,-0.269287109375,-0.645751953125,-0.19073486328125,8060,-1080,136,2,-1,3
32081939,0.68865966796875,-0.26934814453125,-0.64581298828125,-0.19024658203125,8069,-1079,150,3,-2,2
32091922,0.68865966796875,-0.269287109375,-0.64593505859375,-0.189697265625,8079,-1080,153,3,-2,2
32101900,0.688720703125,-0.2691650390625,-0.64605712890625,-0.18927001953125,8089,-1076,166,3,-2,1
32111885,0.688720703125,-0.26898193359375,-0.64630126953125,-0.18878173828125,8114,-1079,167,3,-2,1
32121872,0.688720703125,-0.268798828125,-0.646484375,-0.1883544921875,8124,-1068,176,4,-3,0
32131850,0.68878173828125,-0.2685546875,-0.646728515625,-0.18780517578125,8138,-1072,164,4,-2,1
32141832,0.68878173828125,-0.268310546875,-0.64697265625,-0.187255859375,8172,-1060,167,4,-2,1
32151815,0.6888427734375,-0.26806640625,-0.64715576171875,-0.18670654296875,8191,-1055,168,4,-2,2
32161797,0.68896484375,-0.267822265625,-0.64727783203125,-0.18609619140625,8201,-1047,174,4,-2,2
32171778,0.6890869140625,-0.267578125,-0.6474609375,-0.18548583984375,8208,-1038,177,5,-2,2
32181759,0.689208984375,-0.26727294921875,-0.64764404296875,-0.1849365234375,8205,-1030,176,5,-2,1
32191752,0.6893310546875,-0.26690673828125,-0.64776611328125,-0.1844482421875,8202,-1023,179,5,-1,0
32201739,0.68951416015625,-0.2664794921875,-0.64788818359375,-0.18402099609375,8183,-1025,180,4,-1,-1
32211716,0.68963623046875,-0.26605224609375,-0.64801025390625,-0.18365478515625,8160,-1036,158,4,0,-1
32221696,0.68975830078125,-0.265625,-0.64813232421875,-0.183349609375,8137,-1042,143,4,0,-1
32231680,0.68988037109375,-0.26531982421875,-0.64825439453125,-0.18304443359375,8129,-1052,132,3,-1,-1
32241663,0.69000244140625,-0.2650146484375,-0.6483154296875,-0.18280029296875,8122,-1050,116,3,0,-1
32251644,0.6900634765625,-0.2647705078125,-0.6483154296875,-0.1826171875,8102,-1048,115,2,0,-1
32261630,0.69012451171875,-0.2646484375,-0.64837646484375,-0.1826171875,8068,-1051,115,1,0,-1
32271611,0.69024658203125,-0.2645263671875,-0.6483154296875,-0.1826171875,8024,-1036,125,0,1,-1
32281593,0.69024658203125,-0.26446533203125,-0.64825439453125,-0.18280029296875,7979,-1029,119,-1,0,-1
32291573,0.690185546875,-0.2645263671875,-0.648193359375,-0.18292236328125,7943,-1027,117,-2,0,-1
32301561,0.690185546875,-0.26483154296875,-0.6480712890625,-0.18310546875,7938,-1020,119,-3,0,1
32311543,0.690185546875,-0.2652587890625,-0.64794921875,-0.18310546875,7941,-1037,124,-4,0,2
32321523,0.69012451171875,-0.265869140625,-0.647705078125,-0.18310546875,7953,-1036,127,-4,0,4
32331504,0.69012451171875,-0.26654052734375,-0.6474609375,-0.1829833984375,7948,-1033,142,-4,0,5
32341488,0.69012451171875,-0.26727294921875,-0.64715576171875,-0.18292236328125,7952,-1046,163,-5,-1,4
32351468,0.6900634765625,-0.26800537109375,-0.64691162109375,-0.182861328125,7962,-1068,171,-5,-1,4
32361450,0.6900634765625,-0.26873779296875,-0.64666748046875,-0.18280029296875,7980,-1092,179,-5,-1,4
32371431,0.69000244140625,-0.26947021484375,-0.646484375,-0.1827392578125,8007,-1124,174,-5,-1,4
32381430,0.68994140625,-0.27020263671875,-0.646240234375,-0.1826171875,8027,-1158,164,-4,-1,4
32391411,0.68994140625,-0.2708740234375,-0.64605712890625,-0.182373046875,8055,-1183,156,-3,-1,4
32401393,0.68994140625,-0.27154541015625,-0.6458740234375,-0.1820068359375,8076,-1200,146,-2,-1,5
32411371,0.69000244140625,-0.27215576171875,-0.64569091796875,-0.18157958984375,8110,-1218,131,-2,-1,6
32421353,0.6900634765625,-0.2728271484375,-0.6455078125,-0.180908203125,8151,-1228,107,-1,-1,7
32431344,0.690185546875,-0.2734375,-0.64532470703125,-0.18017578125,8211,-1245,93,1,-1,8
32441320,0.69036865234375,-0.27392578125,-0.64520263671875,-0.1793212890625,8299,-1251,79,1,-1,7
32451307,0.69049072265625,-0.2742919921875,-0.64508056640625,-0.1785888671875,8366,-1257,61,2,-1,6
32461296,0.69061279296875,-0.2744140625,-0.64501953125,-0.17803955078125,8415,-1241,67,2,0,3
32471268,0.69073486328125,-0.27423095703125,-0.64501953125,-0.177734375,8448,-1214,81,3,0,0
32481256,0.69085693359375,-0.27374267578125,-0.6451416015625,-0.177734375,8439,-1177,103,3,1,-3
32491234,0.6910400390625,-0.27294921875,-0.64520263671875,-0.17803955078125,8423,-1128,136,3,1,-6
32501218,0.691162109375,-0.27203369140625,-0.64532470703125,-0.1785888671875,8398,-1107,156,3,2,-8
32511201,0.6912841796875,-0.27099609375,-0.6453857421875,-0.17926025390625,8368,-1094,170,2,3,-9
32521181,0.69146728515625,-0.27001953125,-0.64544677734375,-0.17999267578125,8328,-1092,161,2,3,-10
32531172,0.69158935546875,-0.26904296875,-0.6455078125,-0.1807861328125,8264,-1072,157,1,4,-10
32541155,0.6917724609375,-0.26806640625,-0.64544677734375,-0.181640625,8186,-1053,153,1,4,-9
32551132,0.69189453125,-0.26727294921875,-0.6453857421875,-0.18255615234375,8089,-1025,147,0,4,-9
32561110,0.69207763671875,-0.26654052734375,-0.645263671875,-0.18341064453125,7993,-1001,149,-1,4,-8
32571091,0.6922607421875,-0.2659912109375,-0.64508056640625,-0.1842041015625,7907,-983,151,-2,4,-6
32581073,0.6923828125,-0.2657470703125,-0.64483642578125,-0.184814453125,7842,-985,156,-3,4,-4
32591061,0.69256591796875,-0.26580810546875,-0.64447021484375,-0.185302734375,7788,-983,159,-4,3,-1
32601045,0.6927490234375,-0.26611328125,-0.64410400390625,-0.18560791015625,7773,-994,174,-4,3,2
32611023,0.69293212890625,-0.26678466796875,-0.64361572265625,-0.18572998046875,7781,-1018,184,-6,2,4
32621008,0.69305419921875,-0.26763916015625,-0.64312744140625,-0.185791015625,7802,-1045,176,-6,2,5
32630990,0.693115234375,-0.26861572265625,-0.642578125,-0.185791015625,7803,-1063,189,-7,2,5
32640979,0.69317626953125,-0.26959228515625,-0.64208984375,-0.18597412109375,7780,-1086,195,-8,1,4
32650955,0.693115234375,-0.2706298828125,-0.6416015625,-0.186279296875,7768,-1105,203,-9,1,3
32660937,0.69305419921875,-0.27154541015625,-0.64117431640625,-0.186767578125,7766,-1125,203,-9,1,2
32670920,0.69287109375,-0.2724609375,-0.64080810546875,-0.18719482421875,7776,-1158,200,-9,0,2
32680904,0.69268798828125,-0.27349853515625,-0.6405029296875,-0.18768310546875,7785,-1195,186,-10,0,2
32690886,0.69244384765625,-0.2745361328125,-0.64013671875,-0.1881103515625,7789,-1224,188,-9,0,3
32700872,0.6922607421875,-0.27557373046875,-0.63983154296875,-0.18841552734375,7803,-1261,196,-9,-1,3
32710850,0.6920166015625,-0.27667236328125,-0.6395263671875,-0.18865966796875,7805,-1298,182,-9,-1,3
32720834,0.6917724609375,-0.2777099609375,-0.6392822265625,-0.1888427734375,7811,-1334,189,-8,-1,3
32730816,0.69158935546875,-0.2786865234375,-0.63909912109375,-0.18890380859375,7807,-1344,192,-7,-2,4
32740800,0.69134521484375,-0.2796630859375,-0.638916015625,-0.1888427734375,7815,-1371,190,-6,-2,4
32750783,0.69110107421875,-0.28070068359375,-0.6387939453125,-0.1885986328125,7808,-1404,197,-5,-3,5
32760762,0.69085693359375,-0.2816162109375,-0.63873291015625,-0.188232421875,7808,-1410,200,-4,-4,5
32770756,0.69061279296875,-0.28240966796875,-0.6387939453125,-0.18780517578125,7809,-1459,223,-3,-5,4
32780737,0.6903076171875,-0.2830810546875,-0.63897705078125,-0.1873779296875,7834,-1476,232,-2,-6,3
32790715,0.68994140625,-0.28350830078125,-0.6392822265625,-0.18707275390625,7865,-1507,250,-1,-6,1
32800704,0.68951416015625,-0.28375244140625,-0.63970947265625,-0.186767578125,7901,-1520,245,0,-7,-1
32810680,0.6890869140625,-0.2838134765625,-0.6402587890625,-0.1864013671875,7963,-1529,228,1,-7,-2
32820664,0.6885986328125,-0.28375244140625,-0.640869140625,-0.18603515625,8017,-1530,225,2,-7,-2
32830645,0.68817138671875,-0.28363037109375,-0.6414794921875,-0.185546875,8078,-1518,221,3,-7,-2
32840630,0.6878662109375,-0.283447265625,-0.64208984375,-0.18499755859375,8138,-1508,237,4,-8,-1
32850611,0.6875,-0.28326416015625,-0.64276123046875,-0.18438720703125,8185,-1484,222,5,-7,-1
32860600,0.68719482421875,-0.282958984375,-0.64337158203125,-0.1837158203125,8246,-1466,206,5,-7,-1
32870576,0.68695068359375,-0.28253173828125,-0.64404296875,-0.18310546875,8295,-1441,186,5,-6,-2
32880560,0.68670654296875,-0.281982421875,-0.6446533203125,-0.18255615234375,8335,-1433,160,6,-5,-3
32890544,0.6865234375,-0.28131103515625,-0.645263671875,-0.18218994140625,8373,-1409,141,6,-5,-4
32900524,0.6864013671875,-0.280517578125,-0.6458740234375,-0.181884765625,8407,-1373,123,6,-4,-5
32910508,0.686279296875,-0.2796630859375,-0.64642333984375,-0.18170166015625,8424,-1335,111,6,-3,-5
32920492,0.686279296875,-0.27886962890625,-0.6468505859375,-0.18145751953125,8423,-1304,102,6,-2,-4
32930474,0.68634033203125,-0.278076171875,-0.64715576171875,-0.18133544921875,8410,-1258,105,5,-1,-4
32940458,0.6864013671875,-0.27734375,-0.6473388671875,-0.18115234375,8397,-1223,92,5,-1,-3
32950447,0.68658447265625,-0.27679443359375,-0.64752197265625,-0.18109130859375,8359,-1201,82,4,0,-3
32960424,0.686767578125,-0.2762451171875,-0.64752197265625,-0.1810302734375,8319,-1181,83,3,1,-2
32970415,0.68695068359375,-0.27581787109375,-0.64752197265625,-0.1810302734375,8260,-1158,77,2,1,-2
32980400,0.6871337890625,-0.27545166015625,-0.64739990234375,-0.18115234375,8184,-1132,77,1,2,-2
32990376,0.68731689453125,-0.2752685546875,-0.64727783203125,-0.181396484375,8104,-1109,84,0,2,-2
33000360,0.6875,-0.275146484375,-0.6470947265625,-0.18157958984375,8025,-1087,68,-1,2,-1
33010344,0.6876220703125,-0.2752685546875,-0.64678955078125,-0.1817626953125,7938,-1048,60,-2,2,1
33020324,0.687744140625,-0.2755126953125,-0.64654541015625,-0.181884765625,7843,-1036,60,-3,2,2
33030309,0.6878662109375,-0.27593994140625,-0.646240234375,-0.18206787109375,7755,-1027,53,-4,2,2
33040288,0.68792724609375,-0.27655029296875,-0.6458740234375,-0.18212890625,7707,-1033,38,-5,1,4
33050271,0.68792724609375,-0.27734375,-0.6455078125,-0.18218994140625,7663,-1053,24,-6,1,5
33060253,0.6878662109375,-0.2783203125,-0.64520263671875,-0.18206787109375,7644,-1075,10,-6,0,6
33070234,0.687744140625,-0.27947998046875,-0.64483642578125,-0.181884765625,7626,-1109,-1,-7,-1,8
33080222,0.6876220703125,-0.28070068359375,-0.64453125,-0.18157958984375,7646,-1147,-14,-7,-2,8
33090206,0.6873779296875,-0.28204345703125,-0.644287109375,-0.18121337890625,7665,-1182,-21,-6,-3,9
33100187,0.6871337890625,-0.2833251953125,-0.6441650390625,-0.1807861328125,7685,-1223,-34,-6,-3,8
33110180,0.68682861328125,-0.28460693359375,-0.64404296875,-0.18035888671875,7717,-1276,-41,-6,-4,8
33120161,0.6864013671875,-0.28582763671875,-0.64404296875,-0.17987060546875,7761,-1318,-38,-6,-5,7
33130137,0.68603515625,-0.2869873046875,-0.64410400390625,-0.17938232421875,7823,-1375,-36,-5,-6,7
33140115,0.68560791015625,-0.2880859375,-0.64422607421875,-0.17877197265625,7910,-1431,-32,-4,-6,7
33150097,0.68511962890625,-0.28912353515625,-0.6444091796875,-0.1781005859375,8018,-1471,-42,-3,-7,7
33160081,0.68463134765625,-0.2900390625,-0.64471435546875,-0.17742919921875,8132,-1513,-41,-2,-7,6
33170062,0.6842041015625,-0.29071044921875,-0.64508056640625,-0.17681884765625,8251,-1552,-35,-1,-7,4
33180046,0.6837158203125,-0.2911376953125,-0.6455078125,-0.17633056640625,8362,-1574,-52,-1,-7,1
33190045,0.683349609375,-0.29119873046875,-0.64599609375,-0.176025390625,8444,-1594,-61,1,-6,-1
33200015,0.6829833984375,-0.291015625,-0.646484375,-0.1759033203125,8506,-1589,-71,1,-5,-3
33209993,0.6826171875,-0.2906494140625,-0.64703369140625,-0.17584228515625,8558,-1581,-69,2,-4,-5
33219983,0.68243408203125,-0.29010009765625,-0.64752197265625,-0.1759033203125,8584,-1560,-61,3,-3,-5
33229961,0.6822509765625,-0.28948974609375,-0.64794921875,-0.17596435546875,8599,-1525,-45,3,-3,-6
33239943,0.68218994140625,-0.288818359375,-0.64825439453125,-0.17608642578125,8591,-1486,-16,3,-2,-5
33249929,0.68212890625,-0.2882080078125,-0.6485595703125,-0.17620849609375,8569,-1446,12,3,-1,-5
33259911,0.68212890625,-0.28765869140625,-0.64874267578125,-0.1763916015625,8572,-1416,36,2,-1,-5
33269898,0.68218994140625,-0.28704833984375,-0.64886474609375,-0.17669677734375,8564,-1378,37,2,1,-5
33279876,0.68231201171875,-0.28631591796875,-0.64892578125,-0.17718505859375,8524,-1348,55,1,2,-7
33289857,0.6824951171875,-0.2855224609375,-0.64886474609375,-0.17791748046875,8487,-1308,67,0,3,-9
33299842,0.68267822265625,-0.28460693359375,-0.64886474609375,-0.1788330078125,8414,-1267,85,-1,4,-10
33309824,0.682861328125,-0.28363037109375,-0.64874267578125,-0.17999267578125,8324,-1210,82,-1,5,-11
33319806,0.68304443359375,-0.28265380859375,-0.6485595703125,-0.18133544921875,8226,-1156,82,-2,6,-12
33329790,0.68328857421875,-0.2818603515625,-0.6483154296875,-0.18280029296875,8127,-1109,82,-4,6,-11
33339769,0.68353271484375,-0.28118896484375,-0.64794921875,-0.18414306640625,8008,-1057,66,-4,7,-9
33349760,0.68377685546875,-0.28082275390625,-0.64752197265625,-0.1854248046875,7914,-996,47,-5,7,-6
33359744,0.68402099609375,-0.28082275390625,-0.64691162109375,-0.1864013671875,7837,-954,25,-7,7,-2
33369734,0.684326171875,-0.28125,-0.646240234375,-0.187255859375,7777,-919,-3,-8,7,1
33379705,0.6845703125,-0.281982421875,-0.64544677734375,-0.18780517578125,7721,-904,-32,-8,6,4
33389689,0.68487548828125,-0.28302001953125,-0.64459228515625,-0.188232421875,7689,-899,-48,-9,6,6
33399671,0.68511962890625,-0.28424072265625,-0.6436767578125,-0.18853759765625,7689,-896,-58,-10,5,8
33409655,0.68524169921875,-0.28564453125,-0.642822265625,-0.1888427734375,7730,-896,-72,-11,4,9
33419639,0.685302734375,-0.28704833984375,-0.64202880859375,-0.18914794921875,7814,-924,-71,-11,3,8
33429620,0.685302734375,-0.28851318359375,-0.64129638671875,-0.18939208984375,7947,-947,-79,-12,3,8
33439604,0.68524169921875,-0.2899169921875,-0.640625,-0.18975830078125,8152,-981,-88,-11,2,7
33449586,0.68505859375,-0.29119873046875,-0.64013671875,-0.19024658203125,8428,-1021,-112,-11,1,6
33459569,0.68475341796875,-0.2923583984375,-0.63970947265625,-0.19073486328125,8778,-1048,-148,-10,1,5
33469552,0.68450927734375,-0.29345703125,-0.639404296875,-0.19110107421875,9182,-1028,-171,-9,1,5
33479536,0.68426513671875,-0.29437255859375,-0.63909912109375,-0.19140625,9557,-935,-140,-8,0,7
33489520,0.68414306640625,-0.2950439453125,-0.638916015625,-0.19171142578125,9895,-747,-71,-6,0,6
33499502,0.6839599609375,-0.29534912109375,-0.6387939453125,-0.19219970703125,10149,-494,51,-5,-1,4
33509489,0.6837158203125,-0.2950439453125,-0.63897705078125,-0.1929931640625,10319,-203,154,-3,-2,-1
33519464,0.6832275390625,-0.29400634765625,-0.63958740234375,-0.1943359375,10478,66,253,-2,-4,-8
33529446,0.68231201171875,-0.29217529296875,-0.6407470703125,-0.19647216796875,10651,275,329,-2,-6,-20
33539425,0.68084716796875,-0.289306640625,-0.642578125,-0.19964599609375,10855,435,369,-2,-8,-34
33549418,0.67877197265625,-0.28521728515625,-0.645263671875,-0.2039794921875,11080,558,378,-2,-12,-51
33559402,0.67584228515625,-0.27978515625,-0.6488037109375,-0.209716796875,11320,669,337,-2,-15,-70
33569384,0.67205810546875,-0.2728271484375,-0.6533203125,-0.2169189453125,11586,776,234,-1,-18,-91
33579361,0.6673583984375,-0.2642822265625,-0.65875244140625,-0.2257080078125,11854,930,97,-1,-21,-112
33589348,0.66162109375,-0.25396728515625,-0.6649169921875,-0.23590087890625,12143,1095,-61,0,-24,-133
33599332,0.65496826171875,-0.2420654296875,-0.6717529296875,-0.24737548828125,12412,1277,-227,1,-26,-153
33609314,0.6473388671875,-0.22869873046875,-0.67901611328125,-0.25994873046875,12634,1486,-386,2,-28,-170
33619298,0.638916015625,-0.2138671875,-0.6865234375,-0.27337646484375,12804,1710,-554,4,-29,-185
33629279,0.62957763671875,-0.197998046875,-0.69415283203125,-0.28741455078125,12963,1925,-731,5,-30,-197
33639263,0.61956787109375,-0.18121337890625,-0.70159912109375,-0.30169677734375,13082,2140,-915,6,-31,-207
33649250,0.60888671875,-0.16375732421875,-0.7088623046875,-0.316162109375,13137,2342,-1121,7,-31,-214
33659232,0.59765625,-0.1458740234375,-0.7158203125,-0.33050537109375,13100,2563,-1281,7,-32,-218
33669220,0.58599853515625,-0.12762451171875,-0.72222900390625,-0.34466552734375,12956,2775,-1387,8,-31,-220
33679202,0.57403564453125,-0.1092529296875,-0.72802734375,-0.35858154296875,12712,2975,-1453,8,-30,-222
33689181,0.56170654296875,-0.09063720703125,-0.7332763671875,-0.37225341796875,12304,3151,-1481,8,-30,-223
33699174,0.549072265625,-0.07177734375,-0.7379150390625,-0.3858642578125,11757,3279,-1462,8,-29,-227
33709158,0.5360107421875,-0.05255126953125,-0.741943359375,-0.39935302734375,11157,3343,-1415,8,-27,-230
33719134,0.52264404296875,-0.03302001953125,-0.7452392578125,-0.41278076171875,10523,3390,-1344,7,-26,-233
33729111,0.5089111328125,-0.01324462890625,-0.74786376953125,-0.4261474609375,9896,3435,-1276,7,-25,-235
33739092,0.494873046875,0.00665283203125,-0.749755859375,-0.4393310546875,9263,3499,-1157,6,-24,-235
33749076,0.48065185546875,0.0262451171875,-0.75091552734375,-0.4521484375,8658,3588,-1040,5,-24,-232
33759059,0.466552734375,0.04522705078125,-0.75140380859375,-0.4644775390625,8108,3669,-926,3,-23,-225
33769045,0.45281982421875,0.063232421875,-0.751220703125,-0.47613525390625,7642,3748,-844,1,-22,-215
33779027,0.43951416015625,0.08001708984375,-0.75054931640625,-0.4869384765625,7255,3831,-796,-1,-22,-203
33789007,0.42694091796875,0.09527587890625,-0.74957275390625,-0.496826171875,6970,3941,-813,-2,-21,-188
33798990,0.415283203125,0.10894775390625,-0.74835205078125,-0.50567626953125,6748,4075,-847,-4,-21,-171
33808979,0.40460205078125,0.1209716796875,-0.74688720703125,-0.513671875,6586,4207,-907,-6,-20,-155
33818954,0.394775390625,0.131591796875,-0.745361328125,-0.5208740234375,6460,4344,-968,-8,-19,-142
33828939,0.38568115234375,0.141357421875,-0.74359130859375,-0.527587890625,6370,4482,-1050,-9,-17,-133
33838921,0.37701416015625,0.1505126953125,-0.74163818359375,-0.53399658203125,6303,4626,-1153,-11,-16,-130
33848903,0.36846923828125,0.15966796875,-0.73944091796875,-0.5404052734375,6179,4792,-1227,-13,-14,-130
33858886,0.35980224609375,0.16900634765625,-0.73681640625,-0.54693603515625,6032,4966,-1274,-14,-13,-133
33868872,0.35089111328125,0.1788330078125,-0.7337646484375,-0.55364990234375,5901,5168,-1318,-16,-11,-139
33878852,0.3416748046875,0.189208984375,-0.730224609375,-0.560546875,5807,5402,-1386,-17,-10,-145
33888836,0.3321533203125,0.2000732421875,-0.726318359375,-0.567626953125,5709,5662,-1459,-18,-8,-150
33898818,0.32232666015625,0.21136474609375,-0.721923828125,-0.57476806640625,5567,5946,-1518,-20,-7,-156
33908801,0.31219482421875,0.22308349609375,-0.717041015625,-0.5819091796875,5356,6234,-1570,-20,-5,-159
33918784,0.3017578125,0.23529052734375,-0.711669921875,-0.58917236328125,5020,6479,-1587,-22,-4,-163
33928764,0.2908935546875,0.247802734375,-0.70574951171875,-0.59661865234375,4648,6688,-1557,-23,-4,-169
33938756,0.27960205078125,0.26068115234375,-0.69927978515625,-0.6041259765625,4247,6886,-1524,-25,-4,-172
33948740,0.26800537109375,0.273681640625,-0.69232177734375,-0.611572265625,3785,7041,-1473,-25,-4,-174
33958715,0.25616455078125,0.28656005859375,-0.68499755859375,-0.618896484375,3317,7142,-1388,-26,-5,-174
33968700,0.2440185546875,0.29931640625,-0.67730712890625,-0.626220703125,2817,7191,-1269,-26,-6,-175
33978682,0.23162841796875,0.31201171875,-0.66925048828125,-0.63336181640625,2300,7170,-1133,-26,-7,-175
33988666,0.21881103515625,0.32464599609375,-0.66082763671875,-0.640380859375,1730,7107,-981,-26,-8,-177
33998648,0.20556640625,0.33721923828125,-0.65203857421875,-0.64727783203125,1150,6987,-792,-26,-9,-177
34008631,0.1920166015625,0.349609375,-0.642822265625,-0.65399169921875,574,6824,-586,-25,-11,-177
34018613,0.17822265625,0.36163330078125,-0.63336181640625,-0.6605224609375,15,6605,-358,-25,-12,-175
34028596,0.16448974609375,0.37310791015625,-0.623779296875,-0.6668701171875,-528,6327,-141,-25,-14,-171
34038580,0.15081787109375,0.38397216796875,-0.6141357421875,-0.6728515625,-1042,5967,67,-24,-16,-165
34048563,0.13739013671875,0.39404296875,-0.60443115234375,-0.67864990234375,-1538,5536,269,-25,-18,-157
34058544,0.12451171875,0.4031982421875,-0.594970703125,-0.68408203125,-1963,5053,432,-25,-19,-147
34068529,0.11248779296875,0.41119384765625,-0.58587646484375,-0.689208984375,-2320,4527,572,-25,-20,-132
34078511,0.1016845703125,0.41802978515625,-0.57733154296875,-0.69403076171875,-2557,4001,669,-25,-21,-117
34088494,0.09228515625,0.423583984375,-0.5694580078125,-0.69842529296875,-2686,3516,746,-26,-19,-100
34098478,0.0845947265625,0.42803955078125,-0.56219482421875,-0.7025146484375,-2698,3071,804,-28,-17,-84
34108461,0.0787353515625,0.4315185546875,-0.55560302734375,-0.70635986328125,-2626,2660,846,-31,-14,-66
34118444,0.07489013671875,0.43408203125,-0.54949951171875,-0.7099609375,-2519,2252,897,-34,-9,-49
34128430,0.0732421875,0.435791015625,-0.54388427734375,-0.71337890625,-2439,1863,940,-39,-3,-30
34138416,0.0738525390625,0.436767578125,-0.53887939453125,-0.716552734375,-2416,1472,982,-43,3,-10
34148399,0.076904296875,0.43682861328125,-0.5345458984375,-0.71942138671875,-2434,1059,984,-46,10,14
34158373,0.0826416015625,0.43597412109375,-0.53131103515625,-0.72174072265625,-2517,668,938,-48,16,39
34168355,0.0908203125,0.4339599609375,-0.52923583984375,-0.72344970703125,-2662,309,870,-48,21,66
34178344,0.10125732421875,0.4307861328125,-0.5284423828125,-0.7244873046875,-2858,-14,775,-46,24,90
34188321,0.11346435546875,0.4266357421875,-0.5289306640625,-0.724853515625,-3087,-302,698,-43,27,110
34198305,0.1268310546875,0.42156982421875,-0.5303955078125,-0.7244873046875,-3322,-514,635,-38,27,126
34208288,0.1409912109375,0.41571044921875,-0.532958984375,-0.723388671875,-3510,-603,546,-33,27,138
34218274,0.155517578125,0.4091796875,-0.5362548828125,-0.7216796875,-3685,-591,452,-28,24,145
34228257,0.1700439453125,0.4019775390625,-0.540283203125,-0.719482421875,-3778,-492,370,-23,21,150
34238237,0.1844482421875,0.39410400390625,-0.54498291015625,-0.71673583984375,-3792,-329,293,-17,17,154
34248230,0.1986083984375,0.3853759765625,-0.55029296875,-0.713623046875,-3784,-127,253,-13,11,158
34258211,0.21246337890625,0.3759765625,-0.55615234375,-0.7100830078125,-3744,121,256,-8,5,161
34268200,0.22576904296875,0.36566162109375,-0.5625,-0.70635986328125,-3599,411,295,-4,-2,163
34278183,0.23876953125,0.35430908203125,-0.56939697265625,-0.70233154296875,-3310,704,316,0,-10,166
34288168,0.25152587890625,0.34185791015625,-0.576904296875,-0.69793701171875,-2919,1043,333,3,-17,169
34298147,0.26422119140625,0.32818603515625,-0.58502197265625,-0.6929931640625,-2403,1395,320,7,-24,176
34308117,0.2769775390625,0.31329345703125,-0.5938720703125,-0.6873779296875,-1833,1770,291,11,-29,183
34318101,0.2899169921875,0.2972412109375,-0.60333251953125,-0.680908203125,-1181,2207,250,15,-34,189
34328083,0.30291748046875,0.28033447265625,-0.61322021484375,-0.67352294921875,-429,2713,172,19,-37,194
34338067,0.31573486328125,0.262939453125,-0.623291015625,-0.6654052734375,325,3261,121,22,-38,193
34348051,0.3280029296875,0.24554443359375,-0.63311767578125,-0.65673828125,1163,3855,96,25,-39,188
34358033,0.3397216796875,0.228271484375,-0.64263916015625,-0.647705078125,2150,4462,43,26,-39,181
34368019,0.3514404296875,0.21087646484375,-0.6519775390625,-0.637939453125,3180,5085,-95,28,-37,182
34378002,0.3636474609375,0.193115234375,-0.66131591796875,-0.6270751953125,4167,5701,-253,31,-33,189
34387990,0.37640380859375,0.175048828125,-0.67034912109375,-0.6151123046875,4953,6309,-368,33,-29,197
34397972,0.3892822265625,0.1571044921875,-0.6788330078125,-0.60247802734375,5591,6849,-402,35,-26,196
34407950,0.4013671875,0.14019775390625,-0.6864013671875,-0.59002685546875,6134,7331,-400,35,-23,183
34417932,0.41192626953125,0.12518310546875,-0.6929931640625,-0.57830810546875,6659,7778,-405,33,-20,162
34427913,0.42108154296875,0.11212158203125,-0.69866943359375,-0.5675048828125,7051,8188,-423,32,-17,142
34437897,0.42901611328125,0.10089111328125,-0.7034912109375,-0.5576171875,7227,8477,-391,31,-13,125
34447879,0.43603515625,0.0911865234375,-0.70745849609375,-0.5487060546875,7291,8632,-306,29,-10,111
34457862,0.4425048828125,0.08270263671875,-0.7108154296875,-0.54046630859375,7306,8769,-271,27,-7,102
34467845,0.44866943359375,0.07476806640625,-0.7137451171875,-0.53265380859375,7221,8893,-162,26,-5,100
34477828,0.454833984375,0.06695556640625,-0.7161865234375,-0.525146484375,7278,8942,-65,23,-4,98
34487809,0.4610595703125,0.05902099609375,-0.71826171875,-0.5177001953125,7319,8948,-17,20,-3,99
34497791,0.46746826171875,0.05096435546875,-0.719970703125,-0.510498046875,7453,8895,-24,17,-1,101
34507778,0.47430419921875,0.04229736328125,-0.7213134765625,-0.5029296875,7672,8806,-112,14,2,108
34517764,0.48193359375,0.03271484375,-0.72247314453125,-0.49468994140625,7714,8664,-186,13,4,121
34527747,0.49017333984375,0.02252197265625,-0.7232666015625,-0.4859619140625,7604,8443,-189,12,6,129
34537730,0.49810791015625,0.0126953125,-0.72369384765625,-0.4775390625,7329,8240,-135,11,7,122
34547708,0.50482177734375,0.0045166015625,-0.7237548828125,-0.470458984375,6956,8028,32,9,6,102
34557690,0.510009765625,-0.001708984375,-0.72344970703125,-0.46533203125,6816,7772,192,5,4,76
34567673,0.5137939453125,-0.00653076171875,-0.7230224609375,-0.46185302734375,6797,7538,271,0,2,56
34577655,0.51690673828125,-0.01080322265625,-0.72235107421875,-0.45928955078125,6859,7300,269,-4,2,49
34587636,0.52044677734375,-0.015869140625,-0.72149658203125,-0.45648193359375,7099,7007,190,-8,4,59
34597620,0.52532958984375,-0.02288818359375,-0.7203369140625,-0.45233154296875,7310,6665,72,-10,6,82
34607601,0.53192138671875,-0.0323486328125,-0.71881103515625,-0.44647216796875,7411,6279,-15,-11,9,110
34617585,0.53985595703125,-0.0435791015625,-0.71685791015625,-0.43914794921875,7326,5849,-24,-12,12,129
34627569,0.548095703125,-0.05523681640625,-0.7144775390625,-0.43145751953125,7014,5409,49,-12,13,132
34637551,0.55572509765625,-0.0660400390625,-0.71173095703125,-0.424560546875,6745,4906,166,-14,13,118
34647536,0.5623779296875,-0.07550048828125,-0.708984375,-0.41888427734375,6920,4384,209,-16,12,98
34657517,0.568115234375,-0.08428955078125,-0.70635986328125,-0.413818359375,7499,4018,65,-17,11,87
34667501,0.57379150390625,-0.093505859375,-0.70379638671875,-0.4083251953125,8199,3868,-187,-17,10,96
34677483,0.58026123046875,-0.1043701171875,-0.701171875,-0.4010009765625,9002,3835,-499,-14,11,121
34687466,0.58819580078125,-0.11785888671875,-0.6981201171875,-0.390869140625,9915,3803,-775,-11,12,156
34697449,0.59759521484375,-0.133544921875,-0.69439697265625,-0.3779296875,10724,3670,-929,-7,14,185
34707431,0.60748291015625,-0.15020751953125,-0.69012451171875,-0.363525390625,11388,3513,-1009,-3,15,195
34717421,0.61676025390625,-0.16583251953125,-0.68560791015625,-0.349365234375,11877,3389,-977,-1,14,183
34727409,0.6246337890625,-0.17901611328125,-0.681396484375,-0.33697509765625,12176,3286,-877,0,14,155
34737390,0.63067626953125,-0.18878173828125,-0.67779541015625,-0.32745361328125,12348,3222,-759,1,13,115
34747366,0.6348876953125,-0.195068359375,-0.67510986328125,-0.3211669921875,12432,3216,-648,1,12,74
34757348,0.63739013671875,-0.197998046875,-0.67340087890625,-0.3179931640625,12436,3263,-553,1,11,36
34767331,0.63861083984375,-0.1983642578125,-0.6724853515625,-0.3172607421875,12366,3397,-493,1,10,9
34777313,0.63897705078125,-0.19708251953125,-0.672119140625,-0.31805419921875,12246,3604,-450,1,10,-6
34787292,0.638916015625,-0.1951904296875,-0.672119140625,-0.3193359375,12115,3860,-398,2,8,-9
34797275,0.63897705078125,-0.193359375,-0.672119140625,-0.32037353515625,11924,4123,-316,3,8,-4
34807264,0.63916015625,-0.1920166015625,-0.6719970703125,-0.3209228515625,11688,4336,-201,4,6,2
34817240,0.639404296875,-0.19091796875,-0.6719970703125,-0.3211669921875,11411,4533,-85,4,4,4
34827235,0.63934326171875,-0.18939208984375,-0.67218017578125,-0.32183837890625,11058,4689,52,4,3,-3
34837212,0.63861083984375,-0.18682861328125,-0.6727294921875,-0.32354736328125,10663,4829,223,3,0,-18
34847200,0.636962890625,-0.1827392578125,-0.673828125,-0.32696533203125,10246,4930,389,2,-2,-40
34857181,0.6341552734375,-0.17694091796875,-0.6754150390625,-0.3321533203125,9902,5006,529,1,-4,-63
34867168,0.63031005859375,-0.16973876953125,-0.67755126953125,-0.33892822265625,9646,5070,613,0,-7,-82
34877149,0.62567138671875,-0.16156005859375,-0.67999267578125,-0.34649658203125,9468,5158,629,0,-8,-92
34887119,0.62060546875,-0.1531982421875,-0.68255615234375,-0.354248046875,9375,5242,594,0,-10,-94
34897102,0.6156005859375,-0.14520263671875,-0.68505859375,-0.36151123046875,9396,5309,533,1,-10,-89
34907085,0.61077880859375,-0.13787841796875,-0.6875,-0.36785888671875,9499,5356,443,2,-11,-80
34917070,0.6063232421875,-0.13134765625,-0.68975830078125,-0.3734130859375,9673,5390,340,3,-11,-72
34927055,0.6021728515625,-0.12530517578125,-0.69189453125,-0.378173828125,9917,5422,214,5,-11,-67
34937037,0.59808349609375,-0.1195068359375,-0.694091796875,-0.38250732421875,10208,5451,44,6,-10,-66
34947019,0.59393310546875,-0.11328125,-0.6962890625,-0.3868408203125,10498,5498,-100,8,-9,-71
34957002,0.58935546875,-0.10614013671875,-0.6986083984375,-0.39166259765625,10736,5543,-206,10,-8,-83
34966990,0.5841064453125,-0.09747314453125,-0.7010498046875,-0.3973388671875,10915,5602,-310,11,-7,-100
34976972,0.57806396484375,-0.087158203125,-0.70355224609375,-0.4041748046875,10999,5677,-392,13,-6,-119
34986950,0.571044921875,-0.0751953125,-0.70611572265625,-0.41192626953125,10984,5781,-459,14,-6,-135
34996933,0.563232421875,-0.06207275390625,-0.70867919921875,-0.42041015625,10904,5885,-521,15,-6,-148
35006914,0.554931640625,-0.04815673828125,-0.71112060546875,-0.4290771484375,10753,6012,-573,17,-6,-154
35016897,0.5462646484375,-0.03387451171875,-0.71331787109375,-0.437744140625,10542,6134,-595,18,-6,-157
35026880,0.537353515625,-0.01959228515625,-0.71539306640625,-0.44622802734375,10293,6265,-609,18,-7,-157
35036864,0.52838134765625,-0.00537109375,-0.71722412109375,-0.454345703125,10053,6383,-625,19,-7,-156
35046849,0.51922607421875,0.0087890625,-0.71881103515625,-0.46221923828125,9788,6479,-620,19,-7,-155
35056833,0.50994873046875,0.0228271484375,-0.72015380859375,-0.469970703125,9557,6567,-645,19,-8,-156
35066815,0.50048828125,0.03692626953125,-0.72125244140625,-0.4774169921875,9375,6661,-664,20,-8,-158
35076799,0.4908447265625,0.05108642578125,-0.72216796875,-0.4847412109375,9142,6782,-665,20,-8,-158
35086781,0.48101806640625,0.06524658203125,-0.72271728515625,-0.49200439453125,8916,6877,-656,19,-8,-160
35096762,0.4708251953125,0.07958984375,-0.7230224609375,-0.499267578125,8658,6994,-634,19,-8,-163
35106753,0.46026611328125,0.09405517578125,-0.722900390625,-0.5067138671875,8391,7123,-615,17,-9,-167
35116736,0.44940185546875,0.10845947265625,-0.72247314453125,-0.51409912109375,8213,7278,-628,16,-10,-168
35126713,0.4383544921875,0.12249755859375,-0.7218017578125,-0.52142333984375,8018,7419,-648,15,-11,-167
35136695,0.42724609375,0.13623046875,-0.72088623046875,-0.52850341796875,7894,7536,-709,13,-12,-166
35146678,0.416015625,0.149658203125,-0.7196044921875,-0.53546142578125,7721,7645,-772,11,-12,-166
35156660,0.40472412109375,0.16290283203125,-0.71795654296875,-0.54241943359375,7488,7739,-837,9,-13,-165
35166643,0.3931884765625,0.17608642578125,-0.7159423828125,-0.54937744140625,7206,7795,-882,7,-13,-167
35176630,0.38134765625,0.1893310546875,-0.7135009765625,-0.55657958984375,6920,7779,-896,5,-14,-172
35186609,0.3690185546875,0.2027587890625,-0.71051025390625,-0.56390380859375,6561,7739,-933,3,-14,-177
35196588,0.35614013671875,0.216552734375,-0.7069091796875,-0.57147216796875,6147,7665,-958,0,-14,-182
35206573,0.3427734375,0.23052978515625,-0.7027587890625,-0.57928466796875,5741,7567,-956,-2,-15,-186
35216554,0.3292236328125,0.244384765625,-0.69805908203125,-0.58709716796875,5329,7479,-943,-5,-15,-187
35226537,0.315673828125,0.2578125,-0.69293212890625,-0.59478759765625,4923,7388,-937,-7,-16,-183
35236523,0.30242919921875,0.27056884765625,-0.6875,-0.602294921875,4509,7278,-878,-10,-16,-178
35246504,0.28955078125,0.2825927734375,-0.681640625,-0.6097412109375,4092,7138,-789,-14,-17,-173
35256488,0.2769775390625,0.29400634765625,-0.6754150390625,-0.61700439453125,3711,6954,-725,-17,-17,-168
35266468,0.2647705078125,0.30499267578125,-0.6688232421875,-0.6241455078125,3383,6771,-690,-20,-16,-164
35276452,0.2528076171875,0.3155517578125,-0.66192626953125,-0.6312255859375,3049,6557,-657,-23,-15,-161
35286433,0.24114990234375,0.32586669921875,-0.65460205078125,-0.6380615234375,2699,6281,-587,-24,-14,-159
35296423,0.22943115234375,0.336181640625,-0.64678955078125,-0.64501953125,2297,5950,-478,-27,-13,-160
35306407,0.21759033203125,0.3466796875,-0.638427734375,-0.65191650390625,1875,5597,-398,-29,-11,-161
35316389,0.2056884765625,0.35711669921875,-0.629638671875,-0.65863037109375,1459,5248,-304,-30,-10,-161
35326365,0.194091796875,0.3671875,-0.62060546875,-0.6651611328125,1030,4873,-217,-31,-9,-155
35336349,0.1829833984375,0.37677001953125,-0.611572265625,-0.6712646484375,580,4492,-104,-32,-8,-147
35346333,0.172607421875,0.3856201171875,-0.60260009765625,-0.6771240234375,110,4109,42,-32,-8,-136
35356315,0.1629638671875,0.39361572265625,-0.59381103515625,-0.6826171875,-370,3741,192,-33,-8,-125
35366298,0.1541748046875,0.4007568359375,-0.58526611328125,-0.68780517578125,-857,3373,360,-33,-7,-113
35376287,0.14630126953125,0.40716552734375,-0.57696533203125,-0.69281005859375,-1337,3008,534,-34,-7,-100
35386265,0.13934326171875,0.41265869140625,-0.56903076171875,-0.697509765625,-1773,2646,712,-34,-6,-88
35396250,0.13348388671875,0.41729736328125,-0.56146240234375,-0.7020263671875,-2160,2308,905,-35,-6,-75
35406237,0.12860107421875,0.42120361328125,-0.55426025390625,-0.70635986328125,-2507,1990,1082,-36,-5,-63
35416220,0.124755859375,0.4244384765625,-0.54730224609375,-0.71051025390625,-2840,1710,1235,-38,-3,-53
35426200,0.1219482421875,0.4271240234375,-0.54058837890625,-0.7144775390625,-3134,1427,1365,-40,-2,-42
35436187,0.12042236328125,0.42919921875,-0.53411865234375,-0.7183837890625,-3388,1156,1470,-42,1,-29
35446173,0.1204833984375,0.430419921875,-0.52825927734375,-0.72198486328125,-3591,884,1546,-45,3,-12
35456160,0.12249755859375,0.43060302734375,-0.52313232421875,-0.7252197265625,-3762,637,1568,-46,6,9
35466134,0.126708984375,0.4296875,-0.51898193359375,-0.72802734375,-3928,421,1566,-48,8,32
35476111,0.13299560546875,0.4276123046875,-0.515869140625,-0.7303466796875,-4082,229,1535,-48,11,53
35486095,0.14105224609375,0.4246826171875,-0.513671875,-0.73211669921875,-4181,77,1489,-48,13,70
35496079,0.15045166015625,0.4208984375,-0.51214599609375,-0.7333984375,-4175,-11,1429,-47,15,84
35506061,0.16094970703125,0.41656494140625,-0.51141357421875,-0.73419189453125,-4087,-18,1322,-45,16,94
35516045,0.17254638671875,0.41162109375,-0.51141357421875,-0.734375,-3946,-1,1208,-44,18,106
35526027,0.18511962890625,0.406005859375,-0.51220703125,-0.73388671875,-3795,78,1102,-41,19,117
35536012,0.19873046875,0.3997802734375,-0.51373291015625,-0.732666015625,-3658,186,1010,-37,20,129
35545994,0.2130126953125,0.3929443359375,-0.51605224609375,-0.730712890625,-3534,337,921,-33,21,138
35555984,0.22772216796875,0.38568115234375,-0.5189208984375,-0.7281494140625,-3428,521,860,-30,20,144
35565968,0.242431640625,0.37786865234375,-0.522216796875,-0.72509765625,-3267,718,870,-26,17,147
35575944,0.257080078125,0.36956787109375,-0.52593994140625,-0.72161865234375,-3056,962,874,-22,14,150
35585927,0.271484375,0.36065673828125,-0.53021240234375,-0.71771240234375,-2856,1240,865,-18,10,153
35595909,0.28582763671875,0.35101318359375,-0.53509521484375,-0.71331787109375,-2586,1553,836,-14,5,158
35605894,0.30035400390625,0.34033203125,-0.54071044921875,-0.708251953125,-2254,1878,823,-10,0,165
35615876,0.31500244140625,0.32861328125,-0.54705810546875,-0.70257568359375,-1898,2216,797,-6,-5,173
35625856,0.32958984375,0.31585693359375,-0.55413818359375,-0.69610595703125,-1449,2592,753,-2,-11,179
35635842,0.3441162109375,0.3021240234375,-0.56182861328125,-0.68896484375,-861,3038,686,2,-16,184
35645823,0.35858154296875,0.28729248046875,-0.57025146484375,-0.68096923828125,-106,3505,601,5,-22,189
35655806,0.37298583984375,0.271484375,-0.5791015625,-0.67218017578125,660,3960,518,8,-26,193
35665788,0.386962890625,0.25531005859375,-0.5880126953125,-0.662841796875,1340,4358,441,10,-28,191
35675767,0.4000244140625,0.23931884765625,-0.5966796875,-0.6531982421875,2077,4715,330,12,-30,183
35685760,0.41229248046875,0.2237548828125,-0.60504150390625,-0.64337158203125,2844,5084,240,14,-29,175
35695743,0.42388916015625,0.2083740234375,-0.61309814453125,-0.63323974609375,3608,5429,179,16,-29,171
35705719,0.43511962890625,0.19305419921875,-0.6209716796875,-0.622802734375,4321,5731,106,17,-29,169
35715701,0.446044921875,0.17779541015625,-0.6285400390625,-0.61187744140625,4874,5941,72,18,-28,169
35725688,0.45684814453125,0.16265869140625,-0.6357421875,-0.6005859375,5457,6117,23,19,-27,169
35735680,0.4676513671875,0.14727783203125,-0.6427001953125,-0.58868408203125,6030,6302,7,20,-25,172
35745660,0.47857666015625,0.13165283203125,-0.64923095703125,-0.57635498046875,6612,6456,15,20,-24,174
35755642,0.4892578125,0.11627197265625,-0.65521240234375,-0.56378173828125,6991,6547,13,19,-22,172
35765630,0.49908447265625,0.101806640625,-0.66046142578125,-0.55169677734375,7231,6563,68,19,-21,161
35775608,0.5078125,0.08856201171875,-0.6650390625,-0.5404052734375,7413,6574,112,18,-19,146
35785591,0.5155029296875,0.0765380859375,-0.6689453125,-0.530029296875,7534,6562,221,16,-18,133
35795573,0.52252197265625,0.0653076171875,-0.67230224609375,-0.52032470703125,7777,6549,275,14,-17,124
35805555,0.52935791015625,0.05419921875,-0.67529296875,-0.51080322265625,7920,6584,338,12,-16,124
35815538,0.53631591796875,0.04302978515625,-0.67779541015625,-0.501220703125,7990,6574,415,10,-14,128
35825521,0.54345703125,0.0313720703125,-0.67987060546875,-0.49139404296875,8066,6513,459,8,-13,133
35835504,0.55078125,0.01922607421875,-0.681640625,-0.4813232421875,8079,6439,534,6,-13,140
35845487,0.55828857421875,0.00653076171875,-0.6829833984375,-0.47100830078125,8143,6288,591,4,-13,144
35855469,0.56573486328125,-0.0064697265625,-0.68402099609375,-0.46044921875,8113,6104,635,2,-13,146
35865453,0.57281494140625,-0.01910400390625,-0.68463134765625,-0.4503173828125,7961,5873,761,1,-13,141
35875432,0.57940673828125,-0.03118896484375,-0.684814453125,-0.44091796875,7906,5587,842,-2,-12,132
35885422,0.58544921875,-0.0426025390625,-0.6846923828125,-0.43212890625,7878,5314,902,-4,-11,124
35895404,0.5911865234375,-0.05377197265625,-0.6842041015625,-0.42364501953125,7943,5018,899,-5,-10,121
35905388,0.59698486328125,-0.06512451171875,-0.68353271484375,-0.4149169921875,8106,4725,851,-6,-9,125
35915364,0.60308837890625,-0.0771484375,-0.6826171875,-0.4053955078125,8307,4424,778,-6,-8,134
35925348,0.60955810546875,-0.09002685546875,-0.6815185546875,-0.3948974609375,8549,4109,706,-4,-8,144
35935332,0.6162109375,-0.10345458984375,-0.68011474609375,-0.38348388671875,8746,3817,660,-3,-8,152
35945314,0.62274169921875,-0.116943359375,-0.678466796875,-0.37176513671875,8893,3531,665,-2,-9,152
35955296,0.628662109375,-0.1300048828125,-0.67681884765625,-0.3602294921875,9139,3220,609,-2,-11,145
35965281,0.63372802734375,-0.14227294921875,-0.6754150390625,-0.34918212890625,9509,2934,468,-1,-13,135
35975266,0.63800048828125,-0.15399169921875,-0.67431640625,-0.33843994140625,10078,2708,232,0,-15,129
35985250,0.641845703125,-0.1658935546875,-0.67340087890625,-0.3271484375,10892,2555,-85,2,-18,135
35995236,0.64581298828125,-0.1787109375,-0.6724853515625,-0.31439208984375,11791,2444,-384,5,-20,150
36005221,0.64996337890625,-0.19268798828125,-0.6712646484375,-0.29986572265625,12581,2328,-600,8,-22,168
36015201,0.65411376953125,-0.20703125,-0.66961669921875,-0.284423828125,13105,2162,-652,10,-24,173
36025182,0.65771484375,-0.22021484375,-0.66796875,-0.269775390625,13406,1988,-576,11,-25,158
36037989,0.66021728515625,-0.23114013671875,-0.666748046875,-0.2572021484375,13563,1774,-526,11,-25,129
36045156,0.6614990234375,-0.2391357421875,-0.6663818359375,-0.24737548828125,13619,1593,-483,11,-25,94
36055131,0.6617431640625,-0.24420166015625,-0.6668701171875,-0.240478515625,13483,1492,-460,12,-25,60
36065107,0.66107177734375,-0.24652099609375,-0.668212890625,-0.23602294921875,13134,1482,-393,13,-24,31
36075089,0.659912109375,-0.246826171875,-0.67022705078125,-0.23345947265625,12630,1505,-302,14,-24,10
36085071,0.65838623046875,-0.2454833984375,-0.67254638671875,-0.23236083984375,12037,1552,-141,15,-22,-6
36095048,0.65667724609375,-0.2427978515625,-0.6751708984375,-0.23248291015625,11375,1600,42,14,-22,-22
36105032,0.6546630859375,-0.23895263671875,-0.677978515625,-0.23388671875,10784,1657,201,14,-20,-35
36115015,0.6524658203125,-0.2342529296875,-0.68096923828125,-0.23614501953125,10295,1735,330,13,-19,-42
36124999,0.650390625,-0.2294921875,-0.6837158203125,-0.23858642578125,9858,1824,445,13,-17,-42
36134986,0.6485595703125,-0.22540283203125,-0.68609619140625,-0.24053955078125,9513,1887,536,12,-16,-33
36144969,0.647216796875,-0.222412109375,-0.68798828125,-0.2415771484375,9252,1894,588,11,-15,-19
36154946,0.6463623046875,-0.2208251953125,-0.6893310546875,-0.241455078125,9108,1851,622,10,-13,-3
36164933,0.6461181640625,-0.22052001953125,-0.69012451171875,-0.24017333984375,9026,1762,604,9,-12,10
36174913,0.64630126953125,-0.2210693359375,-0.69049072265625,-0.23822021484375,8986,1643,564,9,-9,18
36184896,0.64666748046875,-0.221923828125,-0.6905517578125,-0.2359619140625,8962,1511,504,9,-7,21
36194879,0.64727783203125,-0.22271728515625,-0.6905517578125,-0.23370361328125,9022,1373,398,9,-5,19
36204857,0.64801025390625,-0.223388671875,-0.6903076171875,-0.23162841796875,9115,1256,284,9,-2,18
36214847,0.64886474609375,-0.223876953125,-0.69000244140625,-0.2296142578125,9210,1181,183,9,1,18
36224824,0.64996337890625,-0.2242431640625,-0.68951416015625,-0.227783203125,9278,1140,126,9,3,17
36234806,0.65106201171875,-0.2244873046875,-0.68890380859375,-0.22613525390625,9309,1106,72,9,5,15
36244790,0.65228271484375,-0.224365234375,-0.688232421875,-0.2247314453125,9298,1088,49,9,6,13
36254778,0.653564453125,-0.22412109375,-0.6875,-0.22369384765625,9222,1070,33,8,8,10
36264762,0.65472412109375,-0.2236328125,-0.686767578125,-0.2230224609375,9133,1082,15,6,8,7
36274744,0.6558837890625,-0.2230224609375,-0.68597412109375,-0.22265625,9046,1121,12,5,9,5
36284728,0.656982421875,-0.22247314453125,-0.68511962890625,-0.22259521484375,8960,1149,3,3,10,5
36294704,0.6580810546875,-0.22210693359375,-0.68414306640625,-0.22265625,8862,1169,-23,1,10,5
36304687,0.65911865234375,-0.22198486328125,-0.68316650390625,-0.2227783203125,8789,1181,-60,0,11,6
36314671,0.66015625,-0.2220458984375,-0.68206787109375,-0.22296142578125,8730,1194,-108,-2,12,8
36324651,0.6612548828125,-0.22216796875,-0.680908203125,-0.22320556640625,8693,1176,-135,-3,12,7
36334633,0.662353515625,-0.22235107421875,-0.67962646484375,-0.22357177734375,8645,1120,-123,-4,12,6
36344617,0.66339111328125,-0.222412109375,-0.67840576171875,-0.22418212890625,8616,1055,-95,-5,13,3
36354602,0.664306640625,-0.2222900390625,-0.67724609375,-0.22515869140625,8581,972,-67,-6,12,-1
36364582,0.66510009765625,-0.221923828125,-0.67608642578125,-0.2264404296875,8543,890,-51,-7,13,-5
36374564,0.66583251953125,-0.22137451171875,-0.675048828125,-0.22808837890625,8492,813,-59,-7,13,-8
36384547,0.6663818359375,-0.22052001953125,-0.674072265625,-0.2301025390625,8437,741,-71,-8,13,-12
36394529,0.6668701171875,-0.21954345703125,-0.67315673828125,-0.23223876953125,8377,693,-80,-8,13,-14
36404515,0.66729736328125,-0.2186279296875,-0.6722412109375,-0.2344970703125,8313,641,-77,-9,13,-14
36414495,0.66778564453125,-0.2176513671875,-0.67132568359375,-0.23675537109375,8250,605,-67,-8,13,-14
36424480,0.668212890625,-0.216796875,-0.67041015625,-0.23883056640625,8180,565,-43,-9,13,-13
36434462,0.668701171875,-0.216064453125,-0.66943359375,-0.2408447265625,8090,526,-1,-9,12,-12
36444446,0.669189453125,-0.2154541015625,-0.66845703125,-0.2427978515625,8007,484,44,-8,12,-12
36454427,0.66961669921875,-0.2149658203125,-0.66754150390625,-0.24462890625,7947,454,77,-9,11,-10
36464418,0.66998291015625,-0.21453857421875,-0.6666259765625,-0.24639892578125,7887,449,111,-9,11,-9
36474399,0.67041015625,-0.21429443359375,-0.6656494140625,-0.248046875,7842,457,126,-10,10,-7
36484383,0.67083740234375,-0.21435546875,-0.66473388671875,-0.24945068359375,7802,453,126,-10,9,-4
36494360,0.6712646484375,-0.2147216796875,-0.6636962890625,-0.25067138671875,7763,428,131,-10,9,-1
36504346,0.67181396484375,-0.21533203125,-0.66259765625,-0.2515869140625,7705,407,137,-10,9,1
36514327,0.67236328125,-0.216064453125,-0.66143798828125,-0.25244140625,7649,375,170,-10,9,2
36524310,0.6729736328125,-0.2169189453125,-0.6602783203125,-0.25323486328125,7594,329,204,-11,9,3
