subject,Ian Lake
arm,right
label,3
hz,100.1721445677656
time,4.75182

timestamp_us,q0,q1,q2,q3,ax,ay,az,gx,gy,gz
526378224,-0.48126220703125,-0.66400146484375,0.36444091796875,0.44122314453125,-2001,7955,-1240,-6,9,-10
526388216,-0.48162841796875,-0.66455078125,0.36273193359375,0.44134521484375,-2037,7944,-1225,-7,9,-10
526398200,-0.48199462890625,-0.6651611328125,0.36102294921875,0.4415283203125,-2084,7938,-1217,-7,9,-11
526408174,-0.48236083984375,-0.665771484375,0.35919189453125,0.4417724609375,-2104,7928,-1213,-7,9,-12
526418153,-0.48260498046875,-0.6663818359375,0.357177734375,0.442138671875,-2149,7916,-1205,-8,9,-13
526428135,-0.4827880859375,-0.6671142578125,0.35498046875,0.442626953125,-2198,7908,-1194,-8,9,-15
526438119,-0.48291015625,-0.6678466796875,0.35272216796875,0.44317626953125,-2253,7898,-1194,-8,9,-16
526448101,-0.48297119140625,-0.6685791015625,0.35040283203125,0.44384765625,-2294,7901,-1204,-8,8,-17
526458085,-0.48297119140625,-0.66937255859375,0.34796142578125,0.444580078125,-2354,7917,-1200,-8,8,-18
526468067,-0.48291015625,-0.67010498046875,0.34552001953125,0.4454345703125,-2403,7949,-1201,-9,7,-18
526478050,-0.48284912109375,-0.6707763671875,0.34307861328125,0.44635009765625,-2428,7972,-1185,-9,7,-19
526488032,-0.4827880859375,-0.67138671875,0.34063720703125,0.44732666015625,-2459,7990,-1165,-9,5,-19
526498020,-0.48272705078125,-0.67193603515625,0.33831787109375,0.4483642578125,-2490,8001,-1141,-9,5,-18
526507996,-0.4827880859375,-0.67230224609375,0.33612060546875,0.4493408203125,-2504,7988,-1098,-9,4,-16
526517980,-0.48297119140625,-0.672607421875,0.33416748046875,0.4503173828125,-2509,7985,-1067,-10,3,-14
526527964,-0.48321533203125,-0.6727294921875,0.3323974609375,0.45111083984375,-2520,7974,-1039,-10,3,-12
526537946,-0.48358154296875,-0.67266845703125,0.33087158203125,0.451904296875,-2512,7978,-996,-10,2,-10
526547929,-0.48406982421875,-0.6724853515625,0.32958984375,0.45257568359375,-2510,7985,-961,-10,1,-8
526557912,-0.48455810546875,-0.6722412109375,0.32843017578125,0.4532470703125,-2516,7994,-929,-10,1,-6
526567894,-0.48516845703125,-0.67181396484375,0.32745361328125,0.45391845703125,-2503,8005,-897,-10,0,-4
526577880,-0.48583984375,-0.67132568359375,0.32666015625,0.45452880859375,-2513,8040,-861,-10,-1,-3
526587856,-0.486572265625,-0.67071533203125,0.32611083984375,0.455078125,-2522,8099,-840,-10,-1,-1
526597844,-0.48736572265625,-0.66998291015625,0.32568359375,0.45556640625,-2529,8189,-820,-10,-2,0
526607825,-0.4881591796875,-0.66925048828125,0.3253173828125,0.45611572265625,-2529,8333,-810,-10,-3,0
526617807,-0.4888916015625,-0.66845703125,0.32489013671875,0.456787109375,-2536,8511,-803,-10,-4,-2
526627796,-0.48944091796875,-0.667724609375,0.32452392578125,0.45751953125,-2534,8695,-796,-9,-4,-3
526637780,-0.48992919921875,-0.66693115234375,0.32421875,0.45831298828125,-2534,8898,-775,-9,-5,-2
526647768,-0.4906005859375,-0.66595458984375,0.32427978515625,0.458984375,-2566,9200,-792,-8,-6,1
526657739,-0.49139404296875,-0.66485595703125,0.32476806640625,0.45947265625,-2651,9653,-848,-8,-8,6
526667723,-0.49224853515625,-0.66351318359375,0.3258056640625,0.459716796875,-2745,10177,-943,-7,-9,10
526677705,-0.4932861328125,-0.6619873046875,0.32745361328125,0.45965576171875,-2830,10672,-1019,-6,-11,17
526687690,-0.49468994140625,-0.65997314453125,0.33013916015625,0.4591064453125,-2899,11134,-1061,-5,-13,28
526697672,-0.49676513671875,-0.65728759765625,0.334228515625,0.45770263671875,-2919,11542,-1100,-3,-15,45
526707655,-0.49981689453125,-0.65362548828125,0.34027099609375,0.4552001953125,-2874,11910,-1100,-2,-18,67
526717637,-0.50408935546875,-0.64874267578125,0.348388671875,0.4512939453125,-2749,12253,-1088,-1,-20,92
526727623,-0.509521484375,-0.64263916015625,0.358642578125,0.4459228515625,-2544,12547,-1044,0,-22,117
526737605,-0.5159912109375,-0.63519287109375,0.37091064453125,0.43896484375,-2257,12797,-993,0,-24,141
526747590,-0.5234375,-0.62652587890625,0.384765625,0.4306640625,-1863,12958,-893,1,-25,161
526757577,-0.53155517578125,-0.61676025390625,0.39971923828125,0.421142578125,-1386,13079,-762,1,-25,175
526767555,-0.53997802734375,-0.6060791015625,0.415283203125,0.41064453125,-851,13185,-648,2,-24,185
526777537,-0.5484619140625,-0.59490966796875,0.43096923828125,0.39947509765625,-317,13330,-545,2,-23,189
526787521,-0.55670166015625,-0.58343505859375,0.44635009765625,0.387939453125,188,13519,-512,2,-22,189
526797503,-0.564453125,-0.57208251953125,0.4610595703125,0.3763427734375,665,13767,-564,2,-20,184
526807486,-0.571533203125,-0.56103515625,0.47479248046875,0.36492919921875,1062,13981,-677,2,-17,176
526817465,-0.578125,-0.55029296875,0.48760986328125,0.353759765625,1399,14116,-805,1,-15,171
526827459,-0.58441162109375,-0.53973388671875,0.4998779296875,0.342529296875,1673,14143,-980,1,-12,170
526837443,-0.590576171875,-0.5289306640625,0.51177978515625,0.3309326171875,1927,14056,-1134,0,-10,174
526847427,-0.596923828125,-0.5177001953125,0.52362060546875,0.31866455078125,2215,13852,-1238,0,-7,180
526857404,-0.60345458984375,-0.5057373046875,0.535400390625,0.30560302734375,2538,13467,-1261,-1,-4,188
526867385,-0.6103515625,-0.4930419921875,0.54718017578125,0.29150390625,2852,12952,-1215,-1,-1,197
526877371,-0.617431640625,-0.47955322265625,0.55889892578125,0.2764892578125,3121,12353,-1176,-1,3,206
526887352,-0.62457275390625,-0.4654541015625,0.57049560546875,0.26043701171875,3352,11744,-1159,-1,6,213
526897338,-0.63153076171875,-0.4510498046875,0.58160400390625,0.24383544921875,3568,11133,-1156,0,9,214
526907317,-0.63812255859375,-0.43670654296875,0.592041015625,0.22711181640625,3725,10445,-1161,1,12,210
526917301,-0.644287109375,-0.422607421875,0.60174560546875,0.21026611328125,3820,9677,-1158,2,14,206
526927280,-0.6500244140625,-0.4088134765625,0.6107177734375,0.19354248046875,3881,8897,-1138,4,16,200
526937272,-0.6552734375,-0.3953857421875,0.618896484375,0.1768798828125,3919,8177,-1117,6,19,194
526947254,-0.66009521484375,-0.38250732421875,0.62628173828125,0.16058349609375,3935,7574,-1081,8,20,186
526957240,-0.6644287109375,-0.37030029296875,0.6328125,0.144775390625,3899,7020,-1068,9,22,178
526967226,-0.66845703125,-0.35845947265625,0.6387939453125,0.12908935546875,3834,6475,-1030,11,24,174
526977211,-0.67218017578125,-0.34674072265625,0.644287109375,0.11334228515625,3765,5968,-1011,12,25,172
526987193,-0.67559814453125,-0.33514404296875,0.6494140625,0.0975341796875,3689,5472,-975,13,26,171
526997163,-0.67877197265625,-0.3236083984375,0.65411376953125,0.08160400390625,3606,4999,-927,15,27,170
527007146,-0.68170166015625,-0.31219482421875,0.658447265625,0.065673828125,3514,4571,-876,16,28,167
527017129,-0.684326171875,-0.301025390625,0.66229248046875,0.04986572265625,3438,4237,-827,18,28,163
527027113,-0.68658447265625,-0.29058837890625,0.66558837890625,0.03460693359375,3382,4009,-816,19,28,154
527037095,-0.6884765625,-0.281005859375,0.6683349609375,0.0201416015625,3373,3843,-859,20,29,144
527047079,-0.69000244140625,-0.27227783203125,0.670654296875,0.0064697265625,3370,3678,-884,21,28,135
527057060,-0.69134521484375,-0.26397705078125,0.67254638671875,-0.0067138671875,3426,3479,-890,22,28,129
527067044,-0.69256591796875,-0.25579833984375,0.67425537109375,-0.01983642578125,3475,3252,-860,22,27,128
527077030,-0.69342041015625,-0.2476806640625,0.67578125,-0.032958984375,3543,3065,-880,23,27,126
527087018,-0.694091796875,-0.23968505859375,0.67724609375,-0.0458984375,3579,2894,-920,23,27,125
527096995,-0.694580078125,-0.2318115234375,0.67852783203125,-0.05865478515625,3602,2742,-945,23,26,123
527106976,-0.69482421875,-0.2239990234375,0.6796875,-0.0711669921875,3621,2571,-958,23,25,121
527116960,-0.69488525390625,-0.2161865234375,0.6807861328125,-0.08349609375,3634,2377,-973,22,24,120
527126946,-0.69464111328125,-0.2083740234375,0.68182373046875,-0.0955810546875,3644,2222,-964,21,22,118
527136929,-0.69427490234375,-0.2005615234375,0.68280029296875,-0.10748291015625,3652,2058,-945,20,21,117
527146912,-0.6937255859375,-0.19256591796875,0.6837158203125,-0.119140625,3699,1883,-889,19,20,117
527156895,-0.693115234375,-0.18426513671875,0.6845703125,-0.130615234375,3722,1668,-803,17,20,117
527166876,-0.6923828125,-0.17584228515625,0.68524169921875,-0.14190673828125,3748,1443,-699,15,19,116
527176862,-0.69158935546875,-0.167236328125,0.68585205078125,-0.1529541015625,3750,1156,-575,12,19,114
527186843,-0.69073486328125,-0.15838623046875,0.686279296875,-0.16387939453125,3740,855,-437,10,19,113
527196824,-0.68994140625,-0.14923095703125,0.6865234375,-0.17449951171875,3694,526,-296,8,20,112
527206805,-0.68914794921875,-0.13995361328125,0.6865234375,-0.18487548828125,3584,207,-134,6,21,109
527216797,-0.6885986328125,-0.13079833984375,0.68621826171875,-0.194580078125,3410,-141,53,3,22,102
527226780,-0.6883544921875,-0.1220703125,0.685546875,-0.2032470703125,3195,-491,255,0,23,90
527236757,-0.68853759765625,-0.11431884765625,0.68450927734375,-0.21038818359375,2931,-827,454,-4,24,72
527246738,-0.689453125,-0.1080322265625,0.68304443359375,-0.21551513671875,2666,-1116,676,-7,25,48
527256719,-0.6912841796875,-0.10382080078125,0.68109130859375,-0.21795654296875,2410,-1366,900,-10,25,18
527266699,-0.69403076171875,-0.10198974609375,0.6787109375,-0.2174072265625,2202,-1565,1082,-13,25,-16
527276679,-0.69775390625,-0.1029052734375,0.67596435546875,-0.21368408203125,2033,-1703,1201,-15,25,-52
527286661,-0.70220947265625,-0.1064453125,0.67291259765625,-0.20684814453125,1931,-1822,1288,-17,24,-85
527296645,-0.7071533203125,-0.1121826171875,0.669677734375,-0.19732666015625,1896,-1947,1337,-19,22,-113
527306628,-0.7122802734375,-0.11956787109375,0.66619873046875,-0.185791015625,1927,-2032,1347,-21,19,-132
527316612,-0.71722412109375,-0.12799072265625,0.66278076171875,-0.1728515625,2010,-2043,1305,-21,16,-143
527326596,-0.7218017578125,-0.1368408203125,0.65948486328125,-0.1593017578125,2134,-1937,1214,-22,13,-146
527336580,-0.725830078125,-0.1456298828125,0.6563720703125,-0.1456298828125,2316,-1734,1085,-22,9,-143
527346563,-0.72918701171875,-0.154052734375,0.65350341796875,-0.13226318359375,2517,-1480,946,-23,6,-135
527356547,-0.73193359375,-0.16168212890625,0.65106201171875,-0.11962890625,2733,-1239,819,-23,3,-123
527366523,-0.7340087890625,-0.168212890625,0.6490478515625,-0.1080322265625,2945,-1059,750,-23,0,-110
527376507,-0.73565673828125,-0.173828125,0.64739990234375,-0.09759521484375,3157,-894,713,-22,-3,-98
527386488,-0.73687744140625,-0.1788330078125,0.64599609375,-0.087890625,3353,-691,686,-22,-5,-90
527396469,-0.73779296875,-0.18408203125,0.644775390625,-0.07806396484375,3526,-412,633,-21,-8,-94
527406460,-0.7384033203125,-0.1904296875,0.6434326171875,-0.06707763671875,3654,-44,567,-20,-11,-107
527416444,-0.73876953125,-0.1986083984375,0.64178466796875,-0.0543212890625,3763,349,496,-18,-13,-128
527426426,-0.73883056640625,-0.20867919921875,0.63958740234375,-0.03948974609375,3911,731,439,-16,-16,-151
527436400,-0.7384033203125,-0.22064208984375,0.63690185546875,-0.0228271484375,4076,1084,387,-14,-19,-171
527446385,-0.73736572265625,-0.23382568359375,0.63372802734375,-0.0050048828125,4195,1377,348,-11,-21,-183
527456369,-0.73583984375,-0.24749755859375,0.63018798828125,0.0130615234375,4335,1624,367,-8,-22,-186
527466351,-0.73382568359375,-0.2611083984375,0.62640380859375,0.0306396484375,4460,1918,404,-5,-23,-182
527476333,-0.73138427734375,-0.27459716796875,0.6224365234375,0.04766845703125,4543,2298,415,-2,-22,-178
527486320,-0.72857666015625,-0.28790283203125,0.6181640625,0.06414794921875,4634,2746,404,0,-21,-174
527496300,-0.72540283203125,-0.3013916015625,0.61358642578125,0.0804443359375,4706,3247,347,3,-20,-175
527506280,-0.72174072265625,-0.315185546875,0.60858154296875,0.0968017578125,4725,3690,276,5,-20,-178
527516272,-0.7176513671875,-0.32916259765625,0.603271484375,0.1129150390625,4717,4053,229,8,-19,-177
527526255,-0.7132568359375,-0.3428955078125,0.59765625,0.12841796875,4716,4418,209,10,-18,-173
527536240,-0.70880126953125,-0.35601806640625,0.59197998046875,0.14300537109375,4700,4900,222,11,-15,-163
527546227,-0.704345703125,-0.36865234375,0.5860595703125,0.15667724609375,4693,5523,229,13,-12,-156
527556208,-0.69976806640625,-0.38116455078125,0.57977294921875,0.1700439453125,4670,6212,167,13,-9,-155
527566192,-0.69488525390625,-0.39404296875,0.57281494140625,0.18377685546875,4558,6805,90,12,-7,-162
527576163,-0.6895751953125,-0.407470703125,0.56500244140625,0.1981201171875,4409,7318,1,12,-6,-172
527586145,-0.68365478515625,-0.42132568359375,0.5565185546875,0.21307373046875,4199,7776,-107,13,-6,-180
527596128,-0.67730712890625,-0.43524169921875,0.54754638671875,0.22808837890625,3947,8209,-175,13,-6,-180
527606112,-0.6708984375,-0.4483642578125,0.5386962890625,0.24237060546875,3745,8540,-227,13,-6,-171
527616095,-0.664794921875,-0.4600830078125,0.53033447265625,0.25518798828125,3577,8776,-211,12,-4,-154
527626077,-0.6593017578125,-0.47027587890625,0.522705078125,0.266357421875,3388,9096,-172,10,-3,-135
527636060,-0.65423583984375,-0.47943115234375,0.51556396484375,0.27630615234375,3217,9531,-219,9,-1,-123
527646045,-0.649169921875,-0.48834228515625,0.50823974609375,0.2860107421875,3028,9972,-276,8,0,-124
527656030,-0.6436767578125,-0.49755859375,0.500244140625,0.29638671875,2822,10325,-330,7,0,-134
527666016,-0.6376953125,-0.50726318359375,0.49151611328125,0.30743408203125,2614,10521,-363,6,0,-144
527675993,-0.63140869140625,-0.516845703125,0.482421875,0.318603515625,2440,10454,-337,6,0,-145
527685974,-0.62554931640625,-0.5255126953125,0.47369384765625,0.328857421875,2250,10277,-232,6,1,-134
527695958,-0.62030029296875,-0.53314208984375,0.4656982421875,0.3377685546875,2069,10141,-176,5,3,-117
527705940,-0.6156005859375,-0.5399169921875,0.45849609375,0.345458984375,1919,10048,-180,5,4,-105
527715922,-0.611083984375,-0.54632568359375,0.45147705078125,0.35260009765625,1738,10034,-173,5,5,-103
527725906,-0.60614013671875,-0.552978515625,0.44390869140625,0.36016845703125,1563,10130,-190,4,5,-112
527735889,-0.60052490234375,-0.56036376953125,0.43524169921875,0.36871337890625,1405,10184,-136,5,5,-129
527745870,-0.59405517578125,-0.56842041015625,0.42523193359375,0.37835693359375,1199,10182,-14,5,6,-144
527755854,-0.58709716796875,-0.5767822265625,0.4144287109375,0.38848876953125,983,10244,73,6,7,-152
527765835,-0.579833984375,-0.58514404296875,0.4031982421875,0.39849853515625,709,10528,84,6,8,-154
527775819,-0.5721435546875,-0.59344482421875,0.39190673828125,0.40850830078125,371,11101,22,6,7,-155
527785806,-0.5638427734375,-0.60186767578125,0.3802490234375,0.41864013671875,-43,11904,-96,8,6,-161
527795790,-0.55474853515625,-0.6103515625,0.3682861328125,0.4290771484375,-479,12802,-239,9,3,-166
527805773,-0.54510498046875,-0.61859130859375,0.3564453125,0.43951416015625,-894,13713,-398,11,0,-166
527815750,-0.53533935546875,-0.626220703125,0.345458984375,0.44940185546875,-1272,14421,-526,13,-4,-157
527825730,-0.52630615234375,-0.6326904296875,0.3363037109375,0.4578857421875,-1595,14941,-621,16,-8,-133
527835714,-0.518798828125,-0.63751220703125,0.33026123046875,0.464111328125,-1833,15324,-700,19,-10,-95
527845697,-0.513671875,-0.64031982421875,0.32830810546875,0.46722412109375,-1882,15605,-741,22,-13,-46
527855683,-0.51153564453125,-0.640869140625,0.3310546875,0.4669189453125,-1721,15811,-723,25,-15,9
527865660,-0.5123291015625,-0.63916015625,0.33831787109375,0.46319580078125,-1390,15963,-656,28,-17,61
527875644,-0.5155029296875,-0.635498046875,0.3494873046875,0.4564208984375,-934,16055,-594,31,-18,104
527885627,-0.5201416015625,-0.63031005859375,0.36334228515625,0.4473876953125,-393,16015,-556,34,-19,133
527895611,-0.525634765625,-0.6240234375,0.37890625,0.436767578125,234,15872,-496,36,-20,151
527905596,-0.53125,-0.61712646484375,0.39520263671875,0.42523193359375,857,15724,-433,39,-20,159
527915580,-0.53662109375,-0.60992431640625,0.4114990234375,0.4132080078125,1460,15584,-413,41,-19,159
527925564,-0.5413818359375,-0.602783203125,0.42730712890625,0.4012451171875,1997,15461,-431,42,-19,154
527935546,-0.54547119140625,-0.595947265625,0.4423828125,0.38934326171875,2453,15353,-506,44,-18,148
527945528,-0.54901123046875,-0.58935546875,0.45672607421875,0.377685546875,2805,15262,-590,44,-17,143
527955512,-0.55218505859375,-0.58294677734375,0.470458984375,0.36602783203125,3057,15181,-734,44,-15,142
527965495,-0.5552978515625,-0.57623291015625,0.4840087890625,0.35406494140625,3272,15110,-891,44,-14,147
527975474,-0.55865478515625,-0.56884765625,0.497802734375,0.34136962890625,3440,15011,-1043,42,-12,158
527985467,-0.56256103515625,-0.56036376953125,0.511962890625,0.3277587890625,3578,14909,-1196,40,-10,173
527995450,-0.56695556640625,-0.5506591796875,0.526611328125,0.3131103515625,3731,14790,-1295,38,-9,189
528005431,-0.57183837890625,-0.53961181640625,0.54156494140625,0.29754638671875,3896,14605,-1392,34,-8,202
528015408,-0.576904296875,-0.527587890625,0.5565185546875,0.28131103515625,4025,14348,-1503,31,-6,211
528025391,-0.58203125,-0.5147705078125,0.5711669921875,0.2646484375,4126,14016,-1629,28,-4,216
528035373,-0.587158203125,-0.50140380859375,0.58526611328125,0.247802734375,4203,13581,-1746,26,-1,219
528045360,-0.59210205078125,-0.48748779296875,0.5987548828125,0.230712890625,4248,13056,-1868,22,1,221
528055340,-0.59686279296875,-0.473388671875,0.611572265625,0.21368408203125,4293,12451,-1975,21,4,218
528065327,-0.60137939453125,-0.45928955078125,0.62347412109375,0.1966552734375,4324,11735,-2018,20,7,214
528075308,-0.60565185546875,-0.4454345703125,0.6343994140625,0.17987060546875,4300,11004,-2027,20,11,208
528085290,-0.6097412109375,-0.43182373046875,0.64434814453125,0.1630859375,4290,10249,-2003,20,15,202
528095278,-0.6136474609375,-0.4185791015625,0.6533203125,0.14642333984375,4251,9509,-1968,21,19,197
528105262,-0.61737060546875,-0.40576171875,0.661376953125,0.12969970703125,4192,8813,-1924,23,23,192
528115245,-0.6209716796875,-0.3931884765625,0.668701171875,0.11273193359375,4135,8158,-1889,25,29,190
528125224,-0.62451171875,-0.38079833984375,0.6751708984375,0.09552001953125,4054,7503,-1813,27,32,187
528135215,-0.6279296875,-0.36859130859375,0.6810302734375,0.077880859375,3946,6813,-1755,29,37,186
528145200,-0.6312255859375,-0.3564453125,0.686279296875,0.059814453125,3834,6142,-1713,32,41,185
528155175,-0.63433837890625,-0.3443603515625,0.69085693359375,0.0413818359375,3704,5528,-1656,35,44,183
528165152,-0.63726806640625,-0.33282470703125,0.6947021484375,0.02301025390625,3528,4980,-1625,38,48,177
528175135,-0.63983154296875,-0.3221435546875,0.69769287109375,0.0050048828125,3332,4490,-1616,40,50,167
528185119,-0.6422119140625,-0.31268310546875,0.69976806640625,-0.01220703125,3119,4034,-1616,42,52,152
528195101,-0.6444091796875,-0.3045654296875,0.70086669921875,-0.02850341796875,2916,3598,-1602,44,53,136
528205085,-0.64642333984375,-0.29791259765625,0.7010498046875,-0.0435791015625,2698,3202,-1574,45,54,118
528215070,-0.64849853515625,-0.29278564453125,0.7003173828125,-0.05731201171875,2507,2831,-1511,46,55,99
528225052,-0.65069580078125,-0.28924560546875,0.6986083984375,-0.06951904296875,2367,2488,-1414,46,56,79
528235036,-0.6531982421875,-0.2872314453125,0.69598388671875,-0.0802001953125,2239,2147,-1305,45,58,58
528245027,-0.656005859375,-0.28680419921875,0.69244384765625,-0.0892333984375,2106,1848,-1170,43,59,38
528255009,-0.65924072265625,-0.28765869140625,0.68798828125,-0.0965576171875,1964,1588,-1017,40,61,19
528264986,-0.662841796875,-0.28936767578125,0.68292236328125,-0.1024169921875,1851,1395,-854,36,61,6
528274970,-0.6668701171875,-0.291015625,0.67755126953125,-0.10736083984375,1747,1285,-678,29,62,3
528284954,-0.6712646484375,-0.2916259765625,0.67218017578125,-0.1119384765625,1592,1215,-476,21,64,9
528294934,-0.676025390625,-0.2906494140625,0.66705322265625,-0.116455078125,1423,1191,-255,10,65,19
528304915,-0.68115234375,-0.2877197265625,0.66229248046875,-0.12103271484375,1231,1165,-21,-2,65,31
528314894,-0.6865234375,-0.28302001953125,0.65802001953125,-0.125244140625,1030,1069,159,-14,65,38
528324878,-0.692138671875,-0.27703857421875,0.65399169921875,-0.128662109375,846,908,268,-27,64,37
528334862,-0.69793701171875,-0.27069091796875,0.65008544921875,-0.130615234375,668,680,318,-38,62,27
528344844,-0.7039794921875,-0.2646484375,0.64605712890625,-0.1304931640625,481,461,321,-47,58,10
528354826,-0.710205078125,-0.259765625,0.6417236328125,-0.127685546875,326,238,317,-54,54,-14
528364802,-0.71661376953125,-0.25634765625,0.6370849609375,-0.1220703125,200,16,287,-60,50,-41
528374796,-0.72308349609375,-0.2547607421875,0.63201904296875,-0.11328125,120,-193,251,-65,44,-70
528384778,-0.72930908203125,-0.2547607421875,0.62677001953125,-0.10186767578125,122,-419,218,-68,38,-95
528394755,-0.73529052734375,-0.25604248046875,0.62127685546875,-0.08819580078125,199,-621,183,-71,31,-114
528404737,-0.74078369140625,-0.25830078125,0.6158447265625,-0.072998046875,334,-788,150,-72,25,-127
528418030,-0.74560546875,-0.26104736328125,0.6104736328125,-0.0567626953125,533,-910,126,-72,19,-136
528424710,-0.74981689453125,-0.2642822265625,0.60528564453125,-0.03973388671875,717,-980,112,-72,13,-141
528434692,-0.75335693359375,-0.267822265625,0.6002197265625,-0.02215576171875,934,-1035,99,-71,8,-146
528444675,-0.75616455078125,-0.27178955078125,0.59527587890625,-0.004150390625,1136,-1034,93,-69,3,-150
528454655,-0.75830078125,-0.27618408203125,0.59033203125,0.0142822265625,1295,-971,90,-66,-1,-155
528464635,-0.75970458984375,-0.28131103515625,0.58538818359375,0.033203125,1461,-837,101,-63,-5,-162
528474616,-0.76031494140625,-0.28729248046875,0.5802001953125,0.052734375,1620,-662,111,-58,-9,-170
528484599,-0.76019287109375,-0.2943115234375,0.57464599609375,0.072998046875,1770,-414,129,-53,-11,-180
528494582,-0.75909423828125,-0.30267333984375,0.568603515625,0.0941162109375,1896,-77,157,-47,-13,-193
528504565,-0.75714111328125,-0.3123779296875,0.5618896484375,0.11602783203125,2045,343,207,-41,-14,-205
528514547,-0.75421142578125,-0.3233642578125,0.55450439453125,0.13848876953125,2227,827,249,-34,-15,-216
528524532,-0.7503662109375,-0.33538818359375,0.54638671875,0.16107177734375,2436,1316,366,-27,-13,-223
528534515,-0.745849609375,-0.34796142578125,0.53765869140625,0.18328857421875,2634,1833,477,-20,-10,-224
528544497,-0.74066162109375,-0.36102294921875,0.52838134765625,0.20477294921875,2815,2410,566,-13,-7,-223
528554483,-0.7349853515625,-0.374267578125,0.51873779296875,0.22515869140625,2962,3022,663,-6,-3,-219
528564466,-0.7288818359375,-0.3876953125,0.50872802734375,0.24420166015625,3033,3737,764,0,1,-211
528574452,-0.72265625,-0.40093994140625,0.49853515625,0.26165771484375,3070,4448,872,6,7,-200
528584434,-0.71649169921875,-0.41387939453125,0.48828125,0.27734375,3045,5188,966,11,13,-187
528594410,-0.71051025390625,-0.42657470703125,0.47802734375,0.29107666015625,3000,5958,997,15,19,-173
528604394,-0.70477294921875,-0.43878173828125,0.4678955078125,0.30303955078125,2976,6612,1030,18,25,-161
528614376,-0.69952392578125,-0.45037841796875,0.4580078125,0.31317138671875,2952,7153,1063,21,31,-146
528624363,-0.69488525390625,-0.46148681640625,0.4482421875,0.3214111328125,2855,7615,1114,23,38,-132
528634347,-0.69085693359375,-0.47198486328125,0.43878173828125,0.3277587890625,2720,8028,1135,25,44,-116
528644329,-0.6873779296875,-0.4820556640625,0.4295654296875,0.3326416015625,2582,8386,1132,27,49,-105
528654313,-0.68408203125,-0.49212646484375,0.42022705078125,0.33660888671875,2370,8848,1157,28,54,-102
528664296,-0.68048095703125,-0.502685546875,0.41015625,0.340576171875,2110,9476,1176,30,58,-108
528674276,-0.67626953125,-0.51416015625,0.39886474609375,0.3453369140625,1816,10168,1195,31,61,-124
528684267,-0.6710205078125,-0.526611328125,0.385986328125,0.351318359375,1436,10933,1204,32,64,-143
528694250,-0.66473388671875,-0.5399169921875,0.37158203125,0.3585205078125,987,11727,1187,32,66,-160
528704229,-0.6575927734375,-0.55364990234375,0.35595703125,0.3665771484375,487,12449,1161,33,67,-171
528714223,-0.64996337890625,-0.567138671875,0.34002685546875,0.3746337890625,-4,13004,1140,32,66,-170
528724208,-0.6424560546875,-0.57977294921875,0.32470703125,0.3817138671875,-460,13482,1154,32,65,-158
528734180,-0.63555908203125,-0.59124755859375,0.3106689453125,0.3873291015625,-910,14035,1221,32,64,-139
528744157,-0.62933349609375,-0.6015625,0.29815673828125,0.391357421875,-1316,14650,1294,33,61,-119
528754139,-0.6236572265625,-0.6109619140625,0.287109375,0.39410400390625,-1714,15110,1351,34,58,-103
528764123,-0.618408203125,-0.6195068359375,0.27740478515625,0.39605712890625,-2019,15447,1413,34,53,-90
528774106,-0.613525390625,-0.627197265625,0.26898193359375,0.39727783203125,-2260,15696,1473,35,49,-79
528784088,-0.60906982421875,-0.6341552734375,0.2618408203125,0.39801025390625,-2459,15878,1497,34,44,-67
528794074,-0.6051025390625,-0.64013671875,0.25628662109375,0.39801025390625,-2610,16012,1482,34,37,-52
528804057,-0.6019287109375,-0.6451416015625,0.2528076171875,0.39703369140625,-2701,16110,1454,34,30,-31
528814036,-0.5997314453125,-0.64886474609375,0.25177001953125,0.39483642578125,-2713,16183,1453,34,23,-6
528824029,-0.598876953125,-0.65130615234375,0.25347900390625,0.39111328125,-2650,16236,1485,33,16,23
528834010,-0.59930419921875,-0.65216064453125,0.2579345703125,0.385986328125,-2524,16275,1531,31,8,51
528843982,-0.6009521484375,-0.65167236328125,0.264892578125,0.37957763671875,-2369,16229,1564,29,1,77
528853964,-0.6033935546875,-0.64990234375,0.27398681640625,0.3721923828125,-2157,16106,1577,27,-7,97
528863946,-0.60650634765625,-0.64691162109375,0.28472900390625,0.3642578125,-1885,15882,1592,24,-15,112
528873927,-0.60992431640625,-0.64288330078125,0.296630859375,0.35601806640625,-1547,15606,1602,22,-21,122
528883912,-0.61358642578125,-0.63787841796875,0.309326171875,0.3477783203125,-1167,15321,1588,18,-28,127
528893895,-0.61712646484375,-0.63226318359375,0.32232666015625,0.33984375,-793,15069,1539,15,-32,129
528903878,-0.62042236328125,-0.626220703125,0.33526611328125,0.33251953125,-445,14929,1431,12,-37,125
528913862,-0.62322998046875,-0.61993408203125,0.34783935546875,0.3260498046875,-124,14872,1271,9,-42,118
528923846,-0.62548828125,-0.61370849609375,0.35980224609375,0.320556640625,155,14847,1056,6,-45,109
528933828,-0.6273193359375,-0.60736083984375,0.37127685546875,0.31591796875,384,14824,861,3,-48,104
528943808,-0.62890625,-0.60076904296875,0.38275146484375,0.31158447265625,627,14738,664,1,-51,105
528953798,-0.63079833984375,-0.59332275390625,0.39495849609375,0.30670166015625,867,14511,489,-1,-53,118
528963778,-0.6334228515625,-0.58453369140625,0.40863037109375,0.30035400390625,1149,14178,361,-3,-55,141
528973754,-0.6368408203125,-0.57403564453125,0.4239501953125,0.2919921875,1461,13762,229,-6,-55,168
528983737,-0.6409912109375,-0.56170654296875,0.44085693359375,0.28155517578125,1777,13257,145,-8,-55,193
528993720,-0.645751953125,-0.54779052734375,0.45867919921875,0.2694091796875,2118,12788,56,-10,-53,212
529003707,-0.6505126953125,-0.53289794921875,0.4766845703125,0.25628662109375,2476,12333,-46,-13,-52,219
529013687,-0.655029296875,-0.517578125,0.49395751953125,0.24298095703125,2759,11889,-137,-14,-48,217
529023671,-0.6590576171875,-0.50244140625,0.51025390625,0.23004150390625,3007,11438,-287,-15,-46,210
529033653,-0.66259765625,-0.4874267578125,0.52545166015625,0.21746826171875,3213,10945,-440,-17,-43,202
529043636,-0.66571044921875,-0.47265625,0.53973388671875,0.2052001953125,3393,10442,-577,-17,-40,197
529053618,-0.66851806640625,-0.45794677734375,0.55328369140625,0.1929931640625,3546,9900,-717,-17,-37,193
529063601,-0.671142578125,-0.4432373046875,0.5660400390625,0.18072509765625,3707,9324,-827,-17,-33,191
529073584,-0.6737060546875,-0.4283447265625,0.5782470703125,0.1680908203125,3840,8681,-890,-17,-29,192
529083567,-0.67633056640625,-0.41314697265625,0.58984375,0.1549072265625,3938,8061,-911,-17,-24,194
529093549,-0.678955078125,-0.397705078125,0.600830078125,0.14105224609375,4053,7508,-938,-16,-18,196
529103533,-0.68145751953125,-0.3822021484375,0.61114501953125,0.12677001953125,4146,6984,-960,-14,-13,197
529113515,-0.68402099609375,-0.3665771484375,0.62066650390625,0.1119384765625,4239,6438,-966,-13,-7,197
529123495,-0.68658447265625,-0.3509521484375,0.62939453125,0.09661865234375,4329,5891,-938,-11,-1,197
529133483,-0.6890869140625,-0.33544921875,0.63720703125,0.0809326171875,4409,5325,-909,-8,5,194
529143470,-0.69158935546875,-0.32037353515625,0.64410400390625,0.0650634765625,4476,4805,-882,-5,11,189
529153452,-0.6939697265625,-0.305908203125,0.64996337890625,0.04925537109375,4503,4364,-853,-2,16,182
529163440,-0.6961669921875,-0.2923583984375,0.65478515625,0.0338134765625,4538,3977,-884,0,21,172
529173412,-0.69830322265625,-0.2799072265625,0.6585693359375,0.01904296875,4516,3645,-926,3,25,160
529183396,-0.70025634765625,-0.2684326171875,0.66143798828125,0.0048828125,4498,3336,-969,5,29,149
529193378,-0.70220947265625,-0.2578125,0.66357421875,-0.0087890625,4486,3059,-1006,8,32,141
529203363,-0.70416259765625,-0.2476806640625,0.66510009765625,-0.022216796875,4490,2818,-1004,9,35,136
529213346,-0.70611572265625,-0.23785400390625,0.666015625,-0.03558349609375,4534,2626,-1018,11,38,134
529223329,-0.7081298828125,-0.2281494140625,0.66644287109375,-0.04901123046875,4614,2449,-1022,12,41,134
529233312,-0.7100830078125,-0.21832275390625,0.66650390625,-0.06268310546875,4716,2221,-1016,12,45,134
529243293,-0.71209716796875,-0.2083740234375,0.66607666015625,-0.07647705078125,4837,1937,-976,13,48,133
529253275,-0.7142333984375,-0.198486328125,0.66510009765625,-0.09027099609375,4935,1656,-919,13,50,130
529263268,-0.71636962890625,-0.18890380859375,0.66363525390625,-0.103515625,4984,1420,-841,13,53,124
529273249,-0.71875,-0.179931640625,0.6614990234375,-0.115966796875,4990,1258,-716,12,55,115
529283229,-0.72137451171875,-0.1717529296875,0.65875244140625,-0.127197265625,4944,1131,-581,10,57,102
529293223,-0.72418212890625,-0.16436767578125,0.65557861328125,-0.13714599609375,4843,976,-461,8,58,89
529303208,-0.72723388671875,-0.15765380859375,0.6519775390625,-0.14593505859375,4756,785,-333,6,58,77
529313188,-0.7303466796875,-0.15155029296875,0.64813232421875,-0.15362548828125,4648,625,-198,4,58,67
529323160,-0.7335205078125,-0.14581298828125,0.6441650390625,-0.160400390625,4509,493,-65,1,57,60
529333141,-0.73675537109375,-0.14031982421875,0.64019775390625,-0.16632080078125,4351,369,118,-1,55,54
529343122,-0.739990234375,-0.135009765625,0.63623046875,-0.1715087890625,4223,279,286,-5,52,49
529353105,-0.74310302734375,-0.12982177734375,0.6324462890625,-0.176025390625,4100,182,425,-8,50,45
529363089,-0.74615478515625,-0.12457275390625,0.62884521484375,-0.17999267578125,3999,45,617,-11,47,42
529373070,-0.7490234375,-0.11907958984375,0.6253662109375,-0.18365478515625,3947,-131,817,-14,44,41
529383055,-0.751708984375,-0.11328125,0.62225341796875,-0.18707275390625,3893,-322,1000,-17,41,41
529393040,-0.75408935546875,-0.107421875,0.61944580078125,-0.1900634765625,3853,-457,1165,-20,37,39
529403029,-0.75634765625,-0.10174560546875,0.616943359375,-0.1923828125,3838,-546,1299,-22,33,34
529413009,-0.75836181640625,-0.09625244140625,0.61480712890625,-0.19403076171875,3847,-645,1432,-25,29,29
529422987,-0.76025390625,-0.09112548828125,0.61297607421875,-0.19488525390625,3906,-773,1548,-27,25,23
529432969,-0.76202392578125,-0.08624267578125,0.6114501953125,-0.195068359375,3989,-920,1663,-29,21,17
529442952,-0.7635498046875,-0.0816650390625,0.61029052734375,-0.19464111328125,4085,-1087,1785,-30,17,11
529452936,-0.76495361328125,-0.07763671875,0.609375,-0.19354248046875,4201,-1240,1901,-31,13,4
529462917,-0.76629638671875,-0.07427978515625,0.6087646484375,-0.1915283203125,4322,-1329,1986,-31,9,-6
529472897,-0.76751708984375,-0.0718994140625,0.6085205078125,-0.18841552734375,4457,-1376,2036,-31,4,-17
529482874,-0.76861572265625,-0.0704345703125,0.6085205078125,-0.1842041015625,4619,-1387,2064,-31,0,-27
529492858,-0.76959228515625,-0.0697021484375,0.60888671875,-0.17938232421875,4787,-1419,2091,-30,-4,-33
529502839,-0.77032470703125,-0.06939697265625,0.6094970703125,-0.17413330078125,4962,-1425,2117,-29,-7,-36
529512822,-0.77069091796875,-0.06927490234375,0.6104736328125,-0.16900634765625,5149,-1426,2130,-28,-11,-36
529522800,-0.770751953125,-0.0693359375,0.61175537109375,-0.1640625,5337,-1410,2146,-26,-15,-34
529532794,-0.7703857421875,-0.069580078125,0.6134033203125,-0.159423828125,5551,-1366,2130,-24,-19,-32
529542776,-0.769775390625,-0.0699462890625,0.615234375,-0.15509033203125,5793,-1335,2115,-21,-21,-30
529552751,-0.768798828125,-0.07037353515625,0.61737060546875,-0.15118408203125,6054,-1315,2086,-18,-23,-27
529562738,-0.76763916015625,-0.07086181640625,0.61962890625,-0.14776611328125,6326,-1325,2054,-15,-25,-24
529572720,-0.76617431640625,-0.0714111328125,0.62200927734375,-0.14501953125,6594,-1345,2013,-12,-27,-20
529582705,-0.76446533203125,-0.07208251953125,0.62451171875,-0.14276123046875,6834,-1345,1950,-8,-28,-17
529592687,-0.7626953125,-0.072998046875,0.62701416015625,-0.140869140625,7050,-1319,1887,-5,-28,-16
529602670,-0.76080322265625,-0.07440185546875,0.6295166015625,-0.13909912109375,7275,-1281,1812,-1,-28,-18
529612653,-0.75897216796875,-0.0762939453125,0.63189697265625,-0.13739013671875,7487,-1224,1727,2,-28,-21
529622634,-0.75714111328125,-0.07879638671875,0.6341552734375,-0.1356201171875,7654,-1169,1617,6,-27,-24
529632615,-0.75543212890625,-0.08172607421875,0.63616943359375,-0.13385009765625,7774,-1112,1518,8,-25,-26
529642598,-0.75384521484375,-0.08502197265625,0.63800048828125,-0.13201904296875,7828,-1050,1406,11,-23,-29
529652582,-0.75238037109375,-0.08868408203125,0.63958740234375,-0.1302490234375,7796,-976,1279,13,-22,-31
529662565,-0.75103759765625,-0.0926513671875,0.64105224609375,-0.12841796875,7681,-895,1139,15,-20,-32
529672545,-0.749755859375,-0.09686279296875,0.6422119140625,-0.1265869140625,7500,-834,998,16,-18,-34
529682529,-0.7486572265625,-0.10107421875,0.64324951171875,-0.12481689453125,7256,-827,879,17,-17,-34
529692515,-0.74761962890625,-0.10528564453125,0.64404296875,-0.12310791015625,6972,-856,772,17,-14,-35
529702498,-0.746826171875,-0.1097412109375,0.6446533203125,-0.1212158203125,6635,-864,632,17,-12,-39
529712483,-0.74615478515625,-0.11444091796875,0.64495849609375,-0.11895751953125,6234,-891,521,17,-10,-43
529722471,-0.745849609375,-0.11956787109375,0.64495849609375,-0.1162109375,5830,-939,446,18,-7,-51
529732453,-0.74578857421875,-0.12530517578125,0.64453125,-0.11279296875,5419,-998,385,18,-5,-59
529742437,-0.74603271484375,-0.1318359375,0.6436767578125,-0.10845947265625,4999,-1027,349,18,-3,-71
529752415,-0.74658203125,-0.139404296875,0.642333984375,-0.10296630859375,4609,-1008,320,18,-1,-85
529762402,-0.7474365234375,-0.1484375,0.64044189453125,-0.09576416015625,4228,-913,268,18,1,-104
529772385,-0.7484130859375,-0.1590576171875,0.63800048828125,-0.08673095703125,3897,-753,207,18,2,-124
529782365,-0.74951171875,-0.17132568359375,0.63494873046875,-0.0758056640625,3611,-568,127,18,3,-144
529792347,-0.7506103515625,-0.18487548828125,0.6312255859375,-0.06317138671875,3364,-407,88,18,4,-161
529802330,-0.75164794921875,-0.19927978515625,0.62677001953125,-0.04937744140625,3218,-255,64,18,5,-172
529812313,-0.75250244140625,-0.21417236328125,0.621826171875,-0.03485107421875,3071,-67,32,17,7,-178
529822298,-0.75311279296875,-0.2293701171875,0.6163330078125,-0.01983642578125,2910,134,17,17,8,-182
529832276,-0.75347900390625,-0.24468994140625,0.61029052734375,-0.00445556640625,2776,327,19,16,9,-186
529842267,-0.75347900390625,-0.2601318359375,0.60369873046875,0.01129150390625,2696,599,30,16,9,-190
529852250,-0.753173828125,-0.27606201171875,0.59649658203125,0.02777099609375,2594,1002,10,15,10,-197
529862231,-0.75238037109375,-0.29248046875,0.58856201171875,0.04510498046875,2500,1447,-1,14,10,-204
529872223,-0.75103759765625,-0.3092041015625,0.5799560546875,0.063232421875,2445,1897,-3,14,11,-211
529882208,-0.749267578125,-0.3260498046875,0.5706787109375,0.08184814453125,2421,2346,11,12,11,-216
529892187,-0.74688720703125,-0.3427734375,0.56085205078125,0.100830078125,2419,2857,27,11,11,-217
529902160,-0.7440185546875,-0.35919189453125,0.55059814453125,0.11968994140625,2405,3416,41,10,10,-215
529912142,-0.7406005859375,-0.3751220703125,0.54010009765625,0.13836669921875,2384,3993,52,9,10,-211
529922124,-0.73675537109375,-0.390380859375,0.52947998046875,0.15655517578125,2380,4558,60,9,9,-206
529932109,-0.73248291015625,-0.405029296875,0.518798828125,0.17413330078125,2384,5133,101,9,9,-199
529942091,-0.72784423828125,-0.4189453125,0.5081787109375,0.19097900390625,2397,5720,159,9,8,-193
529952074,-0.72296142578125,-0.43231201171875,0.49755859375,0.20721435546875,2399,6214,237,10,8,-187
529962056,-0.71783447265625,-0.44500732421875,0.48699951171875,0.22265625,2380,6666,363,10,8,-181
529972038,-0.71240234375,-0.45733642578125,0.47637939453125,0.23748779296875,2355,7166,456,12,8,-177
529982028,-0.70648193359375,-0.46966552734375,0.46563720703125,0.25201416015625,2215,7729,538,15,9,-177
529992010,-0.70001220703125,-0.48211669921875,0.4544677734375,0.2664794921875,2002,8446,611,18,9,-180
530001986,-0.69256591796875,-0.4951171875,0.44287109375,0.28125,1768,9242,613,21,8,-187
530011968,-0.68402099609375,-0.50872802734375,0.43060302734375,0.2965087890625,1517,9987,623,26,7,-199
530021954,-0.67425537109375,-0.52294921875,0.41766357421875,0.31231689453125,1214,10733,581,31,6,-208
530031937,-0.66339111328125,-0.53741455078125,0.4044189453125,0.3280029296875,912,11308,522,36,5,-212
530041920,-0.65203857421875,-0.55145263671875,0.3914794921875,0.34283447265625,607,11670,517,40,5,-204
530051904,-0.64093017578125,-0.56451416015625,0.379638671875,0.3555908203125,278,12004,506,44,6,-183
530061885,-0.63037109375,-0.57635498046875,0.36944580078125,0.3660888671875,-86,12495,449,47,6,-157
530071869,-0.6202392578125,-0.5872802734375,0.36065673828125,0.37457275390625,-496,13129,321,50,6,-138
530081850,-0.6103515625,-0.59759521484375,0.35296630859375,0.38189697265625,-875,13635,173,52,5,-127
530091832,-0.6005859375,-0.60723876953125,0.34613037109375,0.38836669921875,-1195,13918,44,53,3,-116
530101819,-0.59124755859375,-0.61602783203125,0.34033203125,0.393798828125,-1412,14003,-38,53,2,-103
530111805,-0.58282470703125,-0.62371826171875,0.3360595703125,0.39794921875,-1494,13933,-99,53,0,-83
530121787,-0.57550048828125,-0.63018798828125,0.33355712890625,0.4005126953125,-1520,13793,-107,52,-1,-62
530131767,-0.56927490234375,-0.635498046875,0.33258056640625,0.40179443359375,-1511,13646,-128,50,-2,-42
530141743,-0.56402587890625,-0.639892578125,0.332763671875,0.40216064453125,-1437,13503,-134,48,-3,-30
530151726,-0.55926513671875,-0.64373779296875,0.333251953125,0.40228271484375,-1357,13329,-102,45,-4,-27
530161710,-0.55462646484375,-0.64727783203125,0.33343505859375,0.40283203125,-1309,13151,-83,41,-5,-31
530171692,-0.54986572265625,-0.65081787109375,0.33282470703125,0.4041748046875,-1294,12994,-94,37,-6,-41
530181673,-0.54486083984375,-0.6544189453125,0.33111572265625,0.40655517578125,-1310,12845,-111,33,-8,-52
530191657,-0.53961181640625,-0.65802001953125,0.3284912109375,0.40985107421875,-1329,12658,-120,28,-9,-62
530201641,-0.5343017578125,-0.66143798828125,0.3253173828125,0.413818359375,-1363,12414,-133,24,-11,-66
530211623,-0.529296875,-0.6644287109375,0.32196044921875,0.4180908203125,-1415,12172,-149,20,-12,-66
530221605,-0.52471923828125,-0.6668701171875,0.31884765625,0.4222412109375,-1470,11931,-173,16,-14,-60
530231591,-0.520751953125,-0.668701171875,0.31634521484375,0.42620849609375,-1532,11730,-192,12,-15,-51
530241570,-0.5174560546875,-0.66986083984375,0.31439208984375,0.4298095703125,-1595,11579,-217,9,-17,-43
530251554,-0.51470947265625,-0.67041015625,0.31292724609375,0.4332275390625,-1640,11452,-237,5,-18,-37
530261536,-0.5123291015625,-0.67059326171875,0.311767578125,0.4366455078125,-1694,11328,-245,3,-20,-34
530271516,-0.5103759765625,-0.6702880859375,0.310791015625,0.44000244140625,-1742,11155,-248,0,-21,-30
530281499,-0.5087890625,-0.669677734375,0.31011962890625,0.443359375,-1752,10958,-245,-3,-22,-26
530291483,-0.507568359375,-0.66864013671875,0.30987548828125,0.4464111328125,-1722,10719,-261,-5,-23,-20
530301469,-0.5068359375,-0.66729736328125,0.31005859375,0.44921875,-1671,10454,-276,-7,-23,-13
530311451,-0.50653076171875,-0.66558837890625,0.31072998046875,0.45159912109375,-1591,10183,-280,-8,-24,-8
530321435,-0.5064697265625,-0.6636962890625,0.31170654296875,0.4537353515625,-1508,9950,-294,-8,-23,-4
530331412,-0.50665283203125,-0.6617431640625,0.312744140625,0.45562744140625,-1428,9743,-300,-9,-22,-3
530341395,-0.5068359375,-0.65997314453125,0.3134765625,0.45758056640625,-1369,9584,-282,-9,-20,-6
530351376,-0.50677490234375,-0.65838623046875,0.3138427734375,0.45953369140625,-1322,9466,-259,-9,-18,-10
530361361,-0.50653076171875,-0.65716552734375,0.313720703125,0.461669921875,-1295,9327,-239,-8,-16,-14
530371343,-0.50616455078125,-0.65618896484375,0.31317138671875,0.46380615234375,-1286,9192,-205,-9,-14,-17
530381328,-0.50579833984375,-0.65545654296875,0.31243896484375,0.46575927734375,-1275,9061,-178,-8,-11,-17
530391310,-0.50555419921875,-0.65484619140625,0.31170654296875,0.4674072265625,-1300,8927,-177,-7,-9,-15
530401294,-0.50537109375,-0.654296875,0.31109619140625,0.46875,-1374,8790,-195,-6,-7,-11
530411275,-0.5054931640625,-0.65374755859375,0.31085205078125,0.4696044921875,-1433,8659,-225,-6,-6,-6
530421267,-0.505859375,-0.653076171875,0.31103515625,0.469970703125,-1481,8523,-232,-5,-5,0
530431246,-0.50653076171875,-0.65234375,0.31158447265625,0.46990966796875,-1521,8405,-255,-4,-4,5
530441227,-0.50738525390625,-0.65155029296875,0.3123779296875,0.46954345703125,-1545,8300,-284,-3,-3,8
530451217,-0.50823974609375,-0.65087890625,0.31329345703125,0.468994140625,-1577,8248,-294,-3,-2,8
530461200,-0.50897216796875,-0.65032958984375,0.3140869140625,0.46844482421875,-1606,8212,-300,-2,-1,7
530471190,-0.509521484375,-0.64996337890625,0.3145751953125,0.468017578125,-1647,8188,-298,-1,0,3
530481157,-0.50982666015625,-0.6497802734375,0.31475830078125,0.4677734375,-1705,8170,-303,-1,0,0
530491140,-0.50994873046875,-0.6497802734375,0.31463623046875,0.46771240234375,-1764,8138,-310,-1,1,-3
530501122,-0.510009765625,-0.64990234375,0.3143310546875,0.4677734375,-1807,8096,-329,-2,1,-5
530511101,-0.50994873046875,-0.65008544921875,0.3138427734375,0.46783447265625,-1849,8058,-347,-1,2,-6
530521085,-0.50982666015625,-0.65032958984375,0.31329345703125,0.46795654296875,-1908,8032,-388,-2,2,-7
530531068,-0.50970458984375,-0.65069580078125,0.3126220703125,0.4681396484375,-1972,8021,-432,-2,2,-8
530541050,-0.50958251953125,-0.6510009765625,0.3118896484375,0.46826171875,-2018,8028,-473,-2,2,-7
530551032,-0.50946044921875,-0.6513671875,0.31103515625,0.46844482421875,-2075,8026,-488,-3,3,-8
530561020,-0.5093994140625,-0.65167236328125,0.3101806640625,0.4686279296875,-2115,8034,-522,-3,3,-8
530570998,-0.5093994140625,-0.65203857421875,0.309326171875,0.46875,-2168,8034,-543,-4,3,-7
530580983,-0.509521484375,-0.65234375,0.3084716796875,0.46875,-2209,8034,-570,-4,4,-6
530590969,-0.509765625,-0.65252685546875,0.3076171875,0.46868896484375,-2242,8027,-581,-5,5,-5
530600951,-0.51019287109375,-0.6527099609375,0.30670166015625,0.46868896484375,-2274,8044,-583,-6,5,-5
530610934,-0.5106201171875,-0.65289306640625,0.3057861328125,0.46856689453125,-2303,8045,-588,-7,5,-5
530620919,-0.51104736328125,-0.65301513671875,0.3046875,0.46856689453125,-2347,8048,-590,-8,5,-5
530630901,-0.5115966796875,-0.65313720703125,0.3035888671875,0.46856689453125,-2379,8060,-590,-8,6,-5
530640882,-0.51220703125,-0.65325927734375,0.3023681640625,0.46856689453125,-2398,8053,-590,-9,6,-6
530650867,-0.5128173828125,-0.6533203125,0.301025390625,0.4686279296875,-2423,8049,-572,-10,6,-6
530660848,-0.5135498046875,-0.65338134765625,0.299560546875,0.46868896484375,-2460,8011,-549,-11,7,-6
530670832,-0.5142822265625,-0.65338134765625,0.29815673828125,0.46875,-2506,7996,-548,-11,6,-5
530680819,-0.51507568359375,-0.6533203125,0.2967529296875,0.4688720703125,-2537,7982,-527,-11,6,-5
530690804,-0.5157470703125,-0.6533203125,0.29522705078125,0.46905517578125,-2571,7944,-503,-11,6,-6
530700786,-0.5164794921875,-0.65325927734375,0.293701171875,0.46929931640625,-2608,7915,-494,-11,6,-7
530710769,-0.51702880859375,-0.65325927734375,0.29217529296875,0.46966552734375,-2631,7881,-467,-11,5,-7
530720746,-0.517578125,-0.65313720703125,0.29071044921875,0.47015380859375,-2631,7828,-439,-11,4,-7
530730728,-0.51812744140625,-0.65301513671875,0.289306640625,0.4705810546875,-2643,7787,-400,-11,3,-7
530740712,-0.5185546875,-0.65289306640625,0.2879638671875,0.47113037109375,-2647,7744,-367,-10,2,-7
530750694,-0.51898193359375,-0.65264892578125,0.28680419921875,0.4716796875,-2657,7703,-326,-9,1,-6
530760677,-0.519287109375,-0.6524658203125,0.2857666015625,0.47216796875,-2671,7654,-287,-8,1,-6
530770661,-0.51953125,-0.6522216796875,0.284912109375,0.4727783203125,-2679,7637,-249,-7,-1,-6
530780641,-0.51959228515625,-0.652099609375,0.28411865234375,0.473388671875,-2695,7626,-234,-6,-1,-6
530790623,-0.51959228515625,-0.65191650390625,0.28350830078125,0.4739990234375,-2701,7622,-224,-5,-2,-6
530800606,-0.51947021484375,-0.65179443359375,0.28302001953125,0.4744873046875,-2682,7598,-220,-3,-2,-5
530810592,-0.51934814453125,-0.6517333984375,0.28277587890625,0.4749755859375,-2659,7578,-201,-2,-3,-4
530820577,-0.51910400390625,-0.651611328125,0.28265380859375,0.47540283203125,-2638,7563,-209,-1,-3,-3
530830555,-0.51885986328125,-0.65155029296875,0.28277587890625,0.4757080078125,-2617,7564,-194,0,-4,-1
530840544,-0.5186767578125,-0.6514892578125,0.28314208984375,0.475830078125,-2602,7571,-197,1,-4,0
530850522,-0.51849365234375,-0.6513671875,0.28363037109375,0.47589111328125,-2581,7574,-200,2,-4,1
530860506,-0.51824951171875,-0.6513671875,0.28424072265625,0.475830078125,-2562,7581,-196,3,-3,2
530870484,-0.5179443359375,-0.6513671875,0.284912109375,0.4757080078125,-2547,7563,-197,4,-4,3
530880473,-0.51763916015625,-0.6513671875,0.28570556640625,0.47552490234375,-2520,7543,-209,5,-3,3
530890456,-0.51739501953125,-0.6514892578125,0.28656005859375,0.47515869140625,-2486,7538,-212,6,-3,4
530900440,-0.51702880859375,-0.65167236328125,0.28741455078125,0.47479248046875,-2450,7518,-244,6,-2,4
530910424,-0.5166015625,-0.6519775390625,0.28839111328125,0.4742431640625,-2429,7518,-275,7,-2,4
530920400,-0.51617431640625,-0.65234375,0.289306640625,0.4736328125,-2433,7542,-305,8,-1,4
530930386,-0.515625,-0.65283203125,0.2901611328125,0.4730224609375,-2453,7597,-343,8,0,3
530940367,-0.51507568359375,-0.6534423828125,0.2908935546875,0.472412109375,-2505,7661,-358,9,0,2
530950350,-0.51446533203125,-0.654052734375,0.29156494140625,0.4718017578125,-2548,7736,-402,9,1,1
530960332,-0.5137939453125,-0.65472412109375,0.2921142578125,0.47125244140625,-2607,7814,-425,8,1,1
530970314,-0.51312255859375,-0.65533447265625,0.292724609375,0.47076416015625,-2662,7907,-447,8,0,1
530980297,-0.51239013671875,-0.65594482421875,0.293212890625,0.4703369140625,-2720,7996,-464,8,0,0
530990278,-0.51171875,-0.65643310546875,0.29376220703125,0.4700927734375,-2777,8071,-461,7,-2,0
531000268,-0.510986328125,-0.6568603515625,0.2943115234375,0.469970703125,-2821,8138,-465,7,-3,0
531010248,-0.5103759765625,-0.6571044921875,0.294921875,0.4698486328125,-2813,8171,-450,6,-4,0
531020231,-0.509765625,-0.65728759765625,0.29559326171875,0.4698486328125,-2803,8201,-438,6,-4,1
531030222,-0.50921630859375,-0.6573486328125,0.29632568359375,0.46990966796875,-2774,8204,-404,5,-5,1
531040208,-0.50872802734375,-0.6573486328125,0.29705810546875,0.47003173828125,-2726,8212,-381,5,-5,0
531050188,-0.50823974609375,-0.65728759765625,0.2977294921875,0.47021484375,-2683,8224,-362,4,-6,0
531060160,-0.5078125,-0.65716552734375,0.29827880859375,0.470458984375,-2638,8230,-332,3,-6,-1
531070140,-0.50732421875,-0.6571044921875,0.2987060546875,0.4708251953125,-2594,8246,-326,3,-5,-2
531080124,-0.5069580078125,-0.656982421875,0.29901123046875,0.47119140625,-2556,8244,-306,2,-5,-3
531090108,-0.50665283203125,-0.65679931640625,0.29925537109375,0.4715576171875,-2504,8210,-285,1,-5,-3
531100089,-0.5064697265625,-0.65667724609375,0.2994384765625,0.47186279296875,-2443,8176,-257,0,-3,-2
531110072,-0.5064697265625,-0.65643310546875,0.299560546875,0.47210693359375,-2395,8129,-240,-1,-3,-2
531120054,-0.50653076171875,-0.65625,0.29962158203125,0.47222900390625,-2362,8069,-216,-1,-2,-1
531130044,-0.50665283203125,-0.65606689453125,0.2996826171875,0.47235107421875,-2352,7979,-212,-1,-1,0
