subject,Ian Lake
arm,left
label,1
hz,100.17325045775891
time,3.65367

timestamp_us,q0,q1,q2,q3,ax,ay,az,gx,gy,gz
85958778,0.21728515625,0.64141845703125,0.29266357421875,-0.675048828125,-8192,-1015,151,-6,5,5
85968767,0.21795654296875,0.641845703125,0.29302978515625,-0.67425537109375,-8196,-1019,139,-7,5,4
85978749,0.218505859375,0.6422119140625,0.29339599609375,-0.673583984375,-8219,-1024,127,-7,5,3
85988731,0.21893310546875,0.642578125,0.29388427734375,-0.6728515625,-8242,-1023,113,-6,5,2
85998709,0.2193603515625,0.64288330078125,0.29437255859375,-0.67218017578125,-8270,-1040,102,-7,5,2
86008691,0.2198486328125,0.64324951171875,0.29486083984375,-0.6715087890625,-8290,-1046,101,-7,5,2
86018673,0.220458984375,0.6435546875,0.29522705078125,-0.67083740234375,-8293,-1045,97,-7,5,3
86028656,0.22100830078125,0.6439208984375,0.2955322265625,-0.670166015625,-8286,-1048,112,-6,5,4
86038639,0.2216796875,0.64422607421875,0.29583740234375,-0.6695556640625,-8290,-1050,100,-6,4,4
86048621,0.2222900390625,0.64453125,0.29608154296875,-0.6689453125,-8275,-1049,95,-6,4,4
86058606,0.222900390625,0.64483642578125,0.29632568359375,-0.66827392578125,-8266,-1042,80,-6,4,4
86068586,0.2235107421875,0.6451416015625,0.29656982421875,-0.667724609375,-8270,-1036,82,-6,3,4
86078569,0.22418212890625,0.6453857421875,0.29681396484375,-0.6671142578125,-8271,-1039,75,-6,3,4
86088552,0.22479248046875,0.6456298828125,0.29705810546875,-0.6666259765625,-8267,-1051,65,-6,3,4
86098536,0.22540283203125,0.64581298828125,0.29730224609375,-0.66607666015625,-8267,-1052,68,-6,3,4
86108517,0.22601318359375,0.64599609375,0.2974853515625,-0.6656494140625,-8268,-1043,78,-6,3,3
86118500,0.22662353515625,0.6461181640625,0.29779052734375,-0.6651611328125,-8289,-1038,73,-6,2,3
86128482,0.2271728515625,0.646240234375,0.29803466796875,-0.664794921875,-8293,-1042,70,-6,2,3
86138465,0.2276611328125,0.646240234375,0.29840087890625,-0.6644287109375,-8302,-1038,79,-6,2,2
86148451,0.22808837890625,0.64630126953125,0.2987060546875,-0.66412353515625,-8293,-1030,68,-5,2,1
86158432,0.22845458984375,0.64630126953125,0.299072265625,-0.663818359375,-8297,-1018,74,-6,1,0
86168422,0.2288818359375,0.646240234375,0.2994384765625,-0.66357421875,-8299,-1011,72,-5,1,1
86178404,0.229248046875,0.64617919921875,0.2998046875,-0.66326904296875,-8284,-1010,66,-5,1,1
86188388,0.22967529296875,0.6461181640625,0.30010986328125,-0.6630859375,-8280,-1012,54,-5,1,1
86198364,0.2301025390625,0.64605712890625,0.3004150390625,-0.662841796875,-8270,-1018,61,-5,0,1
86208348,0.23046875,0.64593505859375,0.30078125,-0.66265869140625,-8263,-1019,71,-5,1,1
86218329,0.2308349609375,0.6458740234375,0.30108642578125,-0.66253662109375,-8247,-1006,76,-5,0,0
86228315,0.23114013671875,0.645751953125,0.30145263671875,-0.662353515625,-8254,-983,69,-4,0,0
86238296,0.23138427734375,0.6456298828125,0.30181884765625,-0.6622314453125,-8248,-974,60,-4,0,-1
86248277,0.23162841796875,0.64544677734375,0.30218505859375,-0.662109375,-8247,-951,46,-4,0,-1
86258260,0.23187255859375,0.64532470703125,0.30255126953125,-0.6619873046875,-8253,-941,22,-4,0,-1
86268250,0.23211669921875,0.64520263671875,0.30291748046875,-0.661865234375,-8238,-940,12,-4,0,0
86278232,0.23248291015625,0.64508056640625,0.30316162109375,-0.6617431640625,-8215,-942,1,-4,0,0
86288215,0.23284912109375,0.64495849609375,0.3033447265625,-0.66162109375,-8166,-948,-6,-4,-1,1
86298201,0.23321533203125,0.64495849609375,0.303466796875,-0.6614990234375,-8149,-945,-15,-4,0,2
86308187,0.233642578125,0.64495849609375,0.30352783203125,-0.66131591796875,-8144,-941,-23,-3,0,2
86318170,0.23406982421875,0.64495849609375,0.3035888671875,-0.66107177734375,-8149,-940,-24,-3,0,3
86328153,0.2344970703125,0.64501953125,0.3035888671875,-0.660888671875,-8166,-928,-39,-3,0,2
86338123,0.23486328125,0.64508056640625,0.3035888671875,-0.66070556640625,-8184,-907,-58,-3,0,3
86348104,0.2352294921875,0.64520263671875,0.30352783203125,-0.66046142578125,-8184,-901,-57,-2,0,2
86358089,0.23553466796875,0.645263671875,0.30352783203125,-0.6602783203125,-8189,-905,-64,-2,0,2
86368073,0.23577880859375,0.64532470703125,0.30352783203125,-0.66009521484375,-8175,-899,-63,-2,1,2
86378055,0.2359619140625,0.64544677734375,0.3035888671875,-0.65997314453125,-8162,-897,-67,-2,1,1
86388037,0.23602294921875,0.64544677734375,0.30364990234375,-0.65985107421875,-8143,-904,-58,-1,1,0
86398020,0.23602294921875,0.64556884765625,0.3037109375,-0.65972900390625,-8134,-900,-67,-1,1,0
86408008,0.23590087890625,0.64569091796875,0.3038330078125,-0.65960693359375,-8122,-908,-74,0,1,0
86417993,0.23577880859375,0.64581298828125,0.30389404296875,-0.6595458984375,-8138,-909,-65,0,1,0
86427977,0.23577880859375,0.64593505859375,0.3038330078125,-0.65936279296875,-8158,-902,-90,0,2,1
86437952,0.23565673828125,0.64617919921875,0.30377197265625,-0.65924072265625,-8167,-896,-113,1,2,1
86447934,0.23565673828125,0.646484375,0.30352783203125,-0.6590576171875,-8179,-875,-138,1,2,2
86457916,0.2357177734375,0.64691162109375,0.30316162109375,-0.6588134765625,-8200,-847,-167,1,2,3
86467900,0.23583984375,0.6473388671875,0.302734375,-0.65850830078125,-8218,-821,-206,2,2,4
86477883,0.23583984375,0.64776611328125,0.30230712890625,-0.65826416015625,-8213,-833,-224,2,2,4
86487863,0.23583984375,0.648193359375,0.30181884765625,-0.6580810546875,-8190,-819,-234,3,2,4
86497848,0.23577880859375,0.648681640625,0.30133056640625,-0.65789794921875,-8159,-797,-235,3,2,3
86507830,0.235595703125,0.64910888671875,0.30084228515625,-0.65777587890625,-8123,-772,-230,4,2,2
86517813,0.2353515625,0.64947509765625,0.3004150390625,-0.65765380859375,-8105,-748,-233,4,2,2
86527797,0.23504638671875,0.64984130859375,0.300048828125,-0.65753173828125,-8082,-736,-226,4,2,1
86537778,0.2347412109375,0.6502685546875,0.29962158203125,-0.657470703125,-8067,-702,-220,4,2,1
86547765,0.234375,0.650634765625,0.2991943359375,-0.65740966796875,-8065,-688,-210,5,2,1
86557747,0.23406982421875,0.65106201171875,0.2987060546875,-0.65728759765625,-8071,-669,-210,4,2,1
86567728,0.2337646484375,0.65155029296875,0.29815673828125,-0.65716552734375,-8084,-649,-218,5,2,2
86577708,0.2335205078125,0.65203857421875,0.297607421875,-0.65704345703125,-8107,-636,-222,4,2,2
86587690,0.233154296875,0.6524658203125,0.29705810546875,-0.656982421875,-8120,-626,-230,5,2,1
86597671,0.2327880859375,0.6529541015625,0.29656982421875,-0.6568603515625,-8143,-613,-228,5,3,1
86607654,0.23248291015625,0.6534423828125,0.2960205078125,-0.65673828125,-8152,-586,-225,5,3,1
86617637,0.23211669921875,0.6539306640625,0.29547119140625,-0.6566162109375,-8162,-560,-228,5,3,1
86627620,0.231689453125,0.6544189453125,0.294921875,-0.656494140625,-8178,-571,-226,5,3,2
86637603,0.23138427734375,0.65496826171875,0.2943115234375,-0.6563720703125,-8199,-571,-226,5,3,2
86647584,0.231201171875,0.655517578125,0.2935791015625,-0.65618896484375,-8200,-564,-226,5,3,4
86657567,0.2310791015625,0.6561279296875,0.29278564453125,-0.656005859375,-8201,-573,-231,5,3,5
86667550,0.2310791015625,0.65679931640625,0.29193115234375,-0.65576171875,-8200,-569,-231,5,3,6
86677536,0.2310791015625,0.65740966796875,0.291015625,-0.655517578125,-8214,-565,-231,5,3,6
86687515,0.2310791015625,0.6580810546875,0.29010009765625,-0.65521240234375,-8226,-563,-237,5,3,6
86697497,0.2310791015625,0.65875244140625,0.28924560546875,-0.65496826171875,-8220,-554,-239,5,3,6
86707485,0.23095703125,0.65936279296875,0.28839111328125,-0.65472412109375,-8227,-554,-240,5,3,5
86717468,0.2308349609375,0.65997314453125,0.28765869140625,-0.654541015625,-8224,-547,-238,5,3,4
86727450,0.2305908203125,0.6605224609375,0.28692626953125,-0.65435791015625,-8228,-531,-235,6,3,3
86737429,0.230224609375,0.66107177734375,0.28631591796875,-0.6541748046875,-8227,-520,-259,5,3,2
86747421,0.2298583984375,0.66156005859375,0.28570556640625,-0.654052734375,-8224,-528,-263,6,3,2
86757403,0.22943115234375,0.66204833984375,0.28515625,-0.65399169921875,-8218,-527,-270,5,3,1
86767388,0.22900390625,0.66253662109375,0.28466796875,-0.65386962890625,-8222,-529,-285,5,3,1
86777362,0.228515625,0.66302490234375,0.28411865234375,-0.65374755859375,-8217,-520,-289,5,3,1
86787344,0.22808837890625,0.66351318359375,0.28363037109375,-0.6536865234375,-8211,-508,-294,5,2,1
86797326,0.2276611328125,0.66387939453125,0.2830810546875,-0.65362548828125,-8218,-492,-299,6,2,0
86807308,0.22723388671875,0.664306640625,0.2825927734375,-0.653564453125,-8235,-479,-311,5,2,1
86817291,0.22686767578125,0.6646728515625,0.2821044921875,-0.65350341796875,-8240,-473,-304,5,2,1
86827274,0.22662353515625,0.66510009765625,0.281494140625,-0.65350341796875,-8259,-467,-305,5,1,2
86837259,0.22637939453125,0.66552734375,0.2808837890625,-0.65338134765625,-8263,-467,-319,5,1,3
86847239,0.22625732421875,0.66595458984375,0.2801513671875,-0.6533203125,-8259,-471,-337,5,1,4
86857230,0.226318359375,0.6663818359375,0.27935791015625,-0.65313720703125,-8249,-478,-350,4,1,6
86867215,0.226318359375,0.6668701171875,0.278564453125,-0.65301513671875,-8227,-495,-355,4,1,6
86877200,0.22637939453125,0.6673583984375,0.27777099609375,-0.65289306640625,-8213,-487,-351,4,1,6
86887186,0.2264404296875,0.66778564453125,0.2769775390625,-0.6527099609375,-8197,-481,-349,4,1,5
86897168,0.22650146484375,0.668212890625,0.2762451171875,-0.652587890625,-8190,-479,-338,4,1,5
86907149,0.2265625,0.66864013671875,0.2755126953125,-0.6524658203125,-8180,-458,-332,4,1,5
86917119,0.2265625,0.6690673828125,0.2747802734375,-0.65228271484375,-8182,-450,-335,4,2,4
86927104,0.22650146484375,0.66943359375,0.274169921875,-0.65216064453125,-8204,-456,-341,3,1,4
86937084,0.2264404296875,0.66986083984375,0.2735595703125,-0.6519775390625,-8211,-458,-348,4,2,4
86947072,0.226318359375,0.6702880859375,0.2730712890625,-0.65185546875,-8214,-468,-366,3,2,3
86957054,0.22613525390625,0.670654296875,0.27264404296875,-0.65167236328125,-8194,-467,-385,3,2,2
86967038,0.225830078125,0.67108154296875,0.27227783203125,-0.65155029296875,-8174,-480,-391,4,2,1
86977018,0.22552490234375,0.67144775390625,0.27203369140625,-0.6513671875,-8154,-490,-406,3,2,1
86987000,0.2252197265625,0.671875,0.27166748046875,-0.65118408203125,-8145,-476,-424,3,3,1
86996990,0.224853515625,0.67230224609375,0.2713623046875,-0.6510009765625,-8137,-474,-433,3,3,1
87006972,0.22454833984375,0.67279052734375,0.27099609375,-0.6507568359375,-8137,-470,-446,4,3,2
87016950,0.2242431640625,0.6732177734375,0.2706298828125,-0.65057373046875,-8130,-477,-449,3,3,2
87026933,0.22393798828125,0.67364501953125,0.27032470703125,-0.65032958984375,-8127,-477,-448,3,3,1
87036912,0.22357177734375,0.67413330078125,0.27001953125,-0.650146484375,-8124,-480,-457,4,3,1
87046894,0.22308349609375,0.674560546875,0.26971435546875,-0.64996337890625,-8118,-475,-439,4,4,0
87056878,0.22265625,0.67498779296875,0.26947021484375,-0.6497802734375,-8105,-473,-424,4,4,0
87066860,0.22216796875,0.6754150390625,0.26922607421875,-0.6495361328125,-8092,-469,-405,4,4,0
87076841,0.2216796875,0.67584228515625,0.2689208984375,-0.6494140625,-8074,-465,-361,4,4,0
87086824,0.22119140625,0.67633056640625,0.26861572265625,-0.64923095703125,-8068,-461,-350,4,4,0
87096806,0.22076416015625,0.6768798828125,0.26824951171875,-0.64898681640625,-8079,-461,-338,4,5,1
87106788,0.22027587890625,0.6773681640625,0.267822265625,-0.64874267578125,-8085,-479,-318,5,5,1
87116769,0.21978759765625,0.6778564453125,0.26739501953125,-0.6485595703125,-8105,-493,-301,5,5,2
87126761,0.2193603515625,0.67840576171875,0.26690673828125,-0.64837646484375,-8141,-500,-293,5,5,2
87136745,0.2188720703125,0.678955078125,0.26641845703125,-0.64813232421875,-8188,-502,-278,5,5,2
87146726,0.21844482421875,0.67950439453125,0.265869140625,-0.64794921875,-8240,-514,-249,6,5,2
87156706,0.218017578125,0.6800537109375,0.2652587890625,-0.64776611328125,-8310,-520,-230,6,5,2
87166689,0.21746826171875,0.6805419921875,0.26470947265625,-0.64764404296875,-8348,-534,-206,6,5,2
87176668,0.21685791015625,0.6810302734375,0.26416015625,-0.6475830078125,-8391,-529,-152,6,4,1
87186656,0.216064453125,0.681396484375,0.26373291015625,-0.64764404296875,-8451,-548,-95,7,4,-1
87196636,0.2152099609375,0.68170166015625,0.2633056640625,-0.64776611328125,-8517,-561,-24,7,4,-2
87206616,0.2142333984375,0.68194580078125,0.262939453125,-0.64801025390625,-8603,-575,42,8,4,-3
87216600,0.2132568359375,0.68206787109375,0.2625732421875,-0.6483154296875,-8711,-582,108,8,3,-3
87226583,0.2122802734375,0.68218994140625,0.26202392578125,-0.64874267578125,-8825,-609,179,9,2,-2
87236575,0.21142578125,0.68231201171875,0.2613525390625,-0.649169921875,-8946,-631,250,9,2,0
87246551,0.21087646484375,0.682373046875,0.26043701171875,-0.649658203125,-9065,-638,311,9,1,2
87256536,0.21044921875,0.68243408203125,0.25927734375,-0.650146484375,-9176,-658,367,9,0,4
87266517,0.210205078125,0.68243408203125,0.258056640625,-0.6507568359375,-9263,-677,443,9,-1,5
87276496,0.2099609375,0.6822509765625,0.25677490234375,-0.6514892578125,-9342,-678,528,9,-3,4
87286480,0.2095947265625,0.681884765625,0.25567626953125,-0.6524658203125,-9393,-671,590,9,-4,1
87296462,0.208984375,0.6812744140625,0.2548828125,-0.65362548828125,-9462,-683,649,8,-5,-3
87306443,0.2080078125,0.68035888671875,0.25445556640625,-0.655029296875,-9534,-687,696,8,-7,-8
87316432,0.20672607421875,0.67913818359375,0.25439453125,-0.65673828125,-9627,-708,735,8,-9,-14
87326413,0.20501708984375,0.677490234375,0.25482177734375,-0.65875244140625,-9722,-731,782,8,-12,-19
87336396,0.20294189453125,0.675537109375,0.25567626953125,-0.6611328125,-9819,-765,821,8,-14,-25
87346383,0.20037841796875,0.673095703125,0.25701904296875,-0.663818359375,-9914,-841,862,8,-16,-31
87356359,0.19744873046875,0.6702880859375,0.25872802734375,-0.6668701171875,-9993,-933,887,8,-19,-37
87366344,0.19415283203125,0.66717529296875,0.2608642578125,-0.670166015625,-10042,-1040,911,8,-21,-42
87376328,0.1905517578125,0.6636962890625,0.26324462890625,-0.6737060546875,-10082,-1172,938,8,-24,-45
87386310,0.186767578125,0.6597900390625,0.26580810546875,-0.67755126953125,-10082,-1317,976,8,-26,-49
87396289,0.1827392578125,0.65570068359375,0.2685546875,-0.68157958984375,-10093,-1448,1000,8,-28,-51
87406274,0.178466796875,0.6512451171875,0.27142333984375,-0.685791015625,-10170,-1613,1030,8,-30,-54
87416257,0.174072265625,0.64654541015625,0.2744140625,-0.69012451171875,-10314,-1789,1053,9,-33,-56
87426236,0.16961669921875,0.6416015625,0.2774658203125,-0.6947021484375,-10526,-1985,1079,9,-35,-57
87436228,0.16510009765625,0.636474609375,0.2803955078125,-0.69927978515625,-10783,-2190,1098,10,-37,-57
87446210,0.1607666015625,0.63116455078125,0.28314208984375,-0.7039794921875,-11053,-2392,1097,10,-40,-55
87456200,0.15655517578125,0.62579345703125,0.28558349609375,-0.708740234375,-11327,-2585,1045,11,-42,-53
87466185,0.15264892578125,0.620361328125,0.28778076171875,-0.71343994140625,-11572,-2770,937,11,-45,-51
87476169,0.14892578125,0.61492919921875,0.28973388671875,-0.7181396484375,-11751,-2918,807,12,-47,-48
87486152,0.14532470703125,0.6092529296875,0.29144287109375,-0.72296142578125,-11855,-2998,695,13,-50,-49
87496122,0.14154052734375,0.60333251953125,0.2933349609375,-0.72796630859375,-11904,-3031,606,13,-53,-54
87506109,0.13720703125,0.59698486328125,0.29547119140625,-0.73309326171875,-11924,-3054,531,14,-55,-61
87516089,0.13214111328125,0.59014892578125,0.298095703125,-0.738525390625,-11921,-3086,477,15,-58,-70
87526073,0.12640380859375,0.58270263671875,0.30120849609375,-0.744140625,-11915,-3139,416,16,-61,-78
87536055,0.12005615234375,0.5748291015625,0.30462646484375,-0.7498779296875,-11917,-3214,374,17,-63,-84
87546036,0.11328125,0.566650390625,0.3082275390625,-0.75567626953125,-11943,-3299,326,18,-65,-89
87556020,0.10626220703125,0.55810546875,0.31207275390625,-0.761474609375,-12004,-3397,293,18,-67,-93
87566003,0.09893798828125,0.54925537109375,0.31597900390625,-0.76727294921875,-12054,-3499,289,18,-68,-96
87575991,0.0914306640625,0.5401611328125,0.320068359375,-0.77294921875,-12090,-3624,285,18,-70,-101
87585975,0.08343505859375,0.5306396484375,0.32452392578125,-0.778564453125,-12113,-3769,312,17,-71,-107
87595951,0.0748291015625,0.52081298828125,0.32940673828125,-0.78399658203125,-12160,-3892,323,16,-71,-115
87605933,0.0653076171875,0.51043701171875,0.3350830078125,-0.78924560546875,-12182,-4014,359,15,-71,-127
87615918,0.0545654296875,0.499267578125,0.3416748046875,-0.79437255859375,-12199,-4169,437,13,-72,-143
87625900,0.04248046875,0.48724365234375,0.34930419921875,-0.79925537109375,-12193,-4340,496,11,-73,-160
87635882,0.0289306640625,0.4742431640625,0.3580322265625,-0.80377197265625,-12099,-4523,553,9,-74,-177
87645872,0.0137939453125,0.46014404296875,0.36773681640625,-0.8079833984375,-11909,-4665,634,7,-75,-196
87655848,-0.00299072265625,0.44482421875,0.37847900390625,-0.81170654296875,-11685,-4813,674,5,-76,-214
87665830,-0.02105712890625,0.42840576171875,0.389892578125,-0.81488037109375,-11371,-4967,722,4,-77,-229
87675815,-0.03997802734375,0.410888671875,0.40185546875,-0.8173828125,-10942,-5115,787,2,-79,-239
87685792,-0.05950927734375,0.392333984375,0.4139404296875,-0.81927490234375,-10389,-5244,852,1,-82,-246
87695778,-0.0792236328125,0.3729248046875,0.426025390625,-0.8204345703125,-9782,-5376,878,0,-84,-250
87705762,-0.09893798828125,0.352783203125,0.43792724609375,-0.82098388671875,-9122,-5489,863,0,-86,-251
87715746,-0.11859130859375,0.33197021484375,0.449462890625,-0.82086181640625,-8392,-5577,845,1,-88,-252
87725729,-0.13824462890625,0.3104248046875,0.46051025390625,-0.820068359375,-7635,-5630,818,3,-90,-254
87735710,-0.15802001953125,0.2882080078125,0.4710693359375,-0.81854248046875,-6824,-5644,798,5,-90,-255
87745692,-0.17816162109375,0.265380859375,0.4810791015625,-0.81634521484375,-5983,-5600,765,7,-90,-259
87755675,-0.19854736328125,0.241943359375,0.490478515625,-0.81329345703125,-5108,-5491,733,10,-88,-261
87765658,-0.2193603515625,0.218017578125,0.49908447265625,-0.80950927734375,-4232,-5316,728,13,-85,-264
87775642,-0.24041748046875,0.19384765625,0.5068359375,-0.8048095703125,-3386,-5064,750,15,-81,-265
87785630,-0.26165771484375,0.169677734375,0.51361083984375,-0.79937744140625,-2592,-4720,814,17,-77,-265
87795607,-0.28277587890625,0.14569091796875,0.5194091796875,-0.79315185546875,-1848,-4296,893,19,-71,-262
87805589,-0.3037109375,0.12213134765625,0.52423095703125,-0.78619384765625,-1218,-3823,958,19,-66,-258
87815572,-0.3240966796875,0.09930419921875,0.528076171875,-0.77862548828125,-695,-3345,1025,19,-60,-250
87825557,-0.34356689453125,0.0775146484375,0.53106689453125,-0.77069091796875,-269,-2910,1076,19,-55,-239
87835539,-0.36175537109375,0.05706787109375,0.53326416015625,-0.7625732421875,109,-2502,1156,18,-50,-223
87845521,-0.37847900390625,0.03814697265625,0.53472900390625,-0.75457763671875,437,-2120,1237,16,-45,-206
87855508,-0.3936767578125,0.02069091796875,0.53564453125,-0.746826171875,731,-1762,1336,15,-41,-187
87865488,-0.40753173828125,0.00482177734375,0.5360107421875,-0.73931884765625,1011,-1446,1442,14,-36,-171
87875471,-0.42010498046875,-0.00970458984375,0.53594970703125,-0.7322998046875,1282,-1146,1581,13,-31,-156
87885453,-0.43194580078125,-0.02301025390625,0.535400390625,-0.7254638671875,1555,-846,1738,12,-26,-145
87895434,-0.443359375,-0.035400390625,0.5343017578125,-0.71881103515625,1812,-581,1885,11,-21,-138
87905425,-0.4544677734375,-0.046875,0.53277587890625,-0.71234130859375,2080,-439,2016,13,-15,-132
87915409,-0.46551513671875,-0.05767822265625,0.53045654296875,-0.70611572265625,2330,-339,2169,16,-8,-127
87925393,-0.47637939453125,-0.06768798828125,0.527099609375,-0.70050048828125,2539,-219,2295,22,0,-120
87935365,-0.48663330078125,-0.076904296875,0.52276611328125,-0.69573974609375,2697,-59,2367,28,6,-108
87945349,-0.495849609375,-0.0848388671875,0.51751708984375,-0.69219970703125,2794,130,2409,35,13,-91
87955333,-0.50347900390625,-0.09130859375,0.5115966796875,-0.6903076171875,2841,371,2411,40,19,-68
87965315,-0.5091552734375,-0.0960693359375,0.50506591796875,-0.69024658203125,2861,656,2381,45,24,-41
87975297,-0.51263427734375,-0.0989990234375,0.49835205078125,-0.69219970703125,2835,947,2322,47,27,-12
87985279,-0.513671875,-0.10009765625,0.49169921875,-0.69598388671875,2773,1247,2212,49,29,18
87995259,-0.51251220703125,-0.0994873046875,0.4852294921875,-0.70147705078125,2729,1541,2102,48,31,44
88005239,-0.50933837890625,-0.0975341796875,0.47906494140625,-0.70819091796875,2700,1819,1999,46,31,66
88015231,-0.50457763671875,-0.09429931640625,0.47332763671875,-0.71588134765625,2687,2054,1919,43,31,84
88025214,-0.4984130859375,-0.090087890625,0.4681396484375,-0.72412109375,2669,2221,1848,39,30,99
88035200,-0.49090576171875,-0.08477783203125,0.46343994140625,-0.73291015625,2652,2327,1800,34,29,113
88045186,-0.48187255859375,-0.07843017578125,0.45941162109375,-0.7420654296875,2622,2385,1757,28,27,128
88055170,-0.471435546875,-0.071044921875,0.4561767578125,-0.75146484375,2594,2375,1719,22,26,141
88065154,-0.459716796875,-0.062744140625,0.4534912109375,-0.760986328125,2558,2356,1682,15,25,152
88077989,-0.447021484375,-0.05352783203125,0.4515380859375,-0.7703857421875,2526,2300,1651,8,25,161
88085102,-0.43353271484375,-0.0433349609375,0.45013427734375,-0.77947998046875,2487,2181,1635,-1,26,167
88095081,-0.419189453125,-0.03216552734375,0.44940185546875,-0.7882080078125,2449,1983,1620,-8,27,174
88105063,-0.40435791015625,-0.0198974609375,0.4490966796875,-0.7965087890625,2376,1736,1614,-15,31,179
88115046,-0.38897705078125,-0.00653076171875,0.44927978515625,-0.80426025390625,2269,1446,1615,-23,34,184
88125029,-0.37335205078125,0.0079345703125,0.44976806640625,-0.81134033203125,2139,1155,1613,-30,40,185
88135011,-0.3577880859375,0.0233154296875,0.4505615234375,-0.817626953125,1996,870,1608,-38,45,184
88144997,-0.34271240234375,0.03936767578125,0.4515380859375,-0.82293701171875,1827,560,1618,-43,51,178
88154987,-0.32843017578125,0.05609130859375,0.45269775390625,-0.82708740234375,1660,238,1656,-50,58,171
88164969,-0.31512451171875,0.0733642578125,0.45391845703125,-0.83026123046875,1440,-128,1724,-55,65,163
88174946,-0.30255126953125,0.09130859375,0.45538330078125,-0.83233642578125,1168,-586,1791,-61,72,157
88184928,-0.29010009765625,0.1102294921875,0.4569091796875,-0.8336181640625,833,-1092,1838,-65,78,157
88194911,-0.277099609375,0.13031005859375,0.45849609375,-0.83428955078125,368,-1711,1856,-69,84,164
88204891,-0.262939453125,0.15191650390625,0.4598388671875,-0.83447265625,-166,-2360,1870,-72,89,175
88214875,-0.24749755859375,0.17462158203125,0.46087646484375,-0.83416748046875,-735,-2991,1890,-74,92,185
88224861,-0.2313232421875,0.1982421875,0.46148681640625,-0.833251953125,-1324,-3610,1865,-76,96,191
88234842,-0.2149658203125,0.2220458984375,0.46173095703125,-0.8314208984375,-1876,-4180,1852,-76,99,189
88244825,-0.19921875,0.2457275390625,0.461669921875,-0.8287353515625,-2613,-4818,1811,-75,101,181
88254809,-0.1839599609375,0.2694091796875,0.46142578125,-0.8250732421875,-3452,-5572,1675,-74,103,176
88264791,-0.16876220703125,0.292724609375,0.46075439453125,-0.8206787109375,-4212,-6246,1574,-72,102,174
88274778,-0.15380859375,0.31561279296875,0.45965576171875,-0.8157958984375,-5014,-6817,1484,-70,101,170
88284763,-0.13934326171875,0.337646484375,0.458251953125,-0.810302734375,-5747,-7302,1408,-68,99,162
88294745,-0.1260986328125,0.35833740234375,0.45684814453125,-0.80438232421875,-6315,-7641,1374,-65,96,148
88304727,-0.11474609375,0.3773193359375,0.45556640625,-0.79803466796875,-6912,-7971,1320,-61,94,128
88314705,-0.10516357421875,0.39495849609375,0.45452880859375,-0.79144287109375,-7494,-8293,1221,-57,92,111
88324687,-0.09698486328125,0.4112548828125,0.45361328125,-0.78466796875,-8016,-8551,1118,-52,89,99
88334672,-0.08941650390625,0.426513671875,0.45263671875,-0.7779541015625,-8443,-8705,1011,-49,84,93
88344654,-0.08197021484375,0.44085693359375,0.451416015625,-0.771484375,-8712,-8677,938,-47,79,91
88354638,-0.0745849609375,0.4542236328125,0.45001220703125,-0.7652587890625,-8770,-8486,923,-46,74,88
88364620,-0.0677490234375,0.46636962890625,0.44879150390625,-0.75927734375,-8670,-8157,936,-45,69,79
88374600,-0.06195068359375,0.477294921875,0.4478759765625,-0.75347900390625,-8634,-7863,875,-42,65,67
88384584,-0.05706787109375,0.48736572265625,0.44744873046875,-0.7476806640625,-8780,-7743,726,-40,62,57
88394565,-0.052490234375,0.4969482421875,0.44696044921875,-0.741943359375,-9027,-7794,490,-37,59,57
88404549,-0.04705810546875,0.506591796875,0.44580078125,-0.73651123046875,-9288,-7969,245,-35,55,69
88414536,-0.0399169921875,0.51666259765625,0.44342041015625,-0.7313232421875,-9510,-8101,7,-34,51,88
88424515,-0.03106689453125,0.52728271484375,0.43975830078125,-0.72637939453125,-9650,-8089,-183,-33,47,106
88434500,-0.0211181640625,0.53790283203125,0.4351806640625,-0.72161865234375,-9658,-7918,-336,-33,44,114
88444481,-0.01116943359375,0.548095703125,0.43048095703125,-0.717041015625,-9543,-7612,-403,-32,41,111
88454463,-0.002197265625,0.55731201171875,0.42620849609375,-0.71258544921875,-9435,-7257,-429,-30,39,97
88464445,0.0052490234375,0.5653076171875,0.4229736328125,-0.70819091796875,-9407,-6967,-517,-29,38,79
88474424,0.01123046875,0.57220458984375,0.42083740234375,-0.70379638671875,-9455,-6817,-659,-28,36,63
88484416,0.0162353515625,0.578369140625,0.41949462890625,-0.699462890625,-9526,-6716,-803,-28,34,53
88494400,0.02093505859375,0.5841064453125,0.41845703125,-0.6951904296875,-9585,-6653,-949,-29,32,51
88504376,0.02593994140625,0.58966064453125,0.41729736328125,-0.69097900390625,-9648,-6588,-1084,-29,31,54
88514359,0.0313720703125,0.59527587890625,0.4158935546875,-0.68682861328125,-9686,-6508,-1186,-30,29,58
88524344,0.037109375,0.600830078125,0.4141845703125,-0.6826171875,-9657,-6398,-1242,-30,28,62
88534324,0.04302978515625,0.6063232421875,0.412353515625,-0.6785888671875,-9622,-6264,-1252,-30,27,62
88544308,0.04864501953125,0.6114501953125,0.41064453125,-0.67462158203125,-9569,-6136,-1256,-29,27,58
88554289,0.0538330078125,0.61627197265625,0.40924072265625,-0.67071533203125,-9549,-6007,-1281,-29,26,53
88564272,0.05859375,0.62060546875,0.40814208984375,-0.66693115234375,-9537,-5905,-1309,-28,25,47
88574254,0.06292724609375,0.62451171875,0.4073486328125,-0.663330078125,-9514,-5836,-1321,-28,23,43
88584235,0.0670166015625,0.6280517578125,0.40679931640625,-0.659912109375,-9471,-5766,-1322,-28,21,40
88594226,0.0709228515625,0.6312255859375,0.40643310546875,-0.65667724609375,-9429,-5671,-1310,-28,20,36
88604209,0.0745849609375,0.63409423828125,0.40631103515625,-0.6536865234375,-9383,-5564,-1301,-27,18,33
88614188,0.077880859375,0.636474609375,0.4063720703125,-0.65087890625,-9360,-5451,-1261,-27,16,28
88624180,0.0806884765625,0.638427734375,0.40679931640625,-0.64837646484375,-9321,-5343,-1245,-25,15,21
88634168,0.08306884765625,0.639892578125,0.40765380859375,-0.6461181640625,-9272,-5224,-1235,-24,12,14
88644138,0.0848388671875,0.64080810546875,0.40887451171875,-0.6441650390625,-9184,-5099,-1191,-23,11,8
88654116,0.08624267578125,0.641357421875,0.410400390625,-0.64251708984375,-9047,-4963,-1135,-22,8,3
88664098,0.08734130859375,0.6414794921875,0.41204833984375,-0.64111328125,-8886,-4829,-1075,-21,7,-1
88674076,0.08831787109375,0.64141845703125,0.41375732421875,-0.63995361328125,-8722,-4688,-1026,-20,5,-3
88684059,0.08929443359375,0.64117431640625,0.41546630859375,-0.63897705078125,-8568,-4534,-1005,-19,3,-3
88694045,0.09033203125,0.64080810546875,0.41705322265625,-0.63812255859375,-8412,-4382,-982,-18,1,-3
88704024,0.09136962890625,0.6402587890625,0.41864013671875,-0.63751220703125,-8262,-4253,-973,-18,-1,-4
88714003,0.0924072265625,0.63970947265625,0.42010498046875,-0.636962890625,-8159,-4151,-974,-17,-2,-3
88723989,0.0936279296875,0.63909912109375,0.42144775390625,-0.63653564453125,-8060,-4064,-978,-16,-3,-2
88733982,0.094970703125,0.6385498046875,0.42254638671875,-0.63616943359375,-7964,-3987,-985,-16,-4,0
88743953,0.09649658203125,0.63800048828125,0.42333984375,-0.63592529296875,-7872,-3909,-978,-15,-5,3
88753936,0.09820556640625,0.6375732421875,0.42388916015625,-0.63568115234375,-7778,-3833,-971,-14,-5,5
88763918,0.0999755859375,0.63726806640625,0.42425537109375,-0.635498046875,-7683,-3748,-967,-13,-5,6
88773902,0.10174560546875,0.636962890625,0.42449951171875,-0.63531494140625,-7608,-3672,-968,-12,-6,7
88783884,0.10345458984375,0.63671875,0.4246826171875,-0.63519287109375,-7529,-3617,-983,-11,-6,7
88793872,0.1051025390625,0.636474609375,0.4248046875,-0.6351318359375,-7484,-3569,-1020,-10,-6,7
88803850,0.10662841796875,0.63623046875,0.42486572265625,-0.635009765625,-7453,-3543,-1064,-10,-6,7
88813834,0.108154296875,0.63616943359375,0.4248046875,-0.63494873046875,-7442,-3504,-1121,-9,-5,8
88823816,0.10980224609375,0.63616943359375,0.424560546875,-0.63482666015625,-7440,-3475,-1165,-8,-5,10
88833799,0.11151123046875,0.63629150390625,0.42401123046875,-0.63470458984375,-7433,-3428,-1201,-7,-5,13
88843780,0.1134033203125,0.63665771484375,0.4232177734375,-0.63458251953125,-7425,-3383,-1217,-6,-5,16
88853763,0.11541748046875,0.63720703125,0.42205810546875,-0.6343994140625,-7420,-3337,-1234,-5,-4,19
88863753,0.11749267578125,0.637939453125,0.42071533203125,-0.63421630859375,-7406,-3291,-1230,-4,-4,21
88873737,0.11968994140625,0.63885498046875,0.4190673828125,-0.63397216796875,-7416,-3237,-1255,-3,-3,23
88883714,0.12188720703125,0.639892578125,0.4173583984375,-0.63360595703125,-7434,-3181,-1275,-3,-2,24
88893693,0.1240234375,0.64105224609375,0.41546630859375,-0.63323974609375,-7444,-3125,-1302,-2,-2,25
88903675,0.12615966796875,0.642333984375,0.41351318359375,-0.63287353515625,-7465,-3078,-1320,-1,-1,25
88913667,0.128173828125,0.64361572265625,0.41143798828125,-0.6324462890625,-7493,-3040,-1342,0,0,26
88923644,0.13018798828125,0.64508056640625,0.4093017578125,-0.6319580078125,-7526,-2986,-1356,0,0,26
88933630,0.132080078125,0.646484375,0.40716552734375,-0.63153076171875,-7556,-2959,-1375,1,1,26
88943608,0.1337890625,0.64794921875,0.40496826171875,-0.63104248046875,-7590,-2936,-1399,2,1,25
88953592,0.13525390625,0.6494140625,0.4029541015625,-0.63055419921875,-7611,-2911,-1426,3,2,23
88963576,0.13641357421875,0.65081787109375,0.4010009765625,-0.63006591796875,-7657,-2890,-1471,3,3,21
88973559,0.13739013671875,0.652099609375,0.39935302734375,-0.62957763671875,-7700,-2859,-1527,3,3,18
88983540,0.13800048828125,0.65325927734375,0.39788818359375,-0.62921142578125,-7750,-2843,-1552,4,3,14
88993523,0.1383056640625,0.654296875,0.3966064453125,-0.62884521484375,-7777,-2806,-1588,5,3,11
89003507,0.13848876953125,0.65521240234375,0.39544677734375,-0.6285400390625,-7810,-2782,-1620,5,3,10
89013491,0.138427734375,0.65618896484375,0.39434814453125,-0.6282958984375,-7832,-2757,-1630,6,4,8
89023471,0.1383056640625,0.65704345703125,0.393310546875,-0.6280517578125,-7808,-2721,-1610,6,4,8
89033454,0.13812255859375,0.65789794921875,0.3922119140625,-0.62786865234375,-7755,-2677,-1582,7,4,7
89043443,0.1378173828125,0.65875244140625,0.39117431640625,-0.627685546875,-7712,-2645,-1563,7,4,7
89053427,0.1375732421875,0.65960693359375,0.39013671875,-0.62750244140625,-7653,-2611,-1526,7,4,7
89063408,0.13726806640625,0.66046142578125,0.3890380859375,-0.6273193359375,-7596,-2565,-1487,7,5,8
89073389,0.1370849609375,0.661376953125,0.3878173828125,-0.62713623046875,-7544,-2509,-1458,7,5,8
89083368,0.13702392578125,0.662353515625,0.38653564453125,-0.62689208984375,-7526,-2457,-1429,7,5,10
89093349,0.13714599609375,0.6634521484375,0.3851318359375,-0.62664794921875,-7525,-2416,-1399,6,5,12
89103333,0.13751220703125,0.66455078125,0.383544921875,-0.6263427734375,-7548,-2381,-1357,6,5,14
89113317,0.13818359375,0.66583251953125,0.38177490234375,-0.62591552734375,-7570,-2364,-1338,5,5,17
89123299,0.13916015625,0.66717529296875,0.3798828125,-0.62548828125,-7607,-2352,-1299,4,5,20
89133280,0.14044189453125,0.6685791015625,0.37774658203125,-0.62493896484375,-7647,-2342,-1259,3,4,23
89143263,0.14190673828125,0.66998291015625,0.37554931640625,-0.6243896484375,-7720,-2344,-1249,2,4,24
89153250,0.1434326171875,0.67144775390625,0.37335205078125,-0.62384033203125,-7803,-2341,-1228,2,4,25
89163235,0.14508056640625,0.6728515625,0.37109375,-0.623291015625,-7910,-2326,-1229,1,3,25
89173219,0.14666748046875,0.674072265625,0.36907958984375,-0.62274169921875,-7990,-2310,-1225,1,3,23
89183200,0.148193359375,0.6751708984375,0.3671875,-0.622314453125,-8085,-2291,-1229,0,2,20
89193181,0.14947509765625,0.67608642578125,0.3656005859375,-0.6219482421875,-8162,-2282,-1245,0,1,17
89203171,0.15057373046875,0.67681884765625,0.36431884765625,-0.6217041015625,-8213,-2283,-1251,0,1,14
89213159,0.15142822265625,0.67730712890625,0.36328125,-0.62158203125,-8248,-2267,-1258,0,0,11
89223134,0.15216064453125,0.67755126953125,0.362548828125,-0.62152099609375,-8268,-2266,-1266,-1,-1,7
89233108,0.152587890625,0.67767333984375,0.36212158203125,-0.62152099609375,-8265,-2259,-1289,-1,-1,4
89243087,0.15283203125,0.6776123046875,0.36199951171875,-0.62164306640625,-8259,-2249,-1277,-1,-2,1
89253074,0.15289306640625,0.67730712890625,0.36212158203125,-0.62188720703125,-8238,-2244,-1272,-1,-2,-2
89263055,0.15277099609375,0.6768798828125,0.3624267578125,-0.6221923828125,-8216,-2222,-1264,-2,-3,-5
89273035,0.152587890625,0.67626953125,0.36297607421875,-0.62255859375,-8179,-2223,-1277,-1,-3,-6
89283014,0.15234375,0.6756591796875,0.363525390625,-0.62298583984375,-8136,-2216,-1283,-2,-4,-7
89292996,0.152099609375,0.67498779296875,0.364013671875,-0.62347412109375,-8108,-2202,-1279,-1,-5,-7
89302986,0.1519775390625,0.67431640625,0.36444091796875,-0.62396240234375,-8073,-2194,-1277,-2,-5,-5
89312968,0.1519775390625,0.67364501953125,0.36480712890625,-0.62451171875,-8032,-2187,-1267,-2,-6,-4
89322945,0.152099609375,0.6729736328125,0.364990234375,-0.62506103515625,-8007,-2173,-1251,-1,-6,-3
89332926,0.15228271484375,0.67236328125,0.36505126953125,-0.6256103515625,-7968,-2167,-1245,-1,-7,-1
89342914,0.15264892578125,0.671875,0.36492919921875,-0.62615966796875,-7915,-2175,-1239,-1,-7,1
89352896,0.1531982421875,0.67144775390625,0.3646240234375,-0.62664794921875,-7876,-2187,-1243,-1,-7,4
89362878,0.15399169921875,0.671142578125,0.36407470703125,-0.6270751953125,-7846,-2189,-1256,-1,-7,6
89372861,0.15496826171875,0.67095947265625,0.36328125,-0.62750244140625,-7813,-2193,-1259,-1,-8,9
89382842,0.15606689453125,0.67083740234375,0.3623046875,-0.6279296875,-7786,-2204,-1277,-1,-8,11
89392831,0.15728759765625,0.6707763671875,0.3612060546875,-0.62835693359375,-7771,-2208,-1294,0,-8,12
89402813,0.158447265625,0.67071533203125,0.36004638671875,-0.62872314453125,-7763,-2178,-1291,0,-8,12
89412795,0.15960693359375,0.67071533203125,0.35894775390625,-0.629150390625,-7741,-2156,-1300,0,-8,11
89422778,0.16058349609375,0.67059326171875,0.3580322265625,-0.6295166015625,-7739,-2137,-1301,0,-7,9
89432766,0.16131591796875,0.67041015625,0.35723876953125,-0.62994384765625,-7741,-2133,-1326,1,-7,7
89442748,0.16192626953125,0.67022705078125,0.3565673828125,-0.63043212890625,-7743,-2141,-1354,1,-7,6
89452731,0.162353515625,0.6700439453125,0.35595703125,-0.630859375,-7730,-2135,-1376,1,-7,5
89462710,0.16265869140625,0.66986083984375,0.35540771484375,-0.63128662109375,-7705,-2150,-1392,2,-6,4
89472693,0.16290283203125,0.669677734375,0.3548583984375,-0.6317138671875,-7713,-2166,-1391,2,-6,4
89482673,0.1630859375,0.6695556640625,0.35430908203125,-0.632080078125,-7711,-2171,-1404,3,-5,5
89492655,0.163330078125,0.66949462890625,0.3536376953125,-0.6324462890625,-7709,-2175,-1397,3,-5,5
89502639,0.16351318359375,0.6695556640625,0.35296630859375,-0.63275146484375,-7710,-2187,-1398,3,-4,5
89512622,0.16363525390625,0.6695556640625,0.35223388671875,-0.633056640625,-7722,-2176,-1403,3,-4,5
89522606,0.1636962890625,0.669677734375,0.3515625,-0.63330078125,-7724,-2170,-1393,4,-3,4
89532587,0.16363525390625,0.66973876953125,0.3509521484375,-0.63360595703125,-7729,-2145,-1374,4,-3,3
89542571,0.16339111328125,0.6697998046875,0.35040283203125,-0.6339111328125,-7738,-2123,-1366,5,-3,1
89552551,0.16302490234375,0.6697998046875,0.35003662109375,-0.63421630859375,-7730,-2092,-1352,5,-2,0
89562536,0.1624755859375,0.6697998046875,0.3497314453125,-0.63458251953125,-7725,-2064,-1344,5,-2,-2
89572514,0.16180419921875,0.66973876953125,0.3494873046875,-0.6348876953125,-7736,-2035,-1341,6,-2,-3
89582497,0.1611328125,0.66973876953125,0.34918212890625,-0.63525390625,-7733,-2006,-1325,6,-1,-3
89592480,0.16046142578125,0.66973876953125,0.348876953125,-0.63555908203125,-7739,-1983,-1315,6,-1,-2
89602462,0.15985107421875,0.6697998046875,0.3485107421875,-0.6358642578125,-7742,-1978,-1303,6,-1,-1
89612448,0.15936279296875,0.66998291015625,0.34796142578125,-0.6361083984375,-7769,-1961,-1287,6,-1,0
