subject,Ian Lake
arm,left
label,0
hz,100.17235187656865
time,5.051294

timestamp_us,q0,q1,q2,q3,ax,ay,az,gx,gy,gz
9650411,0.63946533203125,-0.3209228515625,0.66473388671875,0.21466064453125,-7867,-929,-809,-1,0,4
9660389,0.63916015625,-0.32049560546875,0.66510009765625,0.215087890625,-7840,-915,-784,-1,1,5
9670366,0.6387939453125,-0.320068359375,0.66552734375,0.215576171875,-7850,-914,-764,-1,2,6
9680350,0.63836669921875,-0.319580078125,0.666015625,0.21612548828125,-7878,-926,-751,-1,2,7
9690331,0.63787841796875,-0.31903076171875,0.66656494140625,0.2166748046875,-7900,-934,-753,-1,3,7
9700312,0.63739013671875,-0.318603515625,0.66705322265625,0.2171630859375,-7943,-937,-754,-1,3,7
9710295,0.636962890625,-0.3182373046875,0.66754150390625,0.21759033203125,-7977,-928,-738,-1,3,5
9720280,0.6365966796875,-0.31805419921875,0.66790771484375,0.21783447265625,-8002,-922,-723,-1,3,3
9730264,0.63623046875,-0.31787109375,0.66827392578125,0.218017578125,-8040,-914,-717,-1,3,3
9740243,0.6358642578125,-0.3177490234375,0.66864013671875,0.2181396484375,-8082,-904,-720,-1,4,2
9750235,0.63543701171875,-0.31768798828125,0.66900634765625,0.21826171875,-8126,-896,-728,-1,3,2
9760218,0.63507080078125,-0.31756591796875,0.66937255859375,0.21832275390625,-8163,-888,-737,-1,3,2
9770206,0.63470458984375,-0.31744384765625,0.6697998046875,0.21844482421875,-8220,-877,-748,-1,3,2
9780190,0.63433837890625,-0.31732177734375,0.67010498046875,0.21856689453125,-8252,-852,-760,-1,3,2
9790174,0.634033203125,-0.31719970703125,0.67047119140625,0.21868896484375,-8276,-826,-766,-1,3,1
9800156,0.63372802734375,-0.317138671875,0.67071533203125,0.21875,-8292,-812,-774,-1,2,1
9810127,0.633544921875,-0.317138671875,0.6708984375,0.21875,-8283,-796,-781,-1,2,0
9820109,0.63330078125,-0.31719970703125,0.67108154296875,0.21881103515625,-8276,-786,-791,-1,2,0
9830094,0.63311767578125,-0.317138671875,0.6712646484375,0.218994140625,-8265,-763,-794,-1,1,1
9840078,0.6329345703125,-0.3170166015625,0.67138671875,0.21923828125,-8257,-753,-788,-2,1,2
9850059,0.6326904296875,-0.31683349609375,0.67156982421875,0.21966552734375,-8246,-751,-781,-2,1,3
9860037,0.6324462890625,-0.3165283203125,0.67181396484375,0.22021484375,-8235,-734,-782,-2,0,5
9870023,0.63214111328125,-0.31610107421875,0.6719970703125,0.220947265625,-8224,-710,-784,-3,-1,6
9880001,0.63189697265625,-0.31549072265625,0.67218017578125,0.22186279296875,-8197,-692,-772,-3,-1,8
9889990,0.631591796875,-0.31488037109375,0.67242431640625,0.222900390625,-8171,-682,-756,-4,-1,9
9899966,0.63134765625,-0.314208984375,0.672607421875,0.22412109375,-8148,-680,-732,-4,-2,10
9909950,0.63104248046875,-0.31353759765625,0.67279052734375,0.225341796875,-8109,-664,-712,-4,-2,11
9919932,0.63067626953125,-0.3128662109375,0.6729736328125,0.2266845703125,-8064,-648,-691,-5,-2,11
9929916,0.63037109375,-0.31219482421875,0.67315673828125,0.22796630859375,-8036,-658,-671,-5,-1,11
9939901,0.62994384765625,-0.3116455078125,0.67333984375,0.22930908203125,-7993,-657,-650,-5,-1,11
9949889,0.6295166015625,-0.31103515625,0.673583984375,0.23065185546875,-7957,-667,-620,-6,0,11
9959867,0.62896728515625,-0.310546875,0.673828125,0.2320556640625,-7929,-688,-611,-6,1,12
9969851,0.6282958984375,-0.3099365234375,0.6741943359375,0.2335205078125,-7939,-691,-599,-7,1,13
9979834,0.6275634765625,-0.30926513671875,0.67462158203125,0.23504638671875,-7986,-681,-612,-7,2,14
9989816,0.626708984375,-0.30865478515625,0.6751708984375,0.23663330078125,-8058,-682,-633,-7,2,15
9999799,0.62579345703125,-0.30810546875,0.67572021484375,0.23822021484375,-8131,-687,-674,-8,3,14
10009784,0.6248779296875,-0.30767822265625,0.67626953125,0.23974609375,-8210,-686,-714,-8,3,13
10019771,0.62396240234375,-0.307373046875,0.6767578125,0.24102783203125,-8290,-691,-742,-7,3,11
10029753,0.6231689453125,-0.3072509765625,0.67718505859375,0.24212646484375,-8357,-700,-768,-7,3,9
10039738,0.62237548828125,-0.3072509765625,0.6776123046875,0.242919921875,-8446,-717,-808,-6,4,7
10049712,0.6217041015625,-0.30731201171875,0.677978515625,0.2435302734375,-8531,-736,-839,-5,4,6
10059696,0.62109375,-0.307373046875,0.6783447265625,0.24395751953125,-8588,-759,-862,-4,4,4
10069680,0.62060546875,-0.3074951171875,0.6787109375,0.24420166015625,-8616,-791,-885,-3,4,4
10079665,0.6201171875,-0.3074951171875,0.6790771484375,0.24420166015625,-8625,-838,-903,-1,4,3
10089652,0.61981201171875,-0.3074951171875,0.679443359375,0.24407958984375,-8613,-902,-898,1,4,3
10099636,0.61956787109375,-0.30731201171875,0.67987060546875,0.2437744140625,-8599,-973,-910,2,3,4
10109612,0.619384765625,-0.306884765625,0.6802978515625,0.24346923828125,-8602,-1028,-927,4,3,5
10119594,0.6192626953125,-0.30615234375,0.68084716796875,0.24322509765625,-8622,-1068,-969,6,2,7
10129578,0.619140625,-0.3050537109375,0.6815185546875,0.24298095703125,-8667,-1098,-1016,8,1,10
10139561,0.619140625,-0.3035888671875,0.6822509765625,0.2427978515625,-8717,-1113,-1076,9,0,12
10149543,0.61920166015625,-0.30194091796875,0.6829833984375,0.24261474609375,-8771,-1104,-1123,11,-1,12
10159526,0.61944580078125,-0.3001708984375,0.68365478515625,0.24224853515625,-8811,-1092,-1156,13,-3,11
10169508,0.6199951171875,-0.29833984375,0.68414306640625,0.24176025390625,-8816,-1086,-1182,14,-4,9
10179491,0.62078857421875,-0.296630859375,0.68450927734375,0.24090576171875,-8829,-1072,-1203,16,-6,6
10189473,0.62176513671875,-0.29498291015625,0.6846923828125,0.23974609375,-8832,-1038,-1196,17,-7,3
10199452,0.623046875,-0.29339599609375,0.68475341796875,0.23834228515625,-8849,-1014,-1215,19,-8,1
10209437,0.62445068359375,-0.29180908203125,0.68463134765625,0.23675537109375,-8870,-984,-1230,20,-10,-1
10219425,0.6260986328125,-0.2901611328125,0.6844482421875,0.235107421875,-8869,-959,-1245,21,-12,-1
10229406,0.62786865234375,-0.28826904296875,0.6842041015625,0.2333984375,-8863,-931,-1257,23,-13,-1
10239392,0.62969970703125,-0.28619384765625,0.6839599609375,0.231689453125,-8841,-892,-1266,24,-14,0
10249368,0.6317138671875,-0.28387451171875,0.68365478515625,0.22998046875,-8800,-857,-1261,25,-16,1
10259350,0.63385009765625,-0.28143310546875,0.68328857421875,0.228271484375,-8756,-800,-1245,27,-17,1
10269332,0.6361083984375,-0.27880859375,0.68280029296875,0.22650146484375,-8718,-759,-1225,27,-18,1
10279316,0.63848876953125,-0.276123046875,0.68231201171875,0.22467041015625,-8673,-731,-1179,29,-19,1
10289298,0.6409912109375,-0.27325439453125,0.68170166015625,0.22283935546875,-8626,-701,-1118,30,-20,1
10299282,0.6435546875,-0.27032470703125,0.68115234375,0.22088623046875,-8577,-665,-1065,31,-20,1
10309264,0.64617919921875,-0.2672119140625,0.68048095703125,0.21893310546875,-8523,-619,-993,32,-21,1
10319243,0.64886474609375,-0.26397705078125,0.67987060546875,0.21685791015625,-8479,-574,-947,33,-21,1
10329237,0.65155029296875,-0.2607421875,0.67919921875,0.2147216796875,-8439,-524,-900,33,-21,0
10339219,0.65423583984375,-0.25750732421875,0.67852783203125,0.21258544921875,-8398,-474,-872,34,-22,0
10349206,0.656982421875,-0.2542724609375,0.67779541015625,0.21026611328125,-8347,-417,-831,34,-21,-2
10359192,0.65972900390625,-0.25103759765625,0.67706298828125,0.2078857421875,-8283,-362,-794,35,-21,-2
10369177,0.6624755859375,-0.24786376953125,0.67633056640625,0.20550537109375,-8212,-315,-741,35,-21,-3
10379160,0.6651611328125,-0.24462890625,0.675537109375,0.20306396484375,-8148,-265,-669,35,-21,-3
10389131,0.6678466796875,-0.2413330078125,0.6748046875,0.20062255859375,-8098,-210,-594,35,-20,-3
10399112,0.67041015625,-0.23809814453125,0.67413330078125,0.1982421875,-8029,-161,-534,34,-20,-2
10409097,0.6728515625,-0.23486328125,0.67352294921875,0.1959228515625,-7967,-104,-462,34,-19,-3
10419080,0.67529296875,-0.23162841796875,0.6728515625,0.1934814453125,-7896,-48,-400,34,-18,-3
10429062,0.6776123046875,-0.228515625,0.67230224609375,0.19110107421875,-7807,2,-332,34,-17,-4
10439044,0.67987060546875,-0.22552490234375,0.6717529296875,0.1885986328125,-7705,19,-261,33,-16,-4
10449027,0.6820068359375,-0.22259521484375,0.6712646484375,0.18609619140625,-7625,29,-177,33,-15,-5
10459012,0.68402099609375,-0.2197265625,0.67083740234375,0.18353271484375,-7540,10,-113,33,-13,-4
10468996,0.68597412109375,-0.21673583984375,0.6705322265625,0.1810302734375,-7445,-5,-48,33,-13,-3
10478989,0.68780517578125,-0.21356201171875,0.67034912109375,0.17864990234375,-7377,-28,10,34,-11,0
10488962,0.68963623046875,-0.2099609375,0.67010498046875,0.176513671875,-7448,-127,224,35,-11,6
10498944,0.6912841796875,-0.205078125,0.6702880859375,0.1751708984375,-7453,-166,299,39,-12,19
10508930,0.69293212890625,-0.198974609375,0.67071533203125,0.17401123046875,-7428,-291,256,45,-13,26
10518912,0.69482421875,-0.193115234375,0.671142578125,0.1715087890625,-7346,-352,192,52,-13,13
10528894,0.69683837890625,-0.18768310546875,0.67156982421875,0.16741943359375,-7261,-395,122,58,-11,2
10538878,0.69891357421875,-0.18255615234375,0.67218017578125,0.162109375,-7197,-401,60,63,-8,-5
10548858,0.7008056640625,-0.17718505859375,0.6729736328125,0.1563720703125,-7164,-403,-2,67,-6,-4
10558848,0.70245361328125,-0.171142578125,0.6741943359375,0.150634765625,-7153,-395,-79,71,-3,2
10568822,0.7037353515625,-0.1640625,0.67572021484375,0.14544677734375,-7147,-334,-112,73,-2,12
10578813,0.70465087890625,-0.15582275390625,0.6776123046875,0.1409912109375,-7145,-226,-142,76,0,23
10588791,0.70526123046875,-0.14654541015625,0.6798095703125,0.137451171875,-7152,-62,-144,77,1,34
10598772,0.70562744140625,-0.13629150390625,0.68218994140625,0.1346435546875,-7185,149,-142,77,2,42
10608766,0.7056884765625,-0.12542724609375,0.68463134765625,0.1324462890625,-7247,389,-143,77,3,48
10618747,0.7054443359375,-0.11419677734375,0.6871337890625,0.13067626953125,-7324,648,-157,76,3,51
10628725,0.705078125,-0.10302734375,0.68951416015625,0.12921142578125,-7411,932,-165,74,3,51
10638708,0.70458984375,-0.0921630859375,0.69183349609375,0.12774658203125,-7469,1196,-166,72,4,48
10648690,0.7039794921875,-0.08203125,0.69403076171875,0.12615966796875,-7513,1441,-165,68,5,42
10658675,0.70330810546875,-0.07281494140625,0.69610595703125,0.12420654296875,-7572,1651,-154,64,6,34
10668657,0.70257568359375,-0.064697265625,0.69805908203125,0.1219482421875,-7620,1864,-150,60,7,26
10678640,0.7017822265625,-0.0576171875,0.6998291015625,0.11944580078125,-7650,2062,-127,54,8,18
10688621,0.70098876953125,-0.05157470703125,0.70159912109375,0.11688232421875,-7678,2256,-94,49,9,11
10698605,0.70013427734375,-0.0465087890625,0.70318603515625,0.1143798828125,-7711,2433,-59,42,10,6
10708587,0.6990966796875,-0.04229736328125,0.70477294921875,0.11224365234375,-7743,2595,-31,35,11,3
10718568,0.69805908203125,-0.03887939453125,0.706298828125,0.110595703125,-7793,2749,-20,28,12,2
10728552,0.69677734375,-0.0361328125,0.70782470703125,0.10968017578125,-7806,2860,-4,20,14,3
10738532,0.6954345703125,-0.033935546875,0.70928955078125,0.109619140625,-7822,2953,6,12,15,5
10748517,0.69390869140625,-0.0322265625,0.71075439453125,0.1104736328125,-7836,3017,7,3,15,8
10758499,0.69219970703125,-0.03094482421875,0.712158203125,0.11236572265625,-7866,3064,5,-5,16,12
10768478,0.6903076171875,-0.030029296875,0.71356201171875,0.1153564453125,-7874,3092,-1,-14,18,16
10778464,0.688232421875,-0.02960205078125,0.71490478515625,0.11932373046875,-7886,3107,-14,-22,19,19
10788449,0.6859130859375,-0.0296630859375,0.71630859375,0.12420654296875,-7890,3094,-58,-30,21,22
10798436,0.68341064453125,-0.0303955078125,0.71771240234375,0.1297607421875,-7899,3069,-104,-39,22,22
10808419,0.68072509765625,-0.0318603515625,0.71905517578125,0.135986328125,-7898,3034,-158,-46,24,22
10818402,0.677734375,-0.0340576171875,0.720458984375,0.14263916015625,-7891,2988,-222,-53,26,20
10828378,0.674560546875,-0.03717041015625,0.72186279296875,0.14959716796875,-7884,2946,-292,-60,28,17
10838359,0.671142578125,-0.04119873046875,0.7232666015625,0.1568603515625,-7878,2899,-391,-66,30,14
10848343,0.66754150390625,-0.046142578125,0.7247314453125,0.1641845703125,-7888,2832,-503,-72,32,10
10858326,0.66363525390625,-0.05194091796875,0.7261962890625,0.171630859375,-7895,2767,-630,-78,35,6
10868308,0.65948486328125,-0.0584716796875,0.7276611328125,0.17926025390625,-7922,2685,-770,-83,36,4
10878294,0.655029296875,-0.0657958984375,0.7291259765625,0.18695068359375,-7970,2578,-925,-87,39,1
10888272,0.6502685546875,-0.0736083984375,0.73052978515625,0.19482421875,-8019,2459,-1094,-91,41,0
10898258,0.645263671875,-0.0819091796875,0.73193359375,0.20281982421875,-8062,2324,-1254,-95,42,-1
10908244,0.64007568359375,-0.09063720703125,0.73321533203125,0.2108154296875,-8097,2191,-1396,-98,43,-3
10918228,0.6346435546875,-0.09979248046875,0.734375,0.21881103515625,-8141,2053,-1530,-99,44,-4
10928211,0.6290283203125,-0.10931396484375,0.73541259765625,0.2266845703125,-8175,1915,-1647,-101,46,-6
10938190,0.62335205078125,-0.11920166015625,0.736328125,0.234375,-8201,1775,-1762,-103,46,-9
10948182,0.6175537109375,-0.12939453125,0.73712158203125,0.2418212890625,-8222,1637,-1858,-103,47,-12
10958164,0.6116943359375,-0.13983154296875,0.7376708984375,0.2490234375,-8231,1493,-1940,-103,47,-14
10968142,0.6058349609375,-0.1505126953125,0.738037109375,0.255859375,-8244,1355,-2032,-102,46,-17
10978119,0.5999755859375,-0.161376953125,0.73828125,0.262451171875,-8263,1203,-2116,-102,46,-18
10988100,0.59417724609375,-0.1722412109375,0.73828125,0.2686767578125,-8276,1046,-2181,-101,45,-19
10998084,0.58837890625,-0.18304443359375,0.738037109375,0.27471923828125,-8292,894,-2246,-99,44,-20
11008066,0.582763671875,-0.1937255859375,0.73760986328125,0.280517578125,-8305,739,-2273,-98,43,-21
11018051,0.5772705078125,-0.2041015625,0.73699951171875,0.28607177734375,-8345,594,-2317,-95,41,-20
11028032,0.57196044921875,-0.21417236328125,0.7362060546875,0.29144287109375,-8409,461,-2340,-92,39,-19
11038015,0.56683349609375,-0.22381591796875,0.73516845703125,0.296630859375,-8484,342,-2348,-89,36,-18
11047998,0.56207275390625,-0.23297119140625,0.7340087890625,0.3016357421875,-8560,223,-2337,-85,33,-16
11057985,0.55755615234375,-0.24151611328125,0.732666015625,0.30645751953125,-8636,117,-2322,-81,29,-14
11067964,0.553466796875,-0.24945068359375,0.73114013671875,0.31109619140625,-8707,18,-2295,-77,25,-12
11077947,0.5498046875,-0.2568359375,0.7294921875,0.3155517578125,-8748,-51,-2254,-73,22,-11
11087930,0.5465087890625,-0.2635498046875,0.72772216796875,0.3197021484375,-8788,-112,-2227,-68,18,-10
11097912,0.54364013671875,-0.269775390625,0.725830078125,0.3236083984375,-8816,-157,-2199,-63,14,-10
11107894,0.54132080078125,-0.2755126953125,0.72381591796875,0.3271484375,-8851,-195,-2169,-58,10,-10
11117878,0.53948974609375,-0.2806396484375,0.7218017578125,0.33038330078125,-8867,-220,-2141,-52,6,-9
11127860,0.5380859375,-0.2852783203125,0.71966552734375,0.33331298828125,-8877,-243,-2107,-47,3,-9
11137843,0.53717041015625,-0.289306640625,0.717529296875,0.33587646484375,-8863,-279,-2052,-42,-1,-8
11147821,0.5367431640625,-0.292724609375,0.71539306640625,0.338134765625,-8840,-312,-1986,-36,-4,-7
11157804,0.53668212890625,-0.2955322265625,0.71331787109375,0.34014892578125,-8811,-336,-1924,-30,-7,-5
11167787,0.5369873046875,-0.29766845703125,0.71136474609375,0.3419189453125,-8779,-362,-1873,-25,-10,-3
11177774,0.53759765625,-0.299072265625,0.7095947265625,0.34344482421875,-8728,-367,-1818,-19,-12,0
11187762,0.5384521484375,-0.2998046875,0.7080078125,0.34478759765625,-8699,-368,-1767,-14,-14,2
11197742,0.53955078125,-0.2998046875,0.70660400390625,0.345947265625,-8659,-350,-1726,-8,-16,5
11207718,0.5408935546875,-0.299072265625,0.70538330078125,0.34686279296875,-8607,-333,-1667,-3,-19,9
11217705,0.54241943359375,-0.29766845703125,0.7044677734375,0.34759521484375,-8560,-317,-1612,3,-20,11
11227684,0.544189453125,-0.29559326171875,0.7037353515625,0.34808349609375,-8510,-279,-1557,8,-21,14
11237667,0.54608154296875,-0.29296875,0.7032470703125,0.34832763671875,-8462,-252,-1510,13,-22,16
11247649,0.5482177734375,-0.289794921875,0.702880859375,0.348388671875,-8415,-191,-1448,18,-23,18
11257636,0.55047607421875,-0.2860107421875,0.7027587890625,0.34814453125,-8383,-123,-1392,23,-24,19
11267616,0.5528564453125,-0.28179931640625,0.702880859375,0.34759521484375,-8359,-67,-1348,28,-25,21
11277599,0.55535888671875,-0.27703857421875,0.703125,0.34686279296875,-8338,-3,-1285,32,-25,23
11287581,0.55792236328125,-0.2718505859375,0.70361328125,0.345947265625,-8307,62,-1246,36,-26,25
11297565,0.560546875,-0.26617431640625,0.70428466796875,0.3447265625,-8290,137,-1205,40,-26,26
11307549,0.56329345703125,-0.26007080078125,0.705078125,0.34326171875,-8271,211,-1161,45,-26,27
11317530,0.5660400390625,-0.25360107421875,0.7060546875,0.341552734375,-8238,283,-1143,48,-27,27
11327516,0.56890869140625,-0.24688720703125,0.7071533203125,0.3394775390625,-8230,363,-1115,52,-27,27
11337497,0.5718994140625,-0.23980712890625,0.708251953125,0.337158203125,-8217,463,-1099,56,-27,27
11347481,0.57501220703125,-0.23260498046875,0.70947265625,0.33447265625,-8222,576,-1092,59,-28,26
11357464,0.57818603515625,-0.22515869140625,0.71063232421875,0.33148193359375,-8235,702,-1078,62,-29,25
11367449,0.58148193359375,-0.21771240234375,0.71185302734375,0.328125,-8247,829,-1074,64,-28,22
11377433,0.58489990234375,-0.21014404296875,0.7130126953125,0.32440185546875,-8260,936,-1085,67,-29,21
11387425,0.58837890625,-0.20263671875,0.71417236328125,0.32025146484375,-8254,1027,-1093,69,-30,18
11397407,0.592041015625,-0.1951904296875,0.71527099609375,0.31573486328125,-8228,1125,-1082,71,-30,15
11407391,0.595703125,-0.18780517578125,0.71630859375,0.310791015625,-8197,1210,-1082,73,-29,12
11417371,0.5994873046875,-0.1805419921875,0.71734619140625,0.3055419921875,-8148,1303,-1075,75,-29,9
11427351,0.60333251953125,-0.17327880859375,0.71826171875,0.29998779296875,-8101,1406,-1064,76,-29,6
11437335,0.607177734375,-0.16619873046875,0.7191162109375,0.29412841796875,-8059,1496,-1054,77,-29,4
11447317,0.6109619140625,-0.1591796875,0.719970703125,0.28802490234375,-8004,1605,-1051,78,-29,2
11457295,0.61474609375,-0.15228271484375,0.720703125,0.28173828125,-7970,1691,-1039,78,-28,0
11467283,0.61846923828125,-0.1453857421875,0.721435546875,0.2752685546875,-7949,1754,-1031,78,-28,-1
11477266,0.6220703125,-0.13848876953125,0.72210693359375,0.268798828125,-7936,1826,-1020,79,-27,0
11487241,0.62554931640625,-0.13134765625,0.7227783203125,0.26251220703125,-7914,1898,-1000,79,-27,2
11497233,0.62884521484375,-0.1240234375,0.72344970703125,0.25628662109375,-7924,1965,-1002,79,-27,4
11507222,0.6319580078125,-0.11651611328125,0.72412109375,0.25030517578125,-7922,2020,-992,78,-27,6
11517206,0.63482666015625,-0.10882568359375,0.7247314453125,0.2445068359375,-7928,2077,-989,78,-26,9
11527192,0.6375732421875,-0.1009521484375,0.725341796875,0.23895263671875,-7942,2129,-998,77,-26,11
11537177,0.64019775390625,-0.09295654296875,0.725830078125,0.23358154296875,-7960,2156,-991,76,-26,14
11547160,0.6427001953125,-0.084716796875,0.72625732421875,0.22845458984375,-7981,2181,-995,76,-27,16
11557130,0.64508056640625,-0.07623291015625,0.7265625,0.2236328125,-7992,2215,-978,75,-27,20
11567112,0.64739990234375,-0.06744384765625,0.72674560546875,0.21917724609375,-7982,2272,-979,74,-28,23
11577094,0.64959716796875,-0.05859375,0.726806640625,0.2149658203125,-7952,2352,-966,73,-29,24
11587077,0.65179443359375,-0.0498046875,0.72674560546875,0.2108154296875,-7903,2424,-950,71,-29,23
11597060,0.65399169921875,-0.04119873046875,0.72650146484375,0.2066650390625,-7857,2522,-915,70,-30,21
11607043,0.65618896484375,-0.0328369140625,0.72607421875,0.20257568359375,-7820,2632,-885,68,-30,19
11617026,0.65838623046875,-0.02484130859375,0.7255859375,0.198486328125,-7812,2747,-874,66,-30,17
11627009,0.6605224609375,-0.01727294921875,0.7249755859375,0.19427490234375,-7815,2861,-860,64,-30,14
11636995,0.6627197265625,-0.01019287109375,0.7242431640625,0.1900634765625,-7794,2968,-837,61,-30,10
11646982,0.66485595703125,-0.00372314453125,0.723388671875,0.18572998046875,-7771,3069,-810,59,-29,6
11656957,0.66705322265625,0.002197265625,0.7225341796875,0.18133544921875,-7742,3163,-763,56,-28,2
11666938,0.66912841796875,0.007568359375,0.7216796875,0.17694091796875,-7688,3250,-732,53,-27,-2
11676915,0.67120361328125,0.01239013671875,0.72076416015625,0.172607421875,-7622,3322,-682,49,-26,-4
11686900,0.673095703125,0.0167236328125,0.7198486328125,0.16839599609375,-7541,3388,-637,46,-24,-7
11696881,0.67498779296875,0.02056884765625,0.71893310546875,0.1644287109375,-7469,3461,-566,42,-22,-9
11706863,0.67669677734375,0.02386474609375,0.71807861328125,0.16070556640625,-7410,3540,-500,38,-20,-10
11716846,0.67822265625,0.0267333984375,0.71728515625,0.15728759765625,-7346,3603,-450,33,-18,-11
11726830,0.6795654296875,0.02911376953125,0.716552734375,0.154296875,-7313,3676,-408,28,-16,-12
11736812,0.6806640625,0.03106689453125,0.7159423828125,0.15167236328125,-7266,3724,-375,24,-13,-12
11746794,0.681640625,0.03253173828125,0.71539306640625,0.1495361328125,-7230,3762,-334,18,-11,-12
11756774,0.68243408203125,0.03363037109375,0.71502685546875,0.14788818359375,-7181,3780,-300,14,-8,-12
11766764,0.68292236328125,0.03424072265625,0.7147216796875,0.146728515625,-7130,3777,-276,8,-6,-11
11776747,0.6832275390625,0.03460693359375,0.71453857421875,0.14617919921875,-7097,3769,-253,3,-3,-9
11786734,0.68328857421875,0.03460693359375,0.7144775390625,0.14617919921875,-7091,3743,-241,-2,0,-7
11796704,0.68304443359375,0.03436279296875,0.71453857421875,0.1468505859375,-7100,3726,-232,-7,2,-4
11806686,0.68255615234375,0.0338134765625,0.71478271484375,0.14813232421875,-7103,3701,-236,-12,5,-2
11816675,0.681884765625,0.032958984375,0.715087890625,0.14996337890625,-7106,3659,-218,-17,7,0
11826655,0.68096923828125,0.03173828125,0.71551513671875,0.15228271484375,-7126,3607,-238,-21,10,1
11836637,0.6798095703125,0.03021240234375,0.716064453125,0.15509033203125,-7132,3555,-249,-25,13,2
11846621,0.678466796875,0.0284423828125,0.71673583984375,0.15826416015625,-7168,3510,-271,-29,15,3
11856601,0.67681884765625,0.0262451171875,0.71759033203125,0.161865234375,-7192,3470,-308,-33,17,3
11866583,0.675048828125,0.0235595703125,0.71844482421875,0.16571044921875,-7233,3442,-364,-37,19,2
11876567,0.67303466796875,0.0203857421875,0.719482421875,0.16973876953125,-7275,3389,-414,-41,22,1
11886554,0.67095947265625,0.01666259765625,0.7205810546875,0.17388916015625,-7313,3344,-472,-45,23,-2
11896532,0.66864013671875,0.012451171875,0.72174072265625,0.1781005859375,-7350,3292,-528,-48,25,-4
11906515,0.666259765625,0.0076904296875,0.72296142578125,0.182373046875,-7380,3213,-596,-51,27,-6
11916498,0.6636962890625,0.00244140625,0.7242431640625,0.18670654296875,-7423,3145,-640,-54,28,-8
11926480,0.6610107421875,-0.003173828125,0.72552490234375,0.191162109375,-7468,3072,-701,-56,30,-9
11936464,0.65826416015625,-0.00921630859375,0.726806640625,0.1956787109375,-7516,2996,-757,-59,31,-10
11946449,0.6552734375,-0.0155029296875,0.72808837890625,0.20025634765625,-7560,2923,-819,-61,32,-11
11956438,0.6522216796875,-0.02203369140625,0.7293701171875,0.2049560546875,-7592,2843,-880,-63,33,-11
11966419,0.6490478515625,-0.02880859375,0.73065185546875,0.209716796875,-7649,2768,-948,-65,34,-12
11976402,0.645751953125,-0.0357666015625,0.7318115234375,0.214599609375,-7706,2689,-1017,-66,34,-12
11986380,0.64239501953125,-0.04278564453125,0.73291015625,0.21954345703125,-7776,2606,-1072,-67,34,-10
11996363,0.63897705078125,-0.04974365234375,0.73394775390625,0.2247314453125,-7859,2535,-1120,-68,34,-8
12006350,0.6353759765625,-0.0565185546875,0.73486328125,0.23016357421875,-7945,2495,-1179,-69,34,-6
12018995,0.63177490234375,-0.0631103515625,0.73565673828125,0.23583984375,-8027,2439,-1230,-70,32,-3
12026313,0.628173828125,-0.069580078125,0.73626708984375,0.24169921875,-8110,2378,-1269,-71,31,-1
12036300,0.62457275390625,-0.07586669921875,0.7366943359375,0.2476806640625,-8155,2312,-1309,-71,30,0
12046281,0.62109375,-0.08203125,0.7369384765625,0.253662109375,-8187,2262,-1344,-71,28,1
12056263,0.61767578125,-0.08819580078125,0.737060546875,0.25958251953125,-8205,2195,-1376,-70,27,0
12066256,0.61444091796875,-0.094482421875,0.7369384765625,0.2652587890625,-8216,2124,-1381,-70,25,-1
12076234,0.61138916015625,-0.10076904296875,0.73663330078125,0.270751953125,-8234,2067,-1388,-69,24,-4
12086216,0.6085205078125,-0.10723876953125,0.7362060546875,0.27593994140625,-8226,2000,-1393,-68,22,-6
12096195,0.6058349609375,-0.11376953125,0.73553466796875,0.28082275390625,-8229,1938,-1377,-67,21,-8
12106188,0.6033935546875,-0.12030029296875,0.73480224609375,0.28533935546875,-8243,1870,-1368,-65,19,-10
12116174,0.60113525390625,-0.1268310546875,0.73388671875,0.2896728515625,-8265,1801,-1365,-63,18,-12
12126155,0.5989990234375,-0.1331787109375,0.73284912109375,0.293701171875,-8273,1740,-1364,-61,16,-12
12136125,0.5970458984375,-0.13934326171875,0.73175048828125,0.297607421875,-8284,1656,-1355,-59,15,-11
12146107,0.59515380859375,-0.145263671875,0.7305908203125,0.30126953125,-8302,1575,-1328,-57,14,-11
12156091,0.59344482421875,-0.15081787109375,0.72943115234375,0.3048095703125,-8312,1497,-1298,-54,12,-9
12166074,0.591796875,-0.156005859375,0.72821044921875,0.3082275390625,-8310,1416,-1262,-51,11,-8
12176057,0.59033203125,-0.1607666015625,0.72705078125,0.3115234375,-8295,1331,-1224,-48,10,-6
12186038,0.5888671875,-0.16522216796875,0.725830078125,0.3145751953125,-8281,1261,-1186,-45,9,-5
12196021,0.58758544921875,-0.169189453125,0.7247314453125,0.31744384765625,-8260,1196,-1135,-41,8,-4
12206002,0.58636474609375,-0.17279052734375,0.72369384765625,0.320068359375,-8241,1141,-1094,-38,7,-3
12215992,0.5853271484375,-0.176025390625,0.72271728515625,0.322509765625,-8232,1086,-1041,-34,6,-1
12225982,0.5843505859375,-0.1788330078125,0.7218017578125,0.32470703125,-8214,1037,-997,-30,5,0
12235954,0.58343505859375,-0.18115234375,0.7210693359375,0.32672119140625,-8222,1016,-957,-26,4,2
12245936,0.58270263671875,-0.1829833984375,0.72039794921875,0.3284912109375,-8238,1001,-914,-22,3,4
12255920,0.58203125,-0.1844482421875,0.7198486328125,0.330078125,-8289,1023,-878,-19,2,4
12265900,0.58154296875,-0.18548583984375,0.7193603515625,0.33148193359375,-8323,1053,-850,-15,1,5
12275883,0.58123779296875,-0.186279296875,0.7188720703125,0.33258056640625,-8371,1102,-839,-12,0,4
12285866,0.5811767578125,-0.18682861328125,0.7183837890625,0.33343505859375,-8402,1148,-831,-9,-2,3
12295847,0.58123779296875,-0.1871337890625,0.71795654296875,0.333984375,-8430,1187,-844,-6,-4,3
12305829,0.58160400390625,-0.187255859375,0.71746826171875,0.3343505859375,-8427,1217,-832,-3,-5,3
12315809,0.5821533203125,-0.1871337890625,0.71697998046875,0.33447265625,-8420,1228,-828,-1,-7,2
12325797,0.58294677734375,-0.186767578125,0.71649169921875,0.33447265625,-8396,1249,-821,2,-8,2
12335774,0.5838623046875,-0.18609619140625,0.71600341796875,0.334228515625,-8371,1264,-798,4,-10,3
12345766,0.58489990234375,-0.1851806640625,0.71551513671875,0.33392333984375,-8337,1283,-772,6,-11,3
12355750,0.58612060546875,-0.18402099609375,0.715087890625,0.33349609375,-8320,1315,-729,9,-12,3
12365733,0.58740234375,-0.1826171875,0.714599609375,0.33294677734375,-8293,1336,-698,11,-13,4
12375708,0.5888671875,-0.1810302734375,0.71417236328125,0.332275390625,-8257,1370,-676,13,-14,4
12385690,0.59039306640625,-0.17919921875,0.7137451171875,0.33148193359375,-8235,1425,-642,14,-15,4
12395674,0.59197998046875,-0.17730712890625,0.71331787109375,0.3304443359375,-8222,1455,-628,16,-15,3
12405656,0.59368896484375,-0.17529296875,0.71295166015625,0.32928466796875,-8196,1511,-612,18,-16,2
12415639,0.595458984375,-0.17327880859375,0.71258544921875,0.327880859375,-8165,1550,-592,19,-16,1
12425621,0.59735107421875,-0.1712646484375,0.71221923828125,0.3262939453125,-8113,1577,-582,21,-16,0
12435605,0.5992431640625,-0.169189453125,0.7119140625,0.32452392578125,-8065,1591,-561,22,-16,-1
12445586,0.60113525390625,-0.16705322265625,0.71173095703125,0.32257080078125,-8029,1608,-549,24,-15,-1
12455569,0.60302734375,-0.164794921875,0.7115478515625,0.320556640625,-7992,1630,-529,25,-15,-1
12465557,0.6048583984375,-0.16241455078125,0.71148681640625,0.31854248046875,-7974,1653,-497,26,-14,0
12475536,0.6065673828125,-0.15985107421875,0.7115478515625,0.31646728515625,-7937,1683,-467,27,-14,1
12485520,0.60821533203125,-0.1571044921875,0.711669921875,0.31439208984375,-7910,1703,-457,28,-13,3
12495503,0.6097412109375,-0.154296875,0.71185302734375,0.3123779296875,-7886,1745,-427,28,-12,3
12505485,0.61114501953125,-0.15130615234375,0.712158203125,0.31036376953125,-7869,1786,-412,29,-12,4
12515467,0.61248779296875,-0.1483154296875,0.7125244140625,0.308349609375,-7861,1831,-399,29,-11,5
12525449,0.61376953125,-0.14520263671875,0.712890625,0.30633544921875,-7858,1876,-402,30,-11,5
12535430,0.61492919921875,-0.14208984375,0.71343994140625,0.3043212890625,-7857,1928,-413,30,-10,6
12545422,0.61602783203125,-0.13897705078125,0.71392822265625,0.30230712890625,-7870,1984,-432,30,-9,6
12555406,0.6170654296875,-0.1358642578125,0.7144775390625,0.30029296875,-7882,2020,-435,29,-9,5
12565382,0.6180419921875,-0.1329345703125,0.715087890625,0.2982177734375,-7885,2070,-453,29,-9,4
12575363,0.61907958984375,-0.1300048828125,0.71563720703125,0.29608154296875,-7887,2100,-450,29,-8,3
12585350,0.62005615234375,-0.127197265625,0.7161865234375,0.2939453125,-7899,2137,-445,29,-8,3
12595332,0.62091064453125,-0.1243896484375,0.71673583984375,0.29180908203125,-7911,2173,-447,29,-7,3
12605316,0.621826171875,-0.12164306640625,0.71728515625,0.28973388671875,-7924,2201,-454,28,-7,3
12615299,0.62261962890625,-0.11895751953125,0.7178955078125,0.2877197265625,-7957,2252,-462,28,-7,3
12625281,0.62335205078125,-0.11627197265625,0.71844482421875,0.2857666015625,-7988,2305,-464,27,-7,3
12635265,0.6241455078125,-0.1136474609375,0.71893310546875,0.28387451171875,-7998,2349,-467,26,-6,3
12645243,0.6248779296875,-0.1112060546875,0.71942138671875,0.28192138671875,-7997,2378,-471,25,-6,2
12655236,0.6256103515625,-0.10894775390625,0.71990966796875,0.280029296875,-7992,2413,-478,24,-6,1
12665220,0.6263427734375,-0.10687255859375,0.72027587890625,0.27813720703125,-7976,2432,-477,23,-6,-1
12675196,0.62713623046875,-0.10491943359375,0.7205810546875,0.27630615234375,-7977,2470,-477,22,-6,-2
12685188,0.6279296875,-0.1031494140625,0.72088623046875,0.2744140625,-7968,2482,-494,21,-6,-2
12695174,0.628662109375,-0.10150146484375,0.72119140625,0.27264404296875,-7981,2505,-510,20,-6,-3
12705153,0.62939453125,-0.099853515625,0.72137451171875,0.27093505859375,-7989,2532,-518,19,-6,-3
12715124,0.630126953125,-0.098388671875,0.7215576171875,0.26934814453125,-7995,2548,-530,18,-6,-3
12725107,0.630859375,-0.09698486328125,0.72161865234375,0.26788330078125,-7986,2565,-545,16,-6,-3
12735089,0.63153076171875,-0.095703125,0.72174072265625,0.26654052734375,-7977,2573,-542,15,-6,-3
12745072,0.6322021484375,-0.09442138671875,0.72174072265625,0.26531982421875,-7974,2588,-542,14,-6,-2
12755056,0.6328125,-0.09326171875,0.72174072265625,0.2642822265625,-7954,2593,-543,12,-6,-2
12765038,0.6334228515625,-0.092041015625,0.72174072265625,0.26336669921875,-7930,2595,-543,11,-6,-1
12775026,0.6339111328125,-0.0909423828125,0.7216796875,0.26263427734375,-7908,2606,-549,10,-6,0
12785007,0.63446044921875,-0.08984375,0.7215576171875,0.26202392578125,-7895,2602,-553,9,-6,0
12794995,0.6348876953125,-0.08880615234375,0.72149658203125,0.26153564453125,-7874,2594,-547,8,-6,1
12804977,0.63525390625,-0.08782958984375,0.72137451171875,0.26123046875,-7858,2581,-546,6,-5,1
12814955,0.6356201171875,-0.08685302734375,0.72125244140625,0.260986328125,-7860,2571,-558,5,-5,2
12824937,0.63592529296875,-0.0859375,0.72113037109375,0.26092529296875,-7844,2551,-568,5,-5,3
12834921,0.63616943359375,-0.08502197265625,0.72100830078125,0.26092529296875,-7844,2533,-556,4,-5,3
12844902,0.6363525390625,-0.08416748046875,0.72088623046875,0.26104736328125,-7830,2512,-564,3,-5,4
12854887,0.63653564453125,-0.08331298828125,0.7208251953125,0.26116943359375,-7838,2491,-569,3,-4,4
12864869,0.63665771484375,-0.08258056640625,0.72076416015625,0.26129150390625,-7829,2474,-581,3,-4,4
12874855,0.63677978515625,-0.0819091796875,0.720703125,0.2613525390625,-7810,2464,-598,2,-4,3
12884839,0.6368408203125,-0.081298828125,0.720703125,0.26141357421875,-7792,2454,-604,2,-3,2
12894822,0.6368408203125,-0.08087158203125,0.72076416015625,0.2613525390625,-7767,2433,-616,2,-2,1
12904806,0.63690185546875,-0.08056640625,0.7208251953125,0.26123046875,-7728,2406,-618,2,-2,-1
12914784,0.63690185546875,-0.0804443359375,0.72088623046875,0.26092529296875,-7692,2391,-617,2,-1,-2
12924771,0.63690185546875,-0.08050537109375,0.72100830078125,0.260498046875,-7678,2368,-634,2,0,-4
12934757,0.63690185546875,-0.08062744140625,0.72119140625,0.260009765625,-7683,2361,-634,2,1,-4
12944740,0.63677978515625,-0.080810546875,0.72149658203125,0.25946044921875,-7684,2360,-646,2,2,-5
12954713,0.63665771484375,-0.0810546875,0.7218017578125,0.25885009765625,-7691,2342,-668,2,2,-5
12964697,0.63641357421875,-0.08135986328125,0.72222900390625,0.2581787109375,-7696,2321,-702,2,3,-5
12974681,0.63616943359375,-0.08160400390625,0.72265625,0.25750732421875,-7697,2308,-718,3,3,-5
12984664,0.6358642578125,-0.08184814453125,0.72314453125,0.2568359375,-7691,2299,-732,3,4,-5
12994645,0.635498046875,-0.08203125,0.72369384765625,0.2562255859375,-7685,2300,-743,3,4,-4
13004629,0.63507080078125,-0.08221435546875,0.7242431640625,0.25555419921875,-7688,2281,-743,3,5,-5
13014610,0.63458251953125,-0.0823974609375,0.724853515625,0.2548828125,-7711,2297,-741,4,5,-4
13024593,0.6341552734375,-0.08251953125,0.7254638671875,0.2542724609375,-7749,2323,-722,3,5,-4
13034576,0.63372802734375,-0.082763671875,0.72607421875,0.25360107421875,-7799,2318,-687,3,6,-4
13044558,0.63330078125,-0.0828857421875,0.7265625,0.2530517578125,-7833,2342,-655,3,5,-4
13054542,0.63287353515625,-0.0831298828125,0.72705078125,0.2525634765625,-7897,2350,-587,2,6,-4
13064524,0.632568359375,-0.0833740234375,0.72747802734375,0.25213623046875,-7954,2361,-520,2,5,-4
13074508,0.63226318359375,-0.08355712890625,0.727783203125,0.25189208984375,-8022,2356,-426,1,4,-3
13084492,0.632080078125,-0.083740234375,0.72802734375,0.251708984375,-8058,2344,-356,1,4,-2
13094475,0.6319580078125,-0.0838623046875,0.7281494140625,0.251708984375,-8105,2321,-279,-1,3,-1
13104455,0.63189697265625,-0.0841064453125,0.7281494140625,0.251708984375,-8128,2300,-211,-1,2,-2
13114435,0.6319580078125,-0.08441162109375,0.72808837890625,0.251708984375,-8146,2272,-137,-1,2,-3
13124427,0.63214111328125,-0.0848388671875,0.7279052734375,0.25164794921875,-8140,2244,-81,-2,1,-4
13134409,0.63232421875,-0.08526611328125,0.7276611328125,0.25152587890625,-8168,2226,-50,-2,0,-4
13144391,0.632568359375,-0.08575439453125,0.7274169921875,0.25146484375,-8201,2211,-33,-2,0,-4
13154371,0.63287353515625,-0.086181640625,0.7271728515625,0.2513427734375,-8238,2206,-33,-2,-1,-4
13164350,0.6331787109375,-0.08648681640625,0.7269287109375,0.251220703125,-8277,2211,-68,-1,-1,-4
13174335,0.6334228515625,-0.0867919921875,0.7266845703125,0.25103759765625,-8330,2195,-124,0,-1,-3
13184317,0.63372802734375,-0.0869140625,0.72650146484375,0.25079345703125,-8389,2176,-174,1,-1,-3
13194300,0.634033203125,-0.08697509765625,0.726318359375,0.25054931640625,-8427,2157,-230,1,-3,-2
13204282,0.63446044921875,-0.08697509765625,0.72607421875,0.250244140625,-8467,2145,-294,2,-3,-2
13214265,0.6348876953125,-0.08685302734375,0.725830078125,0.2498779296875,-8469,2114,-356,2,-5,-3
13224243,0.635498046875,-0.0867919921875,0.7254638671875,0.2493896484375,-8449,2086,-419,3,-6,-3
13234235,0.63616943359375,-0.08673095703125,0.72509765625,0.24884033203125,-8393,2050,-476,3,-7,-4
13244217,0.636962890625,-0.086669921875,0.72467041015625,0.2481689453125,-8332,2028,-542,3,-8,-5
13254206,0.63775634765625,-0.08673095703125,0.72418212890625,0.2474365234375,-8268,1998,-607,4,-8,-7
13264189,0.638671875,-0.08685302734375,0.72369384765625,0.24652099609375,-8214,1969,-652,3,-9,-8
13274174,0.63958740234375,-0.0870361328125,0.72314453125,0.24560546875,-8147,1963,-666,4,-9,-9
13284155,0.64056396484375,-0.0872802734375,0.72259521484375,0.24456787109375,-8087,1963,-653,4,-9,-10
13294125,0.6416015625,-0.08758544921875,0.72198486328125,0.2435302734375,-8030,1956,-639,4,-9,-10
13304110,0.642578125,-0.08782958984375,0.721435546875,0.242431640625,-7987,1983,-622,4,-8,-11
13314093,0.6435546875,-0.088134765625,0.72088623046875,0.241455078125,-7958,2011,-616,4,-8,-10
13324077,0.6444091796875,-0.08831787109375,0.72039794921875,0.240478515625,-7947,2040,-622,3,-8,-9
13334059,0.64520263671875,-0.0885009765625,0.719970703125,0.23968505859375,-7944,2078,-603,3,-7,-8
13344043,0.64593505859375,-0.08868408203125,0.719482421875,0.239013671875,-7910,2098,-609,2,-7,-8
13354025,0.6466064453125,-0.08880615234375,0.71905517578125,0.2384033203125,-7856,2105,-585,2,-6,-7
13364006,0.647216796875,-0.0889892578125,0.7186279296875,0.2379150390625,-7799,2102,-550,1,-6,-7
13373994,0.64776611328125,-0.0892333984375,0.71826171875,0.237548828125,-7746,2082,-509,0,-5,-6
13383979,0.64825439453125,-0.0894775390625,0.7178955078125,0.23724365234375,-7705,2039,-456,-1,-4,-5
13393955,0.64862060546875,-0.0897216796875,0.71759033203125,0.2371826171875,-7668,2017,-411,-1,-3,-4
13403939,0.64886474609375,-0.08990478515625,0.71728515625,0.23724365234375,-7644,1971,-350,-2,-3,-2
13413920,0.6490478515625,-0.09002685546875,0.717041015625,0.23736572265625,-7623,1941,-310,-2,-2,-1
13423910,0.64910888671875,-0.09014892578125,0.7169189453125,0.237548828125,-7627,1914,-269,-2,0,-1
13433893,0.6490478515625,-0.09027099609375,0.71685791015625,0.23779296875,-7646,1902,-245,-3,0,0
13443871,0.64898681640625,-0.0904541015625,0.71685791015625,0.23797607421875,-7683,1878,-248,-3,1,-1
13453852,0.6488037109375,-0.09075927734375,0.71697998046875,0.238037109375,-7725,1851,-255,-2,2,-2
13463836,0.648681640625,-0.09112548828125,0.71710205078125,0.23785400390625,-7770,1810,-268,-1,2,-3
13473816,0.64849853515625,-0.0916748046875,0.71728515625,0.23748779296875,-7826,1786,-278,-1,3,-5
13483803,0.6484375,-0.09222412109375,0.71746826171875,0.23699951171875,-7879,1779,-300,0,3,-7
13493784,0.6483154296875,-0.093017578125,0.71771240234375,0.2362060546875,-7926,1777,-319,1,3,-9
13503770,0.64825439453125,-0.09381103515625,0.718017578125,0.23529052734375,-7951,1779,-332,1,4,-11
13513756,0.64825439453125,-0.0947265625,0.71820068359375,0.23419189453125,-7983,1784,-347,2,3,-12
13523739,0.6483154296875,-0.09564208984375,0.71844482421875,0.2330322265625,-8006,1799,-368,2,3,-12
13533715,0.6483154296875,-0.09649658203125,0.71868896484375,0.23187255859375,-8031,1826,-408,2,3,-12
13543697,0.6483154296875,-0.0972900390625,0.71893310546875,0.2308349609375,-8055,1846,-445,2,3,-11
13553680,0.6483154296875,-0.09796142578125,0.7191162109375,0.2298583984375,-8074,1857,-479,2,2,-9
13563664,0.64825439453125,-0.098388671875,0.7193603515625,0.2291259765625,-8075,1864,-512,2,2,-7
13573645,0.648193359375,-0.0987548828125,0.7196044921875,0.22857666015625,-8077,1857,-532,1,2,-5
13583636,0.6480712890625,-0.09881591796875,0.71978759765625,0.22821044921875,-8077,1869,-543,1,1,-3
13593617,0.64794921875,-0.09881591796875,0.71990966796875,0.22802734375,-8079,1864,-545,1,1,-1
13603603,0.6478271484375,-0.0986328125,0.7200927734375,0.22802734375,-8100,1869,-542,1,1,1
13613582,0.64764404296875,-0.0982666015625,0.72021484375,0.22821044921875,-8115,1882,-534,0,0,2
13623566,0.6474609375,-0.09783935546875,0.7203369140625,0.228515625,-8126,1881,-543,0,0,3
13633548,0.64727783203125,-0.097412109375,0.720458984375,0.2288818359375,-8130,1873,-558,0,0,4
13643532,0.6470947265625,-0.096923828125,0.72052001953125,0.22930908203125,-8120,1863,-565,-1,-1,4
13653510,0.64691162109375,-0.096435546875,0.72064208984375,0.22979736328125,-8120,1864,-574,-1,-1,5
13663489,0.646728515625,-0.095947265625,0.72064208984375,0.2303466796875,-8119,1849,-574,-1,-1,6
13673472,0.6466064453125,-0.09539794921875,0.720703125,0.23095703125,-8116,1830,-555,-1,-1,6
13683454,0.64642333984375,-0.0948486328125,0.720703125,0.2315673828125,-8123,1813,-550,-2,-1,6
13693434,0.646240234375,-0.0943603515625,0.72076416015625,0.232177734375,-8116,1799,-541,-1,-1,6
13703430,0.6461181640625,-0.09393310546875,0.72076416015625,0.23272705078125,-8113,1786,-516,-2,-1,5
13713417,0.64599609375,-0.09368896484375,0.72076416015625,0.23309326171875,-8100,1772,-485,-2,0,3
13723397,0.64593505859375,-0.09368896484375,0.720703125,0.23333740234375,-8095,1779,-460,-2,0,1
13733378,0.64593505859375,-0.09381103515625,0.720703125,0.2333984375,-8116,1780,-435,-2,0,-2
13743355,0.64593505859375,-0.09417724609375,0.72064208984375,0.23333740234375,-8124,1786,-406,-2,0,-3
13753338,0.64599609375,-0.0946044921875,0.7205810546875,0.23321533203125,-8150,1801,-377,-2,1,-4
13763320,0.64605712890625,-0.0950927734375,0.72052001953125,0.2330322265625,-8155,1810,-334,-2,1,-5
13773303,0.6461181640625,-0.09564208984375,0.720458984375,0.23284912109375,-8164,1819,-306,-2,1,-5
13783285,0.646240234375,-0.09613037109375,0.7203369140625,0.232666015625,-8165,1829,-280,-2,0,-5
13793267,0.6463623046875,-0.09674072265625,0.72021484375,0.23248291015625,-8149,1837,-271,-2,0,-5
13803256,0.646484375,-0.0972900390625,0.72003173828125,0.23236083984375,-8149,1841,-267,-3,0,-6
13813243,0.64666748046875,-0.09783935546875,0.7198486328125,0.23223876953125,-8141,1834,-268,-3,-1,-5
13823222,0.6468505859375,-0.09844970703125,0.71966552734375,0.23211669921875,-8135,1834,-274,-3,-1,-5
13833206,0.64703369140625,-0.0989990234375,0.71942138671875,0.23211669921875,-8125,1827,-287,-3,-1,-5
13843192,0.64715576171875,-0.09954833984375,0.71923828125,0.23211669921875,-8118,1823,-299,-4,-1,-4
13853179,0.64727783203125,-0.0999755859375,0.718994140625,0.2322998046875,-8128,1820,-326,-4,-1,-3
13863160,0.64739990234375,-0.10028076171875,0.71881103515625,0.2325439453125,-8149,1821,-357,-4,-2,-2
13873130,0.6474609375,-0.10052490234375,0.7186279296875,0.23284912109375,-8147,1833,-384,-4,-2,-1
13883111,0.64752197265625,-0.10076904296875,0.7183837890625,0.233154296875,-8153,1834,-406,-4,-2,-1
13893097,0.6475830078125,-0.10107421875,0.71820068359375,0.23345947265625,-8161,1840,-433,-4,-2,-2
13903079,0.647705078125,-0.10150146484375,0.71795654296875,0.23370361328125,-8145,1827,-450,-4,-2,-3
13913063,0.64776611328125,-0.10205078125,0.7177734375,0.23382568359375,-8119,1819,-474,-5,-2,-4
13923040,0.64788818359375,-0.1026611328125,0.71759033203125,0.23388671875,-8082,1804,-496,-4,-1,-5
13933024,0.64801025390625,-0.10345458984375,0.71734619140625,0.23382568359375,-8057,1799,-515,-5,-1,-7
13943006,0.64813232421875,-0.104248046875,0.7171630859375,0.23370361328125,-8019,1793,-531,-5,-1,-7
13952994,0.64825439453125,-0.10504150390625,0.71697998046875,0.23358154296875,-7991,1770,-544,-5,-1,-6
13962979,0.6483154296875,-0.1058349609375,0.716796875,0.2335205078125,-7972,1749,-551,-4,-1,-6
13972955,0.64837646484375,-0.10650634765625,0.7166748046875,0.23345947265625,-7923,1724,-549,-4,-1,-5
13982946,0.64837646484375,-0.10711669921875,0.71661376953125,0.2335205078125,-7877,1713,-552,-4,0,-4
13992925,0.6483154296875,-0.107666015625,0.716552734375,0.23358154296875,-7826,1695,-533,-4,0,-3
14002907,0.648193359375,-0.10809326171875,0.716552734375,0.23370361328125,-7780,1693,-534,-3,1,-3
14012892,0.6480712890625,-0.10845947265625,0.71661376953125,0.2337646484375,-7751,1690,-530,-3,1,-3
14022878,0.6478271484375,-0.10882568359375,0.71673583984375,0.23382568359375,-7748,1704,-535,-2,2,-2
14032856,0.6475830078125,-0.109130859375,0.7169189453125,0.23388671875,-7743,1715,-543,-2,2,-2
14042838,0.647216796875,-0.10943603515625,0.7171630859375,0.23382568359375,-7745,1726,-566,-2,3,-3
14052823,0.6468505859375,-0.10980224609375,0.71746826171875,0.2337646484375,-7762,1738,-579,-2,3,-3
14062804,0.64642333984375,-0.110107421875,0.7178955078125,0.233642578125,-7784,1745,-616,-1,4,-2
14072788,0.6458740234375,-0.11029052734375,0.71832275390625,0.233642578125,-7832,1767,-631,-1,4,-1
14082772,0.64532470703125,-0.1103515625,0.71875,0.2337646484375,-7884,1770,-642,-1,5,0
14092758,0.64471435546875,-0.11029052734375,0.71923828125,0.23394775390625,-7956,1777,-649,-1,5,2
14102741,0.64410400390625,-0.110107421875,0.71978759765625,0.2342529296875,-8016,1781,-653,-1,5,3
14112716,0.6434326171875,-0.10980224609375,0.72027587890625,0.234619140625,-8077,1775,-651,-1,4,4
14122701,0.64288330078125,-0.1094970703125,0.72064208984375,0.23504638671875,-8131,1776,-615,-1,4,5
14132686,0.64239501953125,-0.1092529296875,0.72100830078125,0.23541259765625,-8178,1777,-593,-1,3,4
14142668,0.6419677734375,-0.10906982421875,0.7213134765625,0.23577880859375,-8217,1778,-574,-1,3,3
14152652,0.64166259765625,-0.10888671875,0.72149658203125,0.236083984375,-8248,1768,-543,-1,2,3
14162636,0.641357421875,-0.10870361328125,0.7216796875,0.2364501953125,-8280,1775,-516,-2,2,3
14172619,0.64117431640625,-0.108642578125,0.72174072265625,0.23687744140625,-8307,1764,-480,-2,1,3
14182599,0.6409912109375,-0.10858154296875,0.72174072265625,0.23736572265625,-8302,1765,-455,-3,1,3
14192585,0.640869140625,-0.1085205078125,0.72174072265625,0.23785400390625,-8298,1743,-416,-3,0,2
14202567,0.6407470703125,-0.10858154296875,0.72161865234375,0.2384033203125,-8277,1741,-389,-4,0,2
14212550,0.64068603515625,-0.10870361328125,0.721435546875,0.23895263671875,-8243,1723,-371,-5,0,2
14222530,0.640625,-0.10894775390625,0.7213134765625,0.23956298828125,-8198,1715,-341,-5,0,1
14232515,0.64056396484375,-0.1092529296875,0.7210693359375,0.2401123046875,-8177,1715,-307,-6,0,0
14242495,0.64056396484375,-0.10980224609375,0.7208251953125,0.24066162109375,-8142,1705,-291,-7,0,-1
14252477,0.64056396484375,-0.11041259765625,0.7205810546875,0.24114990234375,-8111,1689,-266,-7,0,-2
14262458,0.6405029296875,-0.11114501953125,0.72039794921875,0.24163818359375,-8090,1684,-253,-7,1,-2
14272436,0.64044189453125,-0.11187744140625,0.72015380859375,0.2421875,-8061,1676,-237,-8,1,-2
14282431,0.64031982421875,-0.1126708984375,0.71990966796875,0.24273681640625,-8048,1667,-234,-8,1,-2
14292414,0.64019775390625,-0.1134033203125,0.7197265625,0.2432861328125,-8041,1653,-250,-8,1,-1
14302395,0.6400146484375,-0.1141357421875,0.71954345703125,0.24395751953125,-8045,1647,-264,-8,1,-1
14312376,0.6397705078125,-0.11474609375,0.71942138671875,0.24462890625,-8056,1648,-296,-8,1,1
14322357,0.6395263671875,-0.115234375,0.71929931640625,0.24542236328125,-8093,1651,-336,-8,1,2
14332339,0.6392822265625,-0.11566162109375,0.71917724609375,0.2462158203125,-8134,1649,-368,-8,1,2
14342323,0.6390380859375,-0.11614990234375,0.71905517578125,0.24700927734375,-8161,1643,-406,-8,0,2
14352304,0.6387939453125,-0.1165771484375,0.71893310546875,0.24774169921875,-8200,1640,-433,-7,0,2
14362293,0.638671875,-0.11700439453125,0.71875,0.2484130859375,-8248,1639,-451,-7,0,1
14372271,0.6385498046875,-0.11749267578125,0.71856689453125,0.2490234375,-8256,1661,-466,-7,0,0
14382257,0.63848876953125,-0.1180419921875,0.7183837890625,0.24945068359375,-8284,1665,-483,-6,-1,-2
14392239,0.63848876953125,-0.11865234375,0.7181396484375,0.24981689453125,-8309,1665,-503,-6,-1,-2
14402222,0.6385498046875,-0.119384765625,0.7178955078125,0.25,-8314,1651,-515,-6,-1,-3
14412206,0.638671875,-0.12005615234375,0.7176513671875,0.250244140625,-8316,1641,-530,-6,-2,-4
14422192,0.6387939453125,-0.120849609375,0.71734619140625,0.2503662109375,-8294,1633,-536,-6,-2,-4
14432177,0.63897705078125,-0.12158203125,0.717041015625,0.25048828125,-8275,1613,-544,-5,-2,-5
14442160,0.63916015625,-0.12237548828125,0.7166748046875,0.25054931640625,-8259,1594,-538,-5,-3,-5
14452130,0.63946533203125,-0.1231689453125,0.71630859375,0.25054931640625,-8240,1573,-530,-5,-3,-5
14462113,0.6397705078125,-0.12384033203125,0.71588134765625,0.2506103515625,-8224,1560,-505,-5,-3,-5
14472095,0.64013671875,-0.12451171875,0.7154541015625,0.25054931640625,-8210,1559,-507,-4,-3,-5
14482078,0.6405029296875,-0.1251220703125,0.71502685546875,0.25042724609375,-8204,1546,-514,-3,-4,-5
14492060,0.640869140625,-0.1256103515625,0.71466064453125,0.25030517578125,-8179,1527,-517,-2,-4,-5
14502051,0.64129638671875,-0.12603759765625,0.71429443359375,0.25006103515625,-8155,1488,-510,-1,-4,-5
14512031,0.6417236328125,-0.12640380859375,0.71392822265625,0.249755859375,-8126,1478,-489,-1,-4,-4
14522019,0.6422119140625,-0.1265869140625,0.713623046875,0.24945068359375,-8085,1460,-468,0,-5,-4
14531998,0.6427001953125,-0.126708984375,0.7132568359375,0.2491455078125,-8052,1447,-448,1,-5,-3
14541986,0.6431884765625,-0.12652587890625,0.71295166015625,0.24884033203125,-8030,1433,-418,2,-5,-2
14551976,0.64361572265625,-0.126220703125,0.71270751953125,0.24859619140625,-8002,1427,-391,3,-5,0
14561945,0.64404296875,-0.125732421875,0.71246337890625,0.24835205078125,-7986,1434,-354,4,-5,1
14571926,0.6444091796875,-0.12506103515625,0.7122802734375,0.24822998046875,-7977,1445,-317,4,-4,2
14581908,0.644775390625,-0.12420654296875,0.71221923828125,0.24810791015625,-7979,1462,-292,5,-4,3
14591894,0.64508056640625,-0.123291015625,0.71209716796875,0.24798583984375,-8004,1467,-268,6,-4,4
14601878,0.6453857421875,-0.12225341796875,0.7120361328125,0.2479248046875,-8030,1488,-251,6,-4,5
14611858,0.64569091796875,-0.1212158203125,0.71197509765625,0.247802734375,-8060,1507,-260,6,-4,5
14621842,0.64593505859375,-0.12017822265625,0.7119140625,0.24774169921875,-8100,1536,-280,6,-4,5
14631824,0.646240234375,-0.11920166015625,0.71185302734375,0.2476806640625,-8129,1558,-270,5,-4,5
14641808,0.6466064453125,-0.1181640625,0.71173095703125,0.24761962890625,-8149,1583,-291,5,-5,4
14651791,0.64691162109375,-0.11724853515625,0.71160888671875,0.24749755859375,-8168,1610,-323,5,-5,3
14661769,0.64727783203125,-0.116455078125,0.71148681640625,0.24737548828125,-8176,1627,-346,5,-5,3
14671760,0.64764404296875,-0.11572265625,0.7113037109375,0.2471923828125,-8179,1643,-367,4,-5,2
14681746,0.6480712890625,-0.1151123046875,0.71112060546875,0.2469482421875,-8182,1646,-388,4,-5,0
14691723,0.64849853515625,-0.11456298828125,0.7109375,0.24658203125,-8172,1642,-406,4,-5,0
14701705,0.64892578125,-0.11407470703125,0.71075439453125,0.2462158203125,-8164,1645,-426,4,-5,-1
