subject,Ian Lake
arm,right
label,0
hz,100.171667431475
time,5.670266

timestamp_us,q0,q1,q2,q3,ax,ay,az,gx,gy,gz
124902618,0.74560546875,-0.1070556640625,-0.63385009765625,-0.1756591796875,8163,698,1474,-8,7,1
124912601,0.74615478515625,-0.1077880859375,-0.6329345703125,-0.17633056640625,8094,670,1496,-9,7,1
124922584,0.74664306640625,-0.1085205078125,-0.6319580078125,-0.177001953125,8007,624,1527,-10,7,1
124932566,0.74725341796875,-0.109375,-0.6309814453125,-0.1776123046875,7897,579,1543,-10,7,2
124942549,0.747802734375,-0.1103515625,-0.6300048828125,-0.17816162109375,7783,514,1550,-10,6,3
124952537,0.74835205078125,-0.111328125,-0.6290283203125,-0.17864990234375,7678,453,1557,-10,6,3
124962516,0.74884033203125,-0.1123046875,-0.62811279296875,-0.17913818359375,7587,389,1560,-9,6,2
124972499,0.74920654296875,-0.1131591796875,-0.62738037109375,-0.17962646484375,7508,314,1543,-9,4,1
124982482,0.74945068359375,-0.1138916015625,-0.6268310546875,-0.18011474609375,7449,262,1523,-8,3,0
124992464,0.74957275390625,-0.1143798828125,-0.62640380859375,-0.1806640625,7396,211,1512,-7,2,-2
125002449,0.74957275390625,-0.11474609375,-0.626220703125,-0.18115234375,7364,167,1470,-5,0,-3
125012430,0.74945068359375,-0.11492919921875,-0.626220703125,-0.181640625,7352,140,1447,-4,-1,-4
125022418,0.74920654296875,-0.11505126953125,-0.62640380859375,-0.18206787109375,7355,131,1420,-3,-3,-4
125032401,0.74884033203125,-0.114990234375,-0.626708984375,-0.182373046875,7385,140,1402,-1,-4,-5
125042385,0.74835205078125,-0.1148681640625,-0.627197265625,-0.18255615234375,7451,157,1363,0,-5,-5
125052360,0.74786376953125,-0.11468505859375,-0.62786865234375,-0.1827392578125,7543,179,1341,0,-6,-5
125062345,0.74725341796875,-0.11444091796875,-0.6285400390625,-0.182861328125,7637,218,1331,1,-7,-5
125072327,0.74664306640625,-0.1141357421875,-0.62933349609375,-0.1829833984375,7734,267,1335,2,-7,-5
125082309,0.74603271484375,-0.11376953125,-0.63006591796875,-0.18316650390625,7835,312,1362,2,-7,-5
125092291,0.745361328125,-0.11334228515625,-0.630859375,-0.1832275390625,7939,351,1363,2,-8,-5
125102275,0.74481201171875,-0.11297607421875,-0.631591796875,-0.183349609375,8043,369,1380,2,-7,-5
125112256,0.7442626953125,-0.112548828125,-0.63226318359375,-0.18353271484375,8162,391,1396,2,-6,-5
125122240,0.7437744140625,-0.11212158203125,-0.63287353515625,-0.18359375,8251,395,1415,2,-5,-5
125132231,0.74346923828125,-0.1116943359375,-0.63330078125,-0.18365478515625,8323,393,1427,3,-4,-4
125142217,0.74322509765625,-0.11126708984375,-0.6336669921875,-0.18365478515625,8380,400,1419,2,-3,-4
125152201,0.74310302734375,-0.11083984375,-0.63385009765625,-0.18353271484375,8429,407,1414,3,-1,-3
125162184,0.7431640625,-0.1103515625,-0.63397216796875,-0.1834716796875,8462,426,1405,3,0,-3
125172175,0.74322509765625,-0.10986328125,-0.634033203125,-0.183349609375,8478,447,1400,4,1,-2
125182154,0.74334716796875,-0.10943603515625,-0.634033203125,-0.18310546875,8490,458,1378,4,2,-1
125192133,0.74359130859375,-0.10894775390625,-0.6339111328125,-0.18267822265625,8482,487,1374,4,2,0
125202106,0.743896484375,-0.1085205078125,-0.6337890625,-0.1822509765625,8448,496,1376,5,3,1
125212089,0.7442626953125,-0.1080322265625,-0.633544921875,-0.1817626953125,8405,514,1373,5,4,0
125222071,0.74462890625,-0.1075439453125,-0.63330078125,-0.18133544921875,8362,543,1379,5,4,0
125232058,0.7451171875,-0.10693359375,-0.63299560546875,-0.18096923828125,8310,569,1383,5,5,-1
125242037,0.74554443359375,-0.10626220703125,-0.6326904296875,-0.18072509765625,8268,588,1383,5,5,-2
125252019,0.7459716796875,-0.10546875,-0.63232421875,-0.1805419921875,8243,608,1366,5,5,-2
125262001,0.74639892578125,-0.10479736328125,-0.63201904296875,-0.180419921875,8225,635,1341,4,5,-2
125271989,0.74676513671875,-0.10406494140625,-0.63165283203125,-0.18035888671875,8203,677,1321,4,6,-2
125281975,0.7471923828125,-0.10333251953125,-0.63128662109375,-0.1802978515625,8192,711,1298,3,6,-2
125291950,0.74761962890625,-0.1026611328125,-0.63092041015625,-0.1802978515625,8207,745,1277,3,6,-2
125301935,0.74798583984375,-0.10205078125,-0.6304931640625,-0.18035888671875,8200,760,1268,2,6,-2
125311914,0.7484130859375,-0.1015625,-0.63006591796875,-0.180419921875,8189,768,1288,1,6,-2
125321899,0.7489013671875,-0.1011962890625,-0.6295166015625,-0.18048095703125,8153,762,1314,1,7,-1
125331883,0.7493896484375,-0.10076904296875,-0.6290283203125,-0.1805419921875,8109,750,1343,1,7,-1
125341863,0.7498779296875,-0.1004638671875,-0.62841796875,-0.1806640625,8050,740,1378,0,6,-1
125351847,0.75042724609375,-0.10015869140625,-0.62786865234375,-0.1807861328125,7990,711,1419,0,7,-2
125361828,0.75091552734375,-0.099853515625,-0.62725830078125,-0.1810302734375,7951,695,1451,0,6,-2
125371818,0.7513427734375,-0.09954833984375,-0.62664794921875,-0.1812744140625,7936,676,1481,0,6,-3
125381796,0.75177001953125,-0.09912109375,-0.6260986328125,-0.181640625,7920,673,1509,0,6,-4
125391780,0.75213623046875,-0.0987548828125,-0.62567138671875,-0.18206787109375,7902,683,1529,-1,5,-4
125401765,0.75244140625,-0.09832763671875,-0.62518310546875,-0.18243408203125,7875,691,1561,-1,5,-4
125411752,0.7528076171875,-0.09808349609375,-0.624755859375,-0.18267822265625,7846,703,1612,-1,4,-2
125421741,0.753173828125,-0.09796142578125,-0.624267578125,-0.18280029296875,7803,708,1660,-1,4,0
125431714,0.7535400390625,-0.09796142578125,-0.623779296875,-0.18280029296875,7757,695,1706,-1,3,1
125441696,0.75396728515625,-0.09796142578125,-0.62335205078125,-0.18280029296875,7693,695,1743,-1,3,1
125451680,0.7542724609375,-0.0980224609375,-0.6229248046875,-0.182861328125,7630,693,1773,-1,3,0
125461663,0.75457763671875,-0.0980224609375,-0.62255859375,-0.18292236328125,7576,683,1788,-1,2,0
125471645,0.7547607421875,-0.09796142578125,-0.62225341796875,-0.18316650390625,7532,681,1798,-2,1,-2
125481630,0.7548828125,-0.09783935546875,-0.62200927734375,-0.18341064453125,7486,680,1790,-2,1,-2
125491610,0.75494384765625,-0.09783935546875,-0.62188720703125,-0.1837158203125,7461,673,1780,-2,-1,-2
125501590,0.7548828125,-0.097900390625,-0.62188720703125,-0.18402099609375,7448,665,1759,-2,-1,-2
125511573,0.75469970703125,-0.0980224609375,-0.6219482421875,-0.18426513671875,7477,661,1732,-3,-3,-1
125521555,0.75445556640625,-0.0982666015625,-0.6221923828125,-0.18438720703125,7488,672,1710,-2,-4,-1
125531539,0.754150390625,-0.0985107421875,-0.62249755859375,-0.1845703125,7526,666,1695,-2,-5,-1
125541522,0.7537841796875,-0.0987548828125,-0.62286376953125,-0.1846923828125,7579,653,1669,-3,-5,-1
125551504,0.75335693359375,-0.09893798828125,-0.623291015625,-0.1849365234375,7657,661,1651,-3,-5,-2
125561483,0.75286865234375,-0.09912109375,-0.623779296875,-0.18524169921875,7753,664,1628,-3,-6,-3
125571467,0.7523193359375,-0.0992431640625,-0.624267578125,-0.18560791015625,7855,674,1616,-3,-6,-4
125581449,0.75177001953125,-0.09942626953125,-0.624755859375,-0.18603515625,7943,682,1602,-3,-6,-3
125591430,0.7513427734375,-0.0994873046875,-0.62518310546875,-0.1865234375,8014,688,1608,-4,-5,-4
125601421,0.75091552734375,-0.0997314453125,-0.62548828125,-0.18695068359375,8065,672,1618,-4,-5,-3
125611409,0.75054931640625,-0.10003662109375,-0.62579345703125,-0.1873779296875,8112,661,1621,-4,-4,-2
125621391,0.750244140625,-0.100341796875,-0.6259765625,-0.187744140625,8189,670,1625,-4,-3,-2
125631368,0.75,-0.1007080078125,-0.6260986328125,-0.18804931640625,8317,685,1614,-4,-2,-1
125641351,0.74981689453125,-0.10101318359375,-0.6260986328125,-0.1884765625,8450,712,1608,-5,-1,-2
125651337,0.749755859375,-0.1011962890625,-0.6259765625,-0.18902587890625,8587,733,1612,-5,1,-3
125661312,0.749755859375,-0.10125732421875,-0.62579345703125,-0.1898193359375,8714,753,1612,-5,3,-5
125671300,0.7498779296875,-0.1011962890625,-0.6253662109375,-0.1907958984375,8796,751,1599,-6,5,-7
125681280,0.75006103515625,-0.10107421875,-0.62481689453125,-0.19189453125,8827,737,1581,-7,7,-8
125691266,0.75042724609375,-0.1009521484375,-0.6240234375,-0.19317626953125,8790,742,1614,-7,9,-8
125701250,0.75103759765625,-0.10089111328125,-0.6229248046875,-0.1944580078125,8714,733,1675,-8,11,-7
125711237,0.75177001953125,-0.1009521484375,-0.62158203125,-0.19561767578125,8576,709,1764,-9,12,-5
125721219,0.75274658203125,-0.10125732421875,-0.6199951171875,-0.19671630859375,8398,684,1886,-9,13,-3
125731200,0.75384521484375,-0.10174560546875,-0.6182861328125,-0.1976318359375,8192,643,1994,-10,14,-1
125741188,0.75506591796875,-0.102294921875,-0.61639404296875,-0.1986083984375,7977,610,2110,-11,15,-1
125751177,0.75628662109375,-0.10296630859375,-0.61444091796875,-0.1995849609375,7757,574,2223,-11,14,0
125761157,0.757568359375,-0.10369873046875,-0.61248779296875,-0.20068359375,7550,549,2353,-12,14,-1
125771132,0.75872802734375,-0.104248046875,-0.61053466796875,-0.201904296875,7365,540,2465,-12,13,-2
125781109,0.759765625,-0.104736328125,-0.60870361328125,-0.20330810546875,7223,550,2545,-13,12,-4
125791094,0.7606201171875,-0.10504150390625,-0.60693359375,-0.20501708984375,7161,545,2598,-12,11,-8
125801080,0.76129150390625,-0.1051025390625,-0.60546875,-0.20703125,7171,536,2581,-12,11,-12
125811063,0.76171875,-0.10491943359375,-0.6041259765625,-0.20928955078125,7239,555,2529,-12,10,-15
125821045,0.76202392578125,-0.10443115234375,-0.60296630859375,-0.2117919921875,7343,598,2452,-11,10,-18
125831028,0.76226806640625,-0.10382080078125,-0.60186767578125,-0.21429443359375,7463,656,2373,-10,10,-18
125841012,0.7625732421875,-0.1031494140625,-0.6007080078125,-0.21673583984375,7577,718,2303,-10,11,-17
125850994,0.76300048828125,-0.1025390625,-0.5994873046875,-0.21905517578125,7686,783,2265,-10,13,-16
125860983,0.763427734375,-0.10198974609375,-0.59820556640625,-0.22119140625,7767,833,2240,-10,13,-14
125870969,0.76397705078125,-0.1015625,-0.59686279296875,-0.22314453125,7814,862,2210,-9,13,-12
125880945,0.7645263671875,-0.1011962890625,-0.59552001953125,-0.22491455078125,7825,878,2179,-9,13,-11
125890927,0.76507568359375,-0.100830078125,-0.59429931640625,-0.2265625,7824,889,2126,-8,12,-10
125900910,0.76556396484375,-0.10052490234375,-0.59307861328125,-0.2281494140625,7803,882,2085,-8,12,-10
125910893,0.7659912109375,-0.1002197265625,-0.592041015625,-0.22955322265625,7776,854,2033,-8,11,-10
125920876,0.766357421875,-0.0999755859375,-0.59112548828125,-0.23089599609375,7703,819,2005,-6,9,-9
125930858,0.7666015625,-0.0997314453125,-0.59033203125,-0.232177734375,7619,786,1987,-6,8,-10
125940844,0.7667236328125,-0.0994873046875,-0.5897216796875,-0.2332763671875,7542,745,1982,-5,6,-9
125950826,0.76678466796875,-0.09918212890625,-0.58935546875,-0.234375,7480,735,1989,-4,4,-9
125960807,0.76666259765625,-0.0989990234375,-0.589111328125,-0.23529052734375,7435,740,1994,-4,2,-8
125970791,0.76641845703125,-0.0987548828125,-0.58917236328125,-0.23614501953125,7397,752,1987,-3,0,-8
125980779,0.76605224609375,-0.09857177734375,-0.58941650390625,-0.23681640625,7360,780,1972,-2,-3,-7
125990759,0.76556396484375,-0.09844970703125,-0.58984375,-0.2373046875,7333,806,1952,-1,-5,-6
126000742,0.76495361328125,-0.09832763671875,-0.5904541015625,-0.2376708984375,7320,840,1920,-1,-6,-5
126010730,0.7642822265625,-0.09832763671875,-0.59130859375,-0.2379150390625,7326,859,1885,0,-8,-4
126020702,0.763427734375,-0.09832763671875,-0.59234619140625,-0.238037109375,7357,893,1847,0,-10,-4
126030686,0.762451171875,-0.09832763671875,-0.593505859375,-0.2381591796875,7395,912,1822,0,-11,-4
126040669,0.76141357421875,-0.09832763671875,-0.5948486328125,-0.23822021484375,7428,921,1796,1,-12,-5
126050651,0.76031494140625,-0.0982666015625,-0.59625244140625,-0.23828125,7454,923,1785,1,-14,-5
126060633,0.759033203125,-0.09814453125,-0.59783935546875,-0.2384033203125,7480,934,1775,2,-15,-6
126070617,0.7576904296875,-0.0980224609375,-0.5994873046875,-0.23846435546875,7529,948,1771,2,-16,-6
126080600,0.75628662109375,-0.097900390625,-0.60125732421875,-0.23858642578125,7585,970,1766,2,-17,-6
126090584,0.7548828125,-0.0977783203125,-0.60302734375,-0.23858642578125,7633,1002,1757,2,-17,-6
126100565,0.75347900390625,-0.09771728515625,-0.6048583984375,-0.23858642578125,7703,1036,1724,2,-17,-4
126110549,0.75201416015625,-0.09783935546875,-0.606689453125,-0.23846435546875,7776,1069,1690,2,-17,-3
126120537,0.75067138671875,-0.09796142578125,-0.60845947265625,-0.23822021484375,7836,1091,1648,2,-17,-3
126130513,0.749267578125,-0.09814453125,-0.61016845703125,-0.23797607421875,7899,1131,1623,1,-17,-2
126140497,0.7479248046875,-0.09832763671875,-0.61181640625,-0.23785400390625,7962,1163,1602,1,-16,-3
126150480,0.74658203125,-0.0985107421875,-0.61346435546875,-0.23779296875,8027,1181,1585,0,-16,-3
126160462,0.74530029296875,-0.0986328125,-0.61505126953125,-0.23785400390625,8081,1197,1563,0,-15,-5
126170446,0.74395751953125,-0.0986328125,-0.6165771484375,-0.23809814453125,8138,1227,1547,0,-15,-6
126180425,0.74261474609375,-0.09857177734375,-0.6180419921875,-0.23846435546875,8176,1251,1537,-1,-14,-7
126190415,0.7413330078125,-0.09844970703125,-0.619384765625,-0.239013671875,8201,1279,1519,-1,-13,-8
126200399,0.74005126953125,-0.09832763671875,-0.62066650390625,-0.2396240234375,8227,1306,1498,-2,-12,-8
126210376,0.7388916015625,-0.0982666015625,-0.621826171875,-0.2403564453125,8234,1337,1478,-3,-12,-8
126220357,0.73773193359375,-0.0982666015625,-0.6229248046875,-0.24102783203125,8241,1364,1465,-3,-11,-8
126230345,0.73663330078125,-0.09832763671875,-0.62384033203125,-0.2418212890625,8258,1390,1461,-5,-10,-7
126240325,0.73565673828125,-0.0985107421875,-0.62469482421875,-0.24267578125,8276,1401,1452,-5,-9,-7
126250305,0.734619140625,-0.0987548828125,-0.62548828125,-0.2435302734375,8297,1401,1436,-6,-9,-7
126260289,0.73370361328125,-0.09906005859375,-0.62615966796875,-0.2445068359375,8305,1412,1421,-7,-8,-7
126270271,0.7327880859375,-0.099365234375,-0.62677001953125,-0.24554443359375,8286,1402,1401,-8,-7,-8
126280254,0.73193359375,-0.0997314453125,-0.62725830078125,-0.2467041015625,8263,1397,1391,-9,-6,-8
126290235,0.7310791015625,-0.10003662109375,-0.627685546875,-0.24798583984375,8229,1382,1381,-9,-6,-9
126300227,0.730224609375,-0.1004638671875,-0.62811279296875,-0.2493896484375,8185,1371,1377,-10,-6,-9
126310209,0.7293701171875,-0.10076904296875,-0.62841796875,-0.2508544921875,8146,1360,1382,-10,-5,-10
126320189,0.728515625,-0.10113525390625,-0.62872314453125,-0.25238037109375,8115,1345,1390,-11,-6,-10
126330181,0.72772216796875,-0.1015625,-0.62896728515625,-0.25396728515625,8082,1328,1403,-11,-5,-11
126340168,0.72686767578125,-0.10198974609375,-0.6292724609375,-0.25555419921875,8049,1297,1409,-11,-5,-10
126350140,0.72601318359375,-0.10247802734375,-0.6295166015625,-0.257080078125,8030,1272,1398,-12,-6,-10
126360117,0.7252197265625,-0.10302734375,-0.6297607421875,-0.25860595703125,8012,1256,1393,-11,-5,-9
126370102,0.724365234375,-0.1036376953125,-0.63006591796875,-0.260009765625,8007,1231,1388,-11,-6,-9
126380086,0.72357177734375,-0.10430908203125,-0.63031005859375,-0.26123046875,8011,1203,1397,-11,-6,-7
126390069,0.72283935546875,-0.10504150390625,-0.63055419921875,-0.262451171875,8023,1192,1402,-11,-6,-7
126400051,0.72210693359375,-0.1058349609375,-0.630859375,-0.263427734375,8039,1177,1396,-10,-6,-5
126410034,0.721435546875,-0.1065673828125,-0.631103515625,-0.26434326171875,8063,1159,1398,-9,-6,-5
126420018,0.72076416015625,-0.10736083984375,-0.63140869140625,-0.26513671875,8087,1144,1394,-9,-6,-4
126430000,0.72021484375,-0.10809326171875,-0.63165283203125,-0.26580810546875,8100,1111,1396,-8,-5,-3
126439990,0.7197265625,-0.10882568359375,-0.63189697265625,-0.26629638671875,8113,1087,1396,-7,-5,-3
126449973,0.71929931640625,-0.10955810546875,-0.632080078125,-0.2667236328125,8111,1055,1411,-6,-5,-2
126459945,0.71893310546875,-0.1102294921875,-0.63226318359375,-0.26702880859375,8104,1033,1410,-6,-5,-1
126469925,0.71856689453125,-0.11090087890625,-0.6324462890625,-0.2672119140625,8110,1023,1416,-5,-5,-1
126479914,0.71826171875,-0.11151123046875,-0.63262939453125,-0.26727294921875,8096,1013,1420,-4,-4,-1
126489902,0.71807861328125,-0.112060546875,-0.63275146484375,-0.267333984375,8084,1013,1418,-3,-4,0
126499879,0.71783447265625,-0.11248779296875,-0.6329345703125,-0.267333984375,8063,1005,1433,-3,-4,0
126509861,0.71771240234375,-0.11285400390625,-0.633056640625,-0.26727294921875,8028,996,1451,-2,-3,-1
126519842,0.717529296875,-0.1131591796875,-0.63323974609375,-0.2672119140625,8000,973,1465,-1,-3,-1
126529830,0.7174072265625,-0.11328125,-0.63336181640625,-0.2672119140625,7983,967,1486,0,-3,-2
126539809,0.71728515625,-0.11328125,-0.63348388671875,-0.26715087890625,7963,981,1516,1,-2,-2
126549791,0.7171630859375,-0.11322021484375,-0.6336669921875,-0.26708984375,7939,992,1540,1,-3,-2
126559779,0.71710205078125,-0.11309814453125,-0.6337890625,-0.26702880859375,7891,1001,1574,1,-2,-3
126569763,0.717041015625,-0.1129150390625,-0.63397216796875,-0.26690673828125,7844,1013,1588,2,-3,-2
126579749,0.7169189453125,-0.11273193359375,-0.6341552734375,-0.2667236328125,7797,1011,1605,3,-3,-2
126589730,0.71685791015625,-0.112548828125,-0.6343994140625,-0.26641845703125,7770,1018,1612,3,-3,-2
126599706,0.71673583984375,-0.1123046875,-0.63470458984375,-0.26617431640625,7788,1025,1615,3,-4,-2
126609684,0.716552734375,-0.11199951171875,-0.63507080078125,-0.26593017578125,7809,1057,1619,4,-4,-3
126619670,0.71630859375,-0.11163330078125,-0.63543701171875,-0.2657470703125,7832,1072,1616,4,-4,-3
126629652,0.716064453125,-0.1112060546875,-0.63592529296875,-0.26556396484375,7850,1097,1612,4,-5,-4
126639637,0.71575927734375,-0.1107177734375,-0.63641357421875,-0.265380859375,7880,1137,1604,4,-6,-4
126649623,0.71539306640625,-0.1102294921875,-0.63702392578125,-0.2652587890625,7924,1173,1590,5,-6,-5
126659607,0.7149658203125,-0.109619140625,-0.63763427734375,-0.26513671875,7940,1211,1576,5,-6,-5
126669587,0.7144775390625,-0.10906982421875,-0.63824462890625,-0.26507568359375,7951,1262,1565,4,-6,-5
126679570,0.7139892578125,-0.10845947265625,-0.638916015625,-0.2650146484375,7975,1307,1547,4,-6,-5
126689554,0.7135009765625,-0.1080322265625,-0.63958740234375,-0.26495361328125,7996,1356,1509,4,-7,-4
126699537,0.71295166015625,-0.107666015625,-0.6402587890625,-0.264892578125,8017,1414,1471,3,-7,-3
126709515,0.71246337890625,-0.1075439453125,-0.64093017578125,-0.26470947265625,8030,1456,1448,2,-7,-2
126719507,0.7120361328125,-0.1075439453125,-0.64154052734375,-0.26446533203125,8038,1508,1436,1,-7,0
126729481,0.7115478515625,-0.107666015625,-0.64208984375,-0.26434326171875,8049,1573,1424,0,-7,1
126739466,0.7110595703125,-0.10797119140625,-0.64263916015625,-0.26422119140625,8054,1632,1420,-2,-8,1
126749446,0.71051025390625,-0.1083984375,-0.64312744140625,-0.2642822265625,8044,1703,1412,-3,-8,2
126759425,0.70989990234375,-0.109130859375,-0.64361572265625,-0.264404296875,7993,1757,1405,-5,-9,3
126769417,0.70928955078125,-0.110107421875,-0.64404296875,-0.2646484375,7926,1791,1393,-8,-9,4
126779401,0.7086181640625,-0.1114501953125,-0.6444091796875,-0.264892578125,7861,1829,1371,-10,-10,5
126789384,0.70794677734375,-0.1131591796875,-0.644775390625,-0.2652587890625,7810,1872,1328,-13,-10,7
126799362,0.7071533203125,-0.11517333984375,-0.64508056640625,-0.26568603515625,7798,1912,1295,-16,-11,8
126809345,0.70623779296875,-0.11749267578125,-0.6453857421875,-0.266357421875,7799,1964,1266,-19,-12,8
126819330,0.7052001953125,-0.12005615234375,-0.6456298828125,-0.267333984375,7797,2010,1239,-22,-12,8
126829316,0.7041015625,-0.12286376953125,-0.64581298828125,-0.2685546875,7801,2053,1206,-25,-13,7
126839297,0.70281982421875,-0.1259765625,-0.64593505859375,-0.27020263671875,7818,2105,1166,-29,-13,7
126849281,0.70135498046875,-0.12933349609375,-0.64599609375,-0.2720947265625,7841,2153,1106,-33,-14,7
126859263,0.69976806640625,-0.133056640625,-0.64605712890625,-0.2742919921875,7869,2209,1047,-37,-15,7
126869250,0.69805908203125,-0.13720703125,-0.64599609375,-0.27679443359375,7885,2261,985,-41,-15,8
126879234,0.6961669921875,-0.14178466796875,-0.64581298828125,-0.279541015625,7908,2304,922,-45,-16,8
126889219,0.69415283203125,-0.14678955078125,-0.64556884765625,-0.2825927734375,7923,2327,845,-50,-17,9
126899200,0.69195556640625,-0.15216064453125,-0.645263671875,-0.285888671875,7916,2345,763,-54,-18,9
126909189,0.6895751953125,-0.15802001953125,-0.644775390625,-0.28948974609375,7881,2336,680,-59,-18,10
126919173,0.68701171875,-0.1644287109375,-0.64422607421875,-0.293212890625,7836,2300,592,-63,-19,10
126929156,0.68426513671875,-0.17120361328125,-0.6435546875,-0.2972412109375,7787,2256,503,-67,-20,11
126939133,0.68133544921875,-0.17840576171875,-0.64276123046875,-0.3013916015625,7728,2189,419,-71,-21,12
126949111,0.67816162109375,-0.18603515625,-0.64190673828125,-0.3056640625,7665,2098,338,-74,-23,13
126959091,0.6748046875,-0.19403076171875,-0.64093017578125,-0.31011962890625,7623,2001,274,-77,-24,13
126969074,0.6712646484375,-0.20233154296875,-0.63995361328125,-0.31463623046875,7591,1887,216,-80,-25,14
126979058,0.66748046875,-0.2109375,-0.63885498046875,-0.31915283203125,7555,1753,164,-82,-26,13
126989045,0.6634521484375,-0.2197265625,-0.63775634765625,-0.32373046875,7521,1611,109,-83,-28,13
126999024,0.65924072265625,-0.2286376953125,-0.63665771484375,-0.328369140625,7501,1448,55,-84,-30,12
127009006,0.65472412109375,-0.23760986328125,-0.6356201171875,-0.33294677734375,7473,1284,-6,-84,-31,11
127018990,0.6500244140625,-0.24639892578125,-0.63470458984375,-0.3375244140625,7466,1103,-47,-84,-33,9
127028977,0.64508056640625,-0.25506591796875,-0.63385009765625,-0.34210205078125,7432,915,-108,-83,-34,6
127038955,0.63995361328125,-0.2635498046875,-0.6331787109375,-0.3466796875,7400,707,-176,-81,-35,4
127048939,0.63458251953125,-0.27166748046875,-0.63262939453125,-0.35113525390625,7400,492,-227,-79,-36,1
127058925,0.629150390625,-0.27947998046875,-0.63226318359375,-0.35546875,7446,275,-267,-76,-37,-2
127068903,0.62359619140625,-0.286865234375,-0.632080078125,-0.35955810546875,7524,56,-284,-72,-38,-4
127078886,0.6181640625,-0.2938232421875,-0.632080078125,-0.3634033203125,7665,-159,-287,-68,-38,-6
127088872,0.61279296875,-0.30023193359375,-0.63226318359375,-0.36688232421875,7841,-332,-282,-62,-38,-8
127098850,0.60760498046875,-0.30609130859375,-0.63262939453125,-0.37005615234375,8045,-482,-258,-56,-38,-9
127108834,0.60272216796875,-0.31146240234375,-0.63311767578125,-0.37274169921875,8246,-598,-237,-50,-37,-9
127118815,0.59820556640625,-0.3162841796875,-0.63372802734375,-0.37481689453125,8420,-699,-234,-43,-35,-8
127128800,0.59417724609375,-0.32073974609375,-0.6343994140625,-0.3763427734375,8566,-790,-249,-37,-33,-6
127138782,0.5906982421875,-0.3248291015625,-0.63507080078125,-0.37725830078125,8682,-858,-273,-30,-31,-3
127148768,0.58782958984375,-0.3284912109375,-0.63568115234375,-0.37744140625,8771,-926,-286,-24,-28,0
127158754,0.58563232421875,-0.331787109375,-0.63623046875,-0.3770751953125,8834,-988,-288,-17,-25,3
127168736,0.58416748046875,-0.334716796875,-0.63671875,-0.37603759765625,8882,-1051,-282,-10,-22,7
127178714,0.58331298828125,-0.33721923828125,-0.6370849609375,-0.37445068359375,8945,-1107,-279,-4,-18,9
127188697,0.58306884765625,-0.33917236328125,-0.63739013671875,-0.3724365234375,8994,-1155,-266,3,-15,10
127198678,0.58343505859375,-0.340576171875,-0.63775634765625,-0.37005615234375,9041,-1189,-248,9,-11,10
127208662,0.584228515625,-0.34112548828125,-0.63818359375,-0.3675537109375,9101,-1207,-240,15,-7,8
127218645,0.58538818359375,-0.3408203125,-0.63873291015625,-0.364990234375,9164,-1194,-226,21,-3,3
127228633,0.58685302734375,-0.33941650390625,-0.63946533203125,-0.36260986328125,9229,-1163,-229,26,1,-2
127238611,0.58856201171875,-0.33709716796875,-0.64044189453125,-0.36029052734375,9272,-1110,-251,31,5,-7
127248593,0.590576171875,-0.33380126953125,-0.64154052734375,-0.358154296875,9272,-1052,-262,36,9,-12
127258573,0.59283447265625,-0.32965087890625,-0.6427001953125,-0.356201171875,9259,-968,-293,41,13,-16
127268557,0.5953369140625,-0.32470703125,-0.6439208984375,-0.354248046875,9236,-866,-326,45,17,-19
127278540,0.59820556640625,-0.3192138671875,-0.64508056640625,-0.35235595703125,9203,-751,-332,48,21,-20
127288522,0.601318359375,-0.3131103515625,-0.646240234375,-0.35040283203125,9189,-621,-350,52,24,-22
127298506,0.60467529296875,-0.3065185546875,-0.647216796875,-0.34857177734375,9160,-488,-358,54,28,-23
127308488,0.60833740234375,-0.299560546875,-0.64813232421875,-0.3466796875,9134,-360,-357,56,31,-24
127318471,0.61212158203125,-0.29217529296875,-0.64892578125,-0.3448486328125,9086,-226,-348,58,34,-24
127328454,0.6160888671875,-0.2845458984375,-0.6495361328125,-0.34295654296875,9013,-101,-327,60,36,-24
127338443,0.6202392578125,-0.27667236328125,-0.6500244140625,-0.3409423828125,8920,35,-301,61,38,-24
127348430,0.62451171875,-0.26873779296875,-0.65032958984375,-0.3388671875,8842,190,-266,62,40,-22
127358412,0.62890625,-0.2607421875,-0.65057373046875,-0.33660888671875,8750,332,-250,63,41,-21
127368395,0.63330078125,-0.252685546875,-0.650634765625,-0.33428955078125,8646,464,-246,63,42,-20
127378373,0.6376953125,-0.24462890625,-0.65069580078125,-0.3319091796875,8530,596,-232,63,42,-19
127388355,0.64208984375,-0.23651123046875,-0.650634765625,-0.3294677734375,8378,703,-207,63,42,-19
127398345,0.6463623046875,-0.22833251953125,-0.6505126953125,-0.32708740234375,8222,809,-177,63,42,-19
127408323,0.6505126953125,-0.22021484375,-0.65032958984375,-0.32470703125,8063,914,-119,62,41,-20
127418306,0.6544189453125,-0.2120361328125,-0.65020751953125,-0.322509765625,7955,1026,-84,62,41,-21
127428294,0.65814208984375,-0.2037353515625,-0.650146484375,-0.3204345703125,7872,1160,-42,60,40,-23
127438277,0.66156005859375,-0.19549560546875,-0.650146484375,-0.31854248046875,7803,1271,3,59,38,-24
127448259,0.6646728515625,-0.18719482421875,-0.65020751953125,-0.31689453125,7742,1391,33,58,36,-26
127458240,0.6676025390625,-0.17901611328125,-0.6502685546875,-0.31536865234375,7674,1491,80,56,35,-26
127468232,0.6702880859375,-0.17108154296875,-0.650390625,-0.3138427734375,7613,1594,144,54,33,-26
127478216,0.67279052734375,-0.163330078125,-0.6505126953125,-0.31231689453125,7569,1702,189,53,31,-25
127488200,0.67510986328125,-0.15594482421875,-0.650634765625,-0.31072998046875,7516,1820,253,51,29,-22
127498187,0.67730712890625,-0.1490478515625,-0.6507568359375,-0.30908203125,7476,1920,323,49,27,-20
127508170,0.67938232421875,-0.142578125,-0.65093994140625,-0.30731201171875,7431,2013,380,47,24,-17
127518152,0.6812744140625,-0.1365966796875,-0.651123046875,-0.305419921875,7388,2086,420,45,22,-14
127528122,0.68304443359375,-0.131103515625,-0.65130615234375,-0.30340576171875,7356,2166,464,42,20,-11
127538105,0.68463134765625,-0.12615966796875,-0.651611328125,-0.30133056640625,7325,2216,495,40,17,-9
127548088,0.68603515625,-0.12152099609375,-0.65191650390625,-0.29931640625,7289,2256,527,37,15,-7
127558071,0.68731689453125,-0.1173095703125,-0.65228271484375,-0.2972412109375,7275,2283,555,35,13,-6
127568052,0.68841552734375,-0.11346435546875,-0.65277099609375,-0.29522705078125,7258,2310,610,33,10,-5
127578036,0.6893310546875,-0.10986328125,-0.65325927734375,-0.2933349609375,7265,2341,662,31,9,-5
127588019,0.6900634765625,-0.10662841796875,-0.65380859375,-0.29150390625,7283,2366,708,29,6,-4
127598002,0.690673828125,-0.10357666015625,-0.6544189453125,-0.28985595703125,7297,2377,771,27,5,-4
127607990,0.69110107421875,-0.10076904296875,-0.655029296875,-0.28839111328125,7315,2377,817,24,3,-4
127617973,0.69140625,-0.09820556640625,-0.65570068359375,-0.28704833984375,7347,2380,843,22,2,-4
127627948,0.69158935546875,-0.09588623046875,-0.65643310546875,-0.28570556640625,7400,2382,873,21,1,-4
127637930,0.69171142578125,-0.09375,-0.6571044921875,-0.28448486328125,7459,2388,882,19,0,-3
127647916,0.6917724609375,-0.091796875,-0.6578369140625,-0.28338623046875,7528,2416,900,18,-1,-3
127657893,0.6917724609375,-0.09002685546875,-0.65850830078125,-0.28240966796875,7611,2435,913,16,-1,-3
127667878,0.69171142578125,-0.08837890625,-0.6591796875,-0.28155517578125,7679,2458,915,14,-1,-4
127677860,0.69158935546875,-0.08685302734375,-0.6597900390625,-0.2808837890625,7722,2485,923,12,-2,-4
127687842,0.69146728515625,-0.08544921875,-0.6602783203125,-0.2803955078125,7771,2497,926,11,-1,-4
127697825,0.6912841796875,-0.084228515625,-0.6607666015625,-0.27996826171875,7799,2498,923,9,-2,-3
127707805,0.691162109375,-0.08331298828125,-0.66119384765625,-0.279541015625,7816,2497,929,8,-2,-2
127717787,0.69110107421875,-0.08251953125,-0.66156005859375,-0.2791748046875,7820,2501,932,6,-1,-1
127727779,0.6910400390625,-0.08197021484375,-0.661865234375,-0.27880859375,7832,2482,927,5,-2,0
127737762,0.69097900390625,-0.08160400390625,-0.66204833984375,-0.27850341796875,7852,2462,938,4,-2,0
127747745,0.69097900390625,-0.081298828125,-0.6622314453125,-0.2781982421875,7870,2422,935,3,-1,0
127757729,0.69091796875,-0.0809326171875,-0.66241455078125,-0.27813720703125,7881,2395,929,2,-1,-2
127767702,0.69073486328125,-0.08056640625,-0.66253662109375,-0.27825927734375,7889,2379,928,1,-1,-3
127777687,0.6905517578125,-0.080078125,-0.66265869140625,-0.27862548828125,7902,2353,931,0,-1,-6
127787676,0.69036865234375,-0.07952880859375,-0.6627197265625,-0.27911376953125,7911,2328,940,0,0,-7
127797657,0.690185546875,-0.07904052734375,-0.6627197265625,-0.27972412109375,7908,2299,951,-1,0,-7
127807637,0.69000244140625,-0.07855224609375,-0.66265869140625,-0.2803955078125,7906,2294,958,-2,0,-7
127817616,0.6898193359375,-0.078125,-0.66259765625,-0.28106689453125,7917,2278,962,-2,0,-7
127827601,0.689697265625,-0.07781982421875,-0.6624755859375,-0.28179931640625,7908,2272,968,-3,0,-6
127837586,0.6895751953125,-0.07757568359375,-0.662353515625,-0.28240966796875,7885,2246,970,-3,1,-5
127847570,0.68951416015625,-0.07745361328125,-0.66217041015625,-0.28302001953125,7870,2211,975,-3,1,-5
127857551,0.68951416015625,-0.07733154296875,-0.6619873046875,-0.2835693359375,7851,2182,969,-4,1,-4
127867537,0.689453125,-0.0772705078125,-0.6617431640625,-0.2841796875,7835,2144,967,-4,1,-5
127877518,0.689453125,-0.07720947265625,-0.66156005859375,-0.28472900390625,7839,2117,968,-4,1,-5
127887497,0.689453125,-0.07708740234375,-0.66131591796875,-0.285400390625,7851,2095,982,-3,1,-5
127897482,0.689453125,-0.076904296875,-0.66107177734375,-0.2860107421875,7884,2083,982,-3,1,-6
127907464,0.689453125,-0.07666015625,-0.6607666015625,-0.2867431640625,7921,2087,989,-3,2,-7
127917446,0.689453125,-0.0762939453125,-0.66046142578125,-0.2874755859375,7971,2105,1002,-3,2,-7
127927427,0.689453125,-0.075927734375,-0.66015625,-0.28826904296875,8008,2101,1022,-3,2,-8
127937419,0.68951416015625,-0.075439453125,-0.65985107421875,-0.2890625,8024,2104,1034,-3,3,-8
127947400,0.6895751953125,-0.074951171875,-0.65948486328125,-0.289794921875,8022,2099,1024,-2,3,-8
127957383,0.689697265625,-0.07452392578125,-0.65911865234375,-0.2904052734375,8000,2086,1033,-2,3,-7
127967362,0.68988037109375,-0.0740966796875,-0.65875244140625,-0.291015625,7977,2074,1036,-2,4,-6
127977345,0.6900634765625,-0.07366943359375,-0.65838623046875,-0.29150390625,7958,2061,1037,-1,4,-6
127987327,0.69024658203125,-0.07330322265625,-0.65802001953125,-0.2918701171875,7935,2048,1036,-1,4,-5
127997309,0.69049072265625,-0.07293701171875,-0.65765380859375,-0.292236328125,7910,2032,1035,-1,4,-5
128007297,0.69073486328125,-0.07257080078125,-0.6573486328125,-0.29254150390625,7877,2031,1038,0,4,-5
128017276,0.69097900390625,-0.07208251953125,-0.656982421875,-0.2928466796875,7847,2026,1047,0,4,-5
128027259,0.691162109375,-0.07159423828125,-0.65673828125,-0.293212890625,7826,2025,1051,0,3,-6
128037241,0.69134521484375,-0.0711669921875,-0.656494140625,-0.29339599609375,7819,2020,1065,1,3,-5
128047233,0.69146728515625,-0.0706787109375,-0.65625,-0.2935791015625,7817,2032,1059,1,2,-4
128057217,0.691650390625,-0.07025146484375,-0.6561279296875,-0.29364013671875,7834,2056,1043,2,3,-3
128067203,0.69183349609375,-0.0699462890625,-0.65594482421875,-0.29351806640625,7833,2066,1035,2,2,-2
128077183,0.69207763671875,-0.06964111328125,-0.65582275390625,-0.29327392578125,7829,2083,1048,2,2,0
128087170,0.6923828125,-0.06951904296875,-0.65576171875,-0.2928466796875,7828,2093,1042,3,2,1
128097155,0.69268798828125,-0.0694580078125,-0.65570068359375,-0.292236328125,7811,2103,1038,3,1,3
128109990,0.69305419921875,-0.0694580078125,-0.6556396484375,-0.29156494140625,7799,2113,1038,4,1,4
128117106,0.693359375,-0.0694580078125,-0.6556396484375,-0.29071044921875,7782,2131,1027,4,1,4
128127085,0.6937255859375,-0.0693359375,-0.6556396484375,-0.2899169921875,7758,2140,1025,5,1,4
128137066,0.69403076171875,-0.06915283203125,-0.65570068359375,-0.2891845703125,7748,2143,1016,5,1,3
128147050,0.6942138671875,-0.06884765625,-0.65582275390625,-0.28851318359375,7733,2147,1014,5,1,1
128157038,0.69439697265625,-0.068359375,-0.65594482421875,-0.28802490234375,7718,2140,1007,6,1,-1
128167015,0.6944580078125,-0.0677490234375,-0.65606689453125,-0.28759765625,7730,2149,1003,6,0,-2
128176999,0.69451904296875,-0.06695556640625,-0.65625,-0.287353515625,7747,2178,1000,6,1,-4
128186985,0.6944580078125,-0.06597900390625,-0.656494140625,-0.28717041015625,7760,2215,973,6,0,-5
128196969,0.6943359375,-0.06500244140625,-0.65673828125,-0.28704833984375,7785,2238,964,6,0,-6
128206947,0.69427490234375,-0.06396484375,-0.656982421875,-0.28692626953125,7807,2261,958,7,1,-7
128216927,0.69415283203125,-0.0628662109375,-0.6572265625,-0.286865234375,7837,2282,955,6,0,-6
128226913,0.694091796875,-0.06182861328125,-0.657470703125,-0.28668212890625,7856,2299,955,7,1,-6
128236894,0.69403076171875,-0.06085205078125,-0.65771484375,-0.28643798828125,7855,2297,958,7,0,-5
128246880,0.694091796875,-0.0599365234375,-0.6578369140625,-0.28619384765625,7814,2299,978,7,1,-4
128256862,0.6942138671875,-0.05914306640625,-0.657958984375,-0.2857666015625,7781,2300,987,7,1,-3
128266846,0.6943359375,-0.05841064453125,-0.65814208984375,-0.28521728515625,7742,2286,989,7,1,-1
128276828,0.69451904296875,-0.0577392578125,-0.65826416015625,-0.28466796875,7729,2288,993,7,1,-1
128286815,0.6947021484375,-0.05706787109375,-0.65838623046875,-0.28399658203125,7716,2297,1001,7,1,0
128296795,0.69482421875,-0.056396484375,-0.6585693359375,-0.283447265625,7721,2320,1000,7,1,-1
128306779,0.69500732421875,-0.0556640625,-0.65869140625,-0.28289794921875,7731,2329,1012,7,1,-1
128316766,0.69512939453125,-0.054931640625,-0.6588134765625,-0.28240966796875,7742,2334,1022,7,1,-2
128326749,0.69525146484375,-0.0540771484375,-0.658935546875,-0.28204345703125,7746,2350,1031,7,1,-3
128336733,0.69537353515625,-0.05322265625,-0.6590576171875,-0.28167724609375,7747,2366,1039,7,1,-3
128346708,0.6954345703125,-0.0523681640625,-0.6591796875,-0.2813720703125,7764,2381,1055,6,1,-3
128356691,0.695556640625,-0.051513671875,-0.65924072265625,-0.28106689453125,7782,2396,1051,6,2,-3
128366673,0.6956787109375,-0.05072021484375,-0.6593017578125,-0.28076171875,7792,2419,1065,6,1,-3
128376657,0.69586181640625,-0.04998779296875,-0.6593017578125,-0.28033447265625,7796,2437,1068,6,2,-2
128386639,0.696044921875,-0.04937744140625,-0.65936279296875,-0.2799072265625,7804,2440,1071,5,1,-1
128396630,0.6962890625,-0.048828125,-0.65936279296875,-0.27935791015625,7809,2440,1062,6,2,0
128406607,0.696533203125,-0.04840087890625,-0.65936279296875,-0.27880859375,7813,2442,1065,5,2,1
128416594,0.69677734375,-0.0479736328125,-0.65936279296875,-0.27825927734375,7803,2430,1077,5,1,1
128426577,0.69696044921875,-0.0474853515625,-0.659423828125,-0.27783203125,7781,2433,1084,5,1,0
128436562,0.6971435546875,-0.0469970703125,-0.659423828125,-0.27740478515625,7791,2443,1084,5,1,-1
128446540,0.697265625,-0.04644775390625,-0.65948486328125,-0.277099609375,7788,2445,1088,4,0,-2
128456521,0.69732666015625,-0.04583740234375,-0.6595458984375,-0.27685546875,7778,2458,1091,5,1,-2
128466506,0.6973876953125,-0.04522705078125,-0.65960693359375,-0.2767333984375,7779,2462,1091,4,0,-3
128476488,0.69744873046875,-0.04461669921875,-0.65966796875,-0.2764892578125,7782,2483,1087,4,1,-2
128486472,0.69744873046875,-0.0440673828125,-0.65972900390625,-0.27630615234375,7778,2494,1091,4,0,-2
128496454,0.697509765625,-0.043701171875,-0.65985107421875,-0.2760009765625,7791,2510,1099,4,0,-1
128506443,0.69757080078125,-0.0433349609375,-0.659912109375,-0.27569580078125,7795,2518,1095,3,0,0
128516429,0.69769287109375,-0.04315185546875,-0.6600341796875,-0.2752685546875,7799,2530,1089,3,0,1
128526413,0.69775390625,-0.04302978515625,-0.66009521484375,-0.27490234375,7799,2553,1097,2,-1,2
128536392,0.6978759765625,-0.04302978515625,-0.66021728515625,-0.27435302734375,7789,2561,1087,3,-1,3
128546369,0.697998046875,-0.04302978515625,-0.6602783203125,-0.27386474609375,7784,2575,1082,2,-1,3
128556351,0.6981201171875,-0.0430908203125,-0.66033935546875,-0.2733154296875,7775,2575,1097,2,-1,3
128566333,0.6982421875,-0.04315185546875,-0.660400390625,-0.27288818359375,7771,2576,1101,2,-1,3
128576318,0.69830322265625,-0.04315185546875,-0.66046142578125,-0.2725830078125,7762,2567,1112,2,-1,2
128586300,0.6983642578125,-0.04302978515625,-0.6605224609375,-0.2723388671875,7775,2560,1109,1,-1,0
128596287,0.69830322265625,-0.04278564453125,-0.66058349609375,-0.2723388671875,7778,2552,1095,1,-1,-2
128606270,0.6982421875,-0.0423583984375,-0.66064453125,-0.2724609375,7776,2533,1091,1,0,-4
128616250,0.6981201171875,-0.0418701171875,-0.66064453125,-0.27276611328125,7778,2524,1089,1,0,-5
128626231,0.69805908203125,-0.041259765625,-0.66064453125,-0.273193359375,7776,2518,1096,1,0,-7
128636215,0.69793701171875,-0.04058837890625,-0.66058349609375,-0.27374267578125,7759,2511,1107,1,0,-8
128646200,0.69781494140625,-0.0399169921875,-0.6605224609375,-0.2742919921875,7746,2488,1119,0,1,-8
128656188,0.69769287109375,-0.039306640625,-0.66046142578125,-0.2747802734375,7728,2479,1122,0,0,-7
128666175,0.6976318359375,-0.03887939453125,-0.66033935546875,-0.27520751953125,7733,2471,1132,0,0,-5
128676156,0.69769287109375,-0.03851318359375,-0.66021728515625,-0.27545166015625,7759,2491,1127,0,1,-4
128686133,0.69775390625,-0.03826904296875,-0.66015625,-0.27557373046875,7781,2501,1113,0,1,-2
128696110,0.6978759765625,-0.03814697265625,-0.65997314453125,-0.27557373046875,7802,2520,1099,0,1,-1
128706097,0.697998046875,-0.03814697265625,-0.65985107421875,-0.2755126953125,7829,2535,1079,0,1,1
128716077,0.69818115234375,-0.03814697265625,-0.65972900390625,-0.275390625,7847,2551,1076,0,1,0
128726059,0.6983642578125,-0.03814697265625,-0.6595458984375,-0.2752685546875,7855,2544,1060,0,2,0
128736045,0.69854736328125,-0.03802490234375,-0.659423828125,-0.27520751953125,7850,2530,1057,0,1,0
128746024,0.69866943359375,-0.037841796875,-0.65924072265625,-0.2752685546875,7833,2507,1077,0,1,-2
128756005,0.69879150390625,-0.03759765625,-0.65911865234375,-0.275390625,7807,2491,1075,0,2,-3
128765989,0.69891357421875,-0.0372314453125,-0.658935546875,-0.27557373046875,7787,2470,1084,1,2,-4
128775979,0.69903564453125,-0.03680419921875,-0.65875244140625,-0.27581787109375,7775,2455,1071,0,2,-4
128785955,0.69903564453125,-0.036376953125,-0.65863037109375,-0.27606201171875,7742,2447,1057,0,2,-5
128795938,0.6990966796875,-0.035888671875,-0.65850830078125,-0.27630615234375,7739,2443,1038,0,2,-5
128805921,0.69915771484375,-0.03546142578125,-0.65838623046875,-0.27655029296875,7741,2432,1037,0,2,-5
128815901,0.69921875,-0.034912109375,-0.658203125,-0.27685546875,7751,2435,1040,1,2,-6
128825883,0.69921875,-0.03436279296875,-0.6580810546875,-0.2772216796875,7761,2443,1041,0,2,-6
128835866,0.69921875,-0.0338134765625,-0.657958984375,-0.277587890625,7765,2445,1039,0,2,-6
128845855,0.69927978515625,-0.0333251953125,-0.65777587890625,-0.2779541015625,7747,2451,1036,0,2,-5
128855840,0.6993408203125,-0.03289794921875,-0.6575927734375,-0.2781982421875,7743,2454,1044,0,2,-4
128865823,0.69940185546875,-0.03265380859375,-0.657470703125,-0.27838134765625,7730,2478,1046,0,2,-3
128875801,0.6995849609375,-0.03253173828125,-0.65728759765625,-0.2784423828125,7722,2488,1028,0,2,-1
128885791,0.69976806640625,-0.0325927734375,-0.65716552734375,-0.27825927734375,7706,2492,1030,-1,1,1
128895762,0.70001220703125,-0.03277587890625,-0.656982421875,-0.27801513671875,7692,2500,1020,-1,1,3
128905754,0.70025634765625,-0.03314208984375,-0.6568603515625,-0.27764892578125,7654,2517,1027,-1,1,4
128915737,0.7005615234375,-0.03350830078125,-0.65667724609375,-0.2772216796875,7631,2524,1043,-1,1,5
128925712,0.70086669921875,-0.0340576171875,-0.65655517578125,-0.2767333984375,7605,2531,1068,-1,1,6
128935693,0.701171875,-0.0345458984375,-0.6563720703125,-0.27630615234375,7565,2537,1082,-1,0,6
128945678,0.701416015625,-0.03515625,-0.65631103515625,-0.27581787109375,7536,2528,1074,-1,0,6
128955663,0.70166015625,-0.03570556640625,-0.65625,-0.27532958984375,7528,2515,1079,-1,-1,5
128965643,0.7017822265625,-0.03619384765625,-0.65618896484375,-0.27490234375,7521,2523,1070,-1,-1,5
128975630,0.701904296875,-0.03668212890625,-0.65625,-0.27459716796875,7519,2517,1052,-2,-1,4
128985611,0.701904296875,-0.03704833984375,-0.65631103515625,-0.27435302734375,7544,2521,1028,-2,-1,3
128995594,0.70184326171875,-0.03729248046875,-0.6563720703125,-0.27435302734375,7579,2535,1020,-2,-1,1
129005578,0.70166015625,-0.03741455078125,-0.656494140625,-0.2744140625,7591,2549,996,-2,-2,-1
129015556,0.70147705078125,-0.03741455078125,-0.6566162109375,-0.274658203125,7611,2551,986,-2,-2,-2
129025538,0.70123291015625,-0.03741455078125,-0.65673828125,-0.27490234375,7613,2548,988,-2,-2,-2
129035522,0.70098876953125,-0.037353515625,-0.65692138671875,-0.27520751953125,7598,2546,993,-2,-2,-3
129045506,0.70074462890625,-0.03741455078125,-0.65704345703125,-0.27545166015625,7598,2531,1005,-2,-3,-2
129055489,0.70050048828125,-0.0374755859375,-0.6572265625,-0.27557373046875,7611,2527,1020,-1,-3,-1
129065478,0.7003173828125,-0.03765869140625,-0.65740966796875,-0.275634765625,7614,2526,1026,-1,-3,0
129075455,0.70013427734375,-0.037841796875,-0.6575927734375,-0.27569580078125,7618,2529,1044,-1,-3,0
129085443,0.699951171875,-0.0380859375,-0.65777587890625,-0.275634765625,7623,2519,1060,-1,-3,1
129095427,0.69976806640625,-0.03839111328125,-0.657958984375,-0.2755126953125,7641,2517,1076,-1,-3,1
129105411,0.6995849609375,-0.03863525390625,-0.658203125,-0.27545166015625,7651,2499,1091,-1,-4,0
129115397,0.6993408203125,-0.038818359375,-0.658447265625,-0.275390625,7671,2497,1109,0,-4,0
129125374,0.6990966796875,-0.03887939453125,-0.65869140625,-0.275390625,7675,2465,1134,0,-4,-1
129135353,0.6988525390625,-0.03887939453125,-0.65899658203125,-0.2755126953125,7673,2450,1157,0,-4,-2
129145336,0.698486328125,-0.03875732421875,-0.65924072265625,-0.275634765625,7671,2432,1170,0,-4,-3
129155318,0.69818115234375,-0.03857421875,-0.6595458984375,-0.27581787109375,7673,2416,1198,1,-5,-4
129165298,0.69775390625,-0.038330078125,-0.65985107421875,-0.276123046875,7669,2400,1231,0,-5,-5
129175281,0.69732666015625,-0.03802490234375,-0.66021728515625,-0.2764892578125,7665,2384,1260,1,-5,-6
129185265,0.69683837890625,-0.03753662109375,-0.6605224609375,-0.27691650390625,7677,2371,1282,1,-5,-8
129195250,0.69635009765625,-0.03704833984375,-0.660888671875,-0.2774658203125,7695,2348,1302,1,-6,-9
129205237,0.69573974609375,-0.03643798828125,-0.66131591796875,-0.278076171875,7726,2352,1314,1,-6,-10
129215219,0.69512939453125,-0.035888671875,-0.66168212890625,-0.27874755859375,7759,2360,1334,0,-6,-10
129225202,0.694580078125,-0.03546142578125,-0.662109375,-0.279296875,7797,2390,1326,0,-6,-8
129235182,0.69403076171875,-0.03521728515625,-0.6624755859375,-0.27972412109375,7816,2442,1311,0,-6,-5
129245175,0.693603515625,-0.03533935546875,-0.662841796875,-0.2799072265625,7847,2518,1313,-1,-6,-1
129255161,0.69329833984375,-0.035888671875,-0.66314697265625,-0.27978515625,7866,2616,1310,-2,-6,4
129265134,0.69317626953125,-0.03692626953125,-0.66339111328125,-0.2794189453125,7882,2755,1330,-4,-6,10
129275110,0.69317626953125,-0.0384521484375,-0.66351318359375,-0.27880859375,7885,2909,1359,-6,-7,15
129285093,0.69329833984375,-0.04058837890625,-0.66357421875,-0.27813720703125,7868,3083,1392,-9,-7,19
129295077,0.69342041015625,-0.043212890625,-0.66351318359375,-0.27752685546875,7837,3232,1387,-13,-8,22
129305060,0.6934814453125,-0.04638671875,-0.6634521484375,-0.27703857421875,7782,3372,1338,-17,-9,25
129315045,0.69342041015625,-0.05010986328125,-0.663330078125,-0.27691650390625,7731,3490,1263,-23,-10,26
129325025,0.6932373046875,-0.05438232421875,-0.6630859375,-0.27716064453125,7695,3577,1164,-28,-10,26
129335007,0.69287109375,-0.05914306640625,-0.66278076171875,-0.27789306640625,7667,3629,1059,-34,-11,26
129344990,0.6922607421875,-0.06427001953125,-0.66241455078125,-0.27911376953125,7651,3679,943,-40,-12,25
129354979,0.69146728515625,-0.0699462890625,-0.661865234375,-0.28094482421875,7627,3700,863,-46,-13,24
129364958,0.69036865234375,-0.075927734375,-0.6612548828125,-0.28338623046875,7601,3705,775,-53,-14,22
129374940,0.68902587890625,-0.0823974609375,-0.66058349609375,-0.28643798828125,7551,3672,706,-58,-16,20
129384922,0.6873779296875,-0.08929443359375,-0.65985107421875,-0.29010009765625,7495,3592,643,-65,-18,18
129394905,0.6854248046875,-0.0965576171875,-0.6590576171875,-0.29412841796875,7449,3471,566,-69,-20,16
129404889,0.68316650390625,-0.104248046875,-0.65826416015625,-0.298583984375,7417,3323,479,-74,-21,15
129414875,0.68060302734375,-0.11236572265625,-0.65740966796875,-0.3033447265625,7381,3142,393,-78,-24,14
129424857,0.677734375,-0.12078857421875,-0.65655517578125,-0.30828857421875,7356,2950,308,-81,-26,14
129434840,0.67462158203125,-0.12957763671875,-0.65570068359375,-0.31341552734375,7338,2751,246,-83,-27,13
129444822,0.67120361328125,-0.13861083984375,-0.65484619140625,-0.318603515625,7342,2559,200,-85,-30,13
129454806,0.6676025390625,-0.14788818359375,-0.6539306640625,-0.32373046875,7361,2376,144,-87,-31,14
129464788,0.66375732421875,-0.157470703125,-0.653076171875,-0.32879638671875,7414,2185,89,-88,-33,14
129474768,0.6597900390625,-0.1671142578125,-0.6522216796875,-0.33367919921875,7485,1991,31,-88,-34,15
129484760,0.65570068359375,-0.17706298828125,-0.6513671875,-0.33831787109375,7562,1757,-14,-87,-35,17
129494744,0.651611328125,-0.18719482421875,-0.650390625,-0.342529296875,7632,1506,-62,-86,-36,19
129504728,0.6475830078125,-0.1973876953125,-0.6494140625,-0.3463134765625,7723,1253,-88,-84,-37,20
129514706,0.64361572265625,-0.2076416015625,-0.64837646484375,-0.34967041015625,7789,1019,-110,-81,-37,23
129524688,0.63983154296875,-0.21783447265625,-0.64727783203125,-0.35247802734375,7848,798,-110,-78,-37,26
129534671,0.63616943359375,-0.22796630859375,-0.6461181640625,-0.35479736328125,7922,587,-120,-75,-36,28
129544654,0.63262939453125,-0.23797607421875,-0.64495849609375,-0.35662841796875,7971,397,-121,-72,-37,30
129554639,0.6292724609375,-0.2476806640625,-0.64385986328125,-0.3580322265625,8024,219,-136,-67,-36,30
129564621,0.62603759765625,-0.257080078125,-0.64276123046875,-0.35906982421875,8081,33,-146,-63,-35,30
129574607,0.6229248046875,-0.2659912109375,-0.64178466796875,-0.3597412109375,8122,-161,-143,-58,-35,29
129584589,0.61993408203125,-0.2742919921875,-0.64093017578125,-0.360107421875,8146,-371,-132,-52,-34,26
129594572,0.61712646484375,-0.28192138671875,-0.6402587890625,-0.36029052734375,8192,-574,-122,-47,-33,23
129604554,0.6143798828125,-0.2886962890625,-0.63983154296875,-0.3603515625,8233,-774,-102,-41,-32,18
129614537,0.61175537109375,-0.2945556640625,-0.63970947265625,-0.36029052734375,8288,-958,-88,-34,-30,13
129624517,0.60931396484375,-0.2994384765625,-0.639892578125,-0.360107421875,8356,-1116,-73,-28,-29,8
129634500,0.60711669921875,-0.30340576171875,-0.64031982421875,-0.35968017578125,8421,-1260,-70,-20,-26,4
129644482,0.605224609375,-0.30645751953125,-0.6409912109375,-0.35906982421875,8484,-1369,-73,-13,-24,1
129654466,0.60369873046875,-0.3087158203125,-0.64190673828125,-0.35809326171875,8561,-1470,-70,-6,-21,-1
129664447,0.6025390625,-0.31011962890625,-0.64306640625,-0.35675048828125,8633,-1548,-78,2,-19,-3
129674433,0.6019287109375,-0.3106689453125,-0.64434814453125,-0.3551025390625,8690,-1589,-71,9,-16,-4
129684416,0.60174560546875,-0.31048583984375,-0.645751953125,-0.35302734375,8746,-1608,-83,17,-13,-5
129694398,0.60198974609375,-0.3094482421875,-0.64727783203125,-0.3505859375,8803,-1575,-111,24,-10,-6
129704376,0.60272216796875,-0.3077392578125,-0.64892578125,-0.34771728515625,8863,-1540,-152,32,-6,-6
129714358,0.60394287109375,-0.30523681640625,-0.65069580078125,-0.344482421875,8912,-1458,-198,39,-3,-7
129724345,0.6055908203125,-0.30194091796875,-0.652587890625,-0.34100341796875,8937,-1383,-248,45,1,-9
129734324,0.60760498046875,-0.29779052734375,-0.65447998046875,-0.33740234375,8945,-1273,-312,51,5,-11
129744308,0.60992431640625,-0.292724609375,-0.65655517578125,-0.3336181640625,8936,-1144,-372,57,8,-14
129754291,0.61248779296875,-0.28680419921875,-0.65863037109375,-0.32989501953125,8910,-976,-438,62,12,-18
129764273,0.61517333984375,-0.28009033203125,-0.66082763671875,-0.326171875,8899,-766,-519,67,15,-21
129774257,0.61810302734375,-0.2725830078125,-0.6630859375,-0.32257080078125,8887,-540,-587,70,19,-24
129784236,0.62115478515625,-0.26446533203125,-0.66522216796875,-0.31903076171875,8853,-304,-629,73,22,-26
129794229,0.6243896484375,-0.255859375,-0.667236328125,-0.31549072265625,8808,-41,-661,75,25,-27
129804213,0.627685546875,-0.246826171875,-0.66912841796875,-0.31207275390625,8754,211,-686,76,27,-28
129814200,0.63104248046875,-0.23760986328125,-0.67083740234375,-0.3087158203125,8683,479,-701,76,29,-28
129824185,0.63446044921875,-0.228271484375,-0.67236328125,-0.305419921875,8601,748,-699,76,30,-28
129834168,0.6378173828125,-0.21893310546875,-0.6737060546875,-0.30230712890625,8495,998,-695,75,31,-27
129844151,0.64117431640625,-0.209716796875,-0.67486572265625,-0.29913330078125,8373,1228,-678,73,32,-26
129854121,0.64447021484375,-0.20074462890625,-0.67584228515625,-0.2960205078125,8217,1431,-667,71,32,-24
129864104,0.647705078125,-0.192138671875,-0.67657470703125,-0.29296875,8062,1623,-631,68,31,-21
129874088,0.65087890625,-0.18389892578125,-0.67718505859375,-0.28985595703125,7915,1794,-591,66,31,-19
129884073,0.65386962890625,-0.1761474609375,-0.67767333984375,-0.28680419921875,7793,1934,-556,62,30,-16
129894055,0.65667724609375,-0.16876220703125,-0.67803955078125,-0.28387451171875,7718,2057,-516,59,28,-15
129904037,0.6593017578125,-0.16162109375,-0.6783447265625,-0.28118896484375,7659,2158,-471,56,27,-16
129914021,0.66168212890625,-0.15472412109375,-0.67864990234375,-0.27886962890625,7584,2249,-386,52,25,-17
129924002,0.66375732421875,-0.14801025390625,-0.67889404296875,-0.27685546875,7515,2323,-297,49,23,-18
129933990,0.66558837890625,-0.1416015625,-0.67913818359375,-0.27520751953125,7460,2379,-199,45,21,-19
129943974,0.6671142578125,-0.13543701171875,-0.679443359375,-0.27386474609375,7390,2438,-129,42,19,-20
129953951,0.6683349609375,-0.12957763671875,-0.6798095703125,-0.27288818359375,7340,2478,-67,38,17,-21
129963933,0.66925048828125,-0.12408447265625,-0.68017578125,-0.2720947265625,7326,2530,-39,34,15,-21
129973914,0.66998291015625,-0.118896484375,-0.68060302734375,-0.27166748046875,7339,2584,-11,31,13,-21
129983896,0.67047119140625,-0.11419677734375,-0.6810302734375,-0.27142333984375,7370,2641,3,27,11,-21
129993880,0.6707763671875,-0.10992431640625,-0.68145751953125,-0.2713623046875,7386,2679,19,23,9,-19
130003864,0.67095947265625,-0.106201171875,-0.681884765625,-0.27130126953125,7425,2700,34,20,7,-16
130013850,0.6710205078125,-0.1031494140625,-0.68231201171875,-0.271240234375,7449,2702,55,16,5,-13
130023832,0.67108154296875,-0.1005859375,-0.68267822265625,-0.271240234375,7472,2699,86,13,4,-11
130033817,0.67095947265625,-0.09857177734375,-0.68304443359375,-0.27117919921875,7494,2697,109,10,2,-8
130043797,0.6707763671875,-0.0970458984375,-0.6834716796875,-0.27130126953125,7509,2679,131,7,0,-7
130053781,0.67047119140625,-0.0958251953125,-0.683837890625,-0.27142333984375,7533,2647,155,5,-1,-6
130063760,0.67010498046875,-0.094970703125,-0.68426513671875,-0.2716064453125,7543,2607,161,3,-3,-5
130073751,0.66961669921875,-0.094482421875,-0.6846923828125,-0.27191162109375,7553,2564,158,1,-4,-4
130083734,0.6690673828125,-0.09417724609375,-0.68511962890625,-0.2723388671875,7578,2525,151,-2,-5,-4
130093707,0.66839599609375,-0.09417724609375,-0.685546875,-0.2728271484375,7582,2472,149,-3,-6,-3
130103689,0.66766357421875,-0.094482421875,-0.68603515625,-0.27337646484375,7596,2427,162,-5,-7,-3
130113672,0.6668701171875,-0.0948486328125,-0.68646240234375,-0.2740478515625,7616,2383,172,-7,-7,-3
130123655,0.66595458984375,-0.095458984375,-0.6868896484375,-0.27484130859375,7649,2336,178,-8,-8,-3
130133639,0.6650390625,-0.09619140625,-0.6873779296875,-0.2757568359375,7706,2296,198,-9,-9,-4
130143621,0.6640625,-0.09686279296875,-0.68780517578125,-0.27679443359375,7766,2266,216,-10,-9,-4
130153603,0.6629638671875,-0.09771728515625,-0.68829345703125,-0.27789306640625,7819,2249,234,-11,-10,-4
130163585,0.661865234375,-0.09857177734375,-0.688720703125,-0.27911376953125,7862,2219,234,-12,-10,-5
130173569,0.6607666015625,-0.09954833984375,-0.68914794921875,-0.2802734375,7904,2191,253,-12,-11,-4
130183552,0.65966796875,-0.1005859375,-0.6895751953125,-0.2813720703125,7933,2156,257,-12,-10,-3
130193537,0.65869140625,-0.101806640625,-0.68994140625,-0.282470703125,7972,2114,271,-13,-10,-2
130203521,0.65771484375,-0.10321044921875,-0.69024658203125,-0.28338623046875,7994,2082,270,-13,-10,0
130213502,0.6568603515625,-0.104736328125,-0.6905517578125,-0.2841796875,8021,2045,270,-13,-10,2
130223483,0.65606689453125,-0.10638427734375,-0.6907958984375,-0.28485107421875,8038,2027,261,-13,-10,3
130233466,0.65533447265625,-0.108154296875,-0.69091796875,-0.285400390625,8063,1999,279,-13,-9,4
130243448,0.65472412109375,-0.1099853515625,-0.6910400390625,-0.28582763671875,8091,1965,295,-13,-9,5
130253429,0.65423583984375,-0.11175537109375,-0.69110107421875,-0.28619384765625,8104,1929,315,-12,-8,6
130263422,0.65374755859375,-0.113525390625,-0.69110107421875,-0.28656005859375,8119,1892,327,-12,-7,5
130273402,0.6533203125,-0.1151123046875,-0.69110107421875,-0.28692626953125,8140,1867,348,-11,-7,4
130283386,0.6529541015625,-0.116455078125,-0.6910400390625,-0.287353515625,8156,1849,364,-11,-6,3
130293362,0.65252685546875,-0.11767578125,-0.69097900390625,-0.28790283203125,8184,1844,371,-10,-5,1
130303346,0.6522216796875,-0.11865234375,-0.69091796875,-0.2884521484375,8189,1824,374,-9,-5,0
130313329,0.65185546875,-0.11944580078125,-0.69085693359375,-0.2890625,8180,1804,372,-8,-4,-2
130323309,0.65155029296875,-0.12005615234375,-0.69073486328125,-0.2896728515625,8179,1780,372,-7,-3,-2
130333292,0.6513671875,-0.12054443359375,-0.69061279296875,-0.29034423828125,8173,1754,379,-7,-2,-3
130343276,0.651123046875,-0.120849609375,-0.69049072265625,-0.29095458984375,8152,1742,381,-6,-2,-4
130353262,0.6510009765625,-0.12109375,-0.69036865234375,-0.29150390625,8135,1736,372,-5,-1,-3
130363250,0.65093994140625,-0.12127685546875,-0.690185546875,-0.29193115234375,8139,1741,359,-4,0,-3
130373236,0.65093994140625,-0.12139892578125,-0.69000244140625,-0.29229736328125,8144,1746,356,-3,0,-3
130383216,0.65106201171875,-0.121337890625,-0.6898193359375,-0.2926025390625,8147,1770,362,-2,1,-3
130393200,0.651123046875,-0.121337890625,-0.68963623046875,-0.2928466796875,8137,1779,358,-1,1,-2
130403182,0.6513671875,-0.1212158203125,-0.68939208984375,-0.29296875,8111,1788,354,-1,1,-2
130413177,0.651611328125,-0.12103271484375,-0.68914794921875,-0.29296875,8089,1790,359,0,2,-2
130423155,0.65191650390625,-0.1207275390625,-0.68896484375,-0.29296875,8054,1804,359,1,2,-2
130433133,0.65216064453125,-0.12042236328125,-0.68878173828125,-0.2928466796875,8014,1820,359,2,2,-1
130443112,0.65252685546875,-0.12005615234375,-0.6885986328125,-0.292724609375,8002,1835,340,3,3,-2
130453092,0.65283203125,-0.11956787109375,-0.6884765625,-0.29254150390625,7995,1855,316,3,2,-2
130463072,0.65313720703125,-0.11895751953125,-0.6883544921875,-0.2923583984375,8002,1877,290,4,3,-3
130473056,0.65338134765625,-0.11822509765625,-0.68829345703125,-0.292236328125,7993,1897,280,4,3,-4
130483039,0.65362548828125,-0.1173095703125,-0.688232421875,-0.29217529296875,7988,1912,263,5,3,-5
130493023,0.65386962890625,-0.1163330078125,-0.68817138671875,-0.29217529296875,7990,1924,260,5,3,-6
130503006,0.654052734375,-0.11529541015625,-0.68817138671875,-0.29217529296875,7983,1937,249,5,3,-6
130512990,0.65423583984375,-0.1141357421875,-0.68817138671875,-0.29217529296875,7978,1966,244,6,3,-7
130522976,0.6544189453125,-0.113037109375,-0.688232421875,-0.2921142578125,7971,1983,236,6,3,-6
130532952,0.65460205078125,-0.1119384765625,-0.68829345703125,-0.2919921875,7977,2006,225,6,3,-5
130542936,0.65484619140625,-0.11090087890625,-0.6883544921875,-0.291748046875,7976,2033,230,7,3,-4
130552918,0.65509033203125,-0.1099853515625,-0.6883544921875,-0.2913818359375,7952,2039,214,7,3,-3
130562902,0.6553955078125,-0.109130859375,-0.68841552734375,-0.29095458984375,7925,2053,213,7,3,-2
130572884,0.6556396484375,-0.1082763671875,-0.68853759765625,-0.29052734375,7905,2062,206,7,2,-2
