subject,Ian Lake
arm,left
label,3
hz,100.17346600192367
time,4.76174

timestamp_us,q0,q1,q2,q3,ax,ay,az,gx,gy,gz
70914852,0.12493896484375,0.45367431640625,0.54949951171875,-0.69036865234375,-6098,-5513,-83,8,3,1
70924837,0.1240234375,0.45404052734375,0.548828125,-0.6907958984375,-6043,-5489,-116,9,4,-1
70934815,0.12274169921875,0.454345703125,0.54827880859375,-0.6912841796875,-5985,-5465,-167,11,4,-4
70944799,0.12115478515625,0.45458984375,0.54779052734375,-0.6917724609375,-5947,-5419,-223,11,5,-7
70954782,0.11944580078125,0.45477294921875,0.54736328125,-0.6922607421875,-5909,-5364,-274,12,5,-8
70964762,0.11749267578125,0.4549560546875,0.54705810546875,-0.69281005859375,-5879,-5314,-316,12,6,-9
70974754,0.115478515625,0.455078125,0.5467529296875,-0.69329833984375,-5855,-5269,-343,12,7,-10
70984735,0.11328125,0.4552001953125,0.5465087890625,-0.6937255859375,-5840,-5233,-377,12,7,-11
70994712,0.11114501953125,0.45538330078125,0.54632568359375,-0.69415283203125,-5852,-5184,-401,11,7,-12
71004693,0.1090087890625,0.45550537109375,0.546142578125,-0.6944580078125,-5866,-5146,-412,11,8,-12
71014677,0.10675048828125,0.4556884765625,0.54608154296875,-0.69476318359375,-5879,-5131,-413,11,8,-12
71024660,0.10455322265625,0.4559326171875,0.54595947265625,-0.695068359375,-5908,-5126,-420,11,9,-12
71034642,0.1024169921875,0.456298828125,0.5458984375,-0.6951904296875,-5906,-5114,-421,10,9,-12
71044630,0.1002197265625,0.4566650390625,0.54583740234375,-0.6953125,-5898,-5131,-399,10,11,-11
71054610,0.09796142578125,0.4571533203125,0.54571533203125,-0.69537353515625,-5880,-5119,-363,10,12,-11
71064593,0.09576416015625,0.457763671875,0.54559326171875,-0.69537353515625,-5854,-5124,-320,9,13,-11
71074577,0.0933837890625,0.45843505859375,0.5455322265625,-0.69537353515625,-5832,-5118,-280,10,14,-11
71084560,0.09088134765625,0.45916748046875,0.54541015625,-0.69525146484375,-5812,-5127,-229,10,16,-11
71094540,0.08819580078125,0.46002197265625,0.54534912109375,-0.69512939453125,-5780,-5127,-185,10,17,-12
71104523,0.08551025390625,0.4609375,0.545166015625,-0.6949462890625,-5776,-5155,-148,10,18,-11
71114507,0.0828857421875,0.462158203125,0.544921875,-0.6947021484375,-5808,-5210,-137,10,19,-9
71124488,0.08038330078125,0.463623046875,0.5445556640625,-0.69427490234375,-5835,-5274,-146,11,21,-6
71134472,0.07818603515625,0.46533203125,0.54400634765625,-0.69378662109375,-5886,-5349,-141,10,21,-2
71144461,0.076171875,0.46734619140625,0.5433349609375,-0.6932373046875,-5936,-5441,-156,9,22,1
71154443,0.07440185546875,0.46942138671875,0.54254150390625,-0.69256591796875,-5970,-5533,-157,9,21,3
71164429,0.0728759765625,0.47161865234375,0.54168701171875,-0.69195556640625,-6012,-5614,-134,8,21,5
71174411,0.0714111328125,0.47381591796875,0.54083251953125,-0.6912841796875,-6014,-5670,-83,8,21,5
71184397,0.06982421875,0.47576904296875,0.5400390625,-0.69073486328125,-5990,-5738,-22,7,21,4
71194372,0.068115234375,0.4775390625,0.53936767578125,-0.690185546875,-5962,-5803,55,7,20,1
71204355,0.066162109375,0.47894287109375,0.53887939453125,-0.68975830078125,-5923,-5893,160,7,19,-2
71214335,0.06378173828125,0.47991943359375,0.53857421875,-0.6895751953125,-5888,-6011,262,8,18,-7
71224319,0.06109619140625,0.48052978515625,0.5384521484375,-0.68951416015625,-5910,-6171,355,9,17,-11
71234301,0.05810546875,0.480712890625,0.5384521484375,-0.68963623046875,-5986,-6372,440,9,16,-15
71244287,0.0548095703125,0.48052978515625,0.53857421875,-0.68994140625,-6073,-6607,502,10,15,-18
71254265,0.0511474609375,0.47991943359375,0.538818359375,-0.6904296875,-6125,-6854,564,12,13,-22
71264250,0.04705810546875,0.4788818359375,0.5391845703125,-0.691162109375,-6169,-7100,637,13,12,-27
71274238,0.04248046875,0.47735595703125,0.53973388671875,-0.69207763671875,-6178,-7329,705,15,11,-32
71284220,0.03729248046875,0.4752197265625,0.5404052734375,-0.69329833984375,-6193,-7542,794,17,9,-39
71294205,0.03131103515625,0.47247314453125,0.5413818359375,-0.6947021484375,-6231,-7745,853,19,9,-48
71304184,0.02459716796875,0.4691162109375,0.54266357421875,-0.6962890625,-6310,-7951,921,21,7,-57
71314176,0.01727294921875,0.465087890625,0.54412841796875,-0.69805908203125,-6398,-8165,973,23,6,-64
71324160,0.009521484375,0.4605712890625,0.545654296875,-0.70001220703125,-6489,-8378,1026,25,4,-69
71334137,0.0015869140625,0.45556640625,0.54718017578125,-0.7021484375,-6554,-8601,1070,26,2,-72
71344113,-0.00640869140625,0.4503173828125,0.548583984375,-0.7044677734375,-6599,-8849,1098,28,-1,-72
71354092,-0.01422119140625,0.44476318359375,0.5496826171875,-0.70697021484375,-6643,-9127,1108,30,-4,-71
71364077,-0.021728515625,0.4390869140625,0.55047607421875,-0.709716796875,-6695,-9415,1086,32,-8,-69
71374060,-0.02880859375,0.4332275390625,0.55096435546875,-0.712646484375,-6777,-9705,1040,35,-12,-67
71384045,-0.0355224609375,0.4271240234375,0.55120849609375,-0.7158203125,-6891,-9996,961,36,-17,-66
71394024,-0.04205322265625,0.420654296875,0.55126953125,-0.71923828125,-6988,-10259,879,39,-22,-67
71404008,-0.0484619140625,0.41357421875,0.55133056640625,-0.722900390625,-7056,-10481,792,41,-27,-70
71413990,-0.05523681640625,0.4056396484375,0.551513671875,-0.726806640625,-7096,-10670,726,43,-32,-78
71423979,-0.06256103515625,0.39666748046875,0.5518798828125,-0.7308349609375,-7099,-10802,700,46,-36,-88
71433956,-0.07073974609375,0.3865966796875,0.5526123046875,-0.7349853515625,-7043,-10900,705,48,-39,-100
71443939,-0.07989501953125,0.37530517578125,0.5535888671875,-0.7391357421875,-6952,-10972,725,50,-43,-113
71453921,-0.08984375,0.3629150390625,0.55474853515625,-0.7432861328125,-6829,-11024,734,53,-46,-124
71463904,-0.10052490234375,0.349609375,0.55609130859375,-0.747314453125,-6690,-11071,736,55,-49,-132
71473886,-0.111572265625,0.33563232421875,0.5572509765625,-0.751220703125,-6533,-11162,720,58,-51,-137
71483872,-0.12255859375,0.3212890625,0.55828857421875,-0.7550048828125,-6335,-11226,716,59,-53,-138
71493853,-0.13336181640625,0.306640625,0.55908203125,-0.75872802734375,-6121,-11287,713,61,-56,-138
71503836,-0.143798828125,0.2918701171875,0.5595703125,-0.76226806640625,-5866,-11306,703,62,-58,-136
71513820,-0.15386962890625,0.2769775390625,0.559814453125,-0.765625,-5577,-11245,714,62,-60,-134
71523803,-0.16387939453125,0.26177978515625,0.5599365234375,-0.76885986328125,-5262,-11138,761,62,-61,-137
71533787,-0.17413330078125,0.24609375,0.55999755859375,-0.771728515625,-4928,-11011,834,62,-62,-142
71543765,-0.18487548828125,0.2298583984375,0.55999755859375,-0.77423095703125,-4585,-10874,911,62,-62,-148
71553759,-0.19610595703125,0.213134765625,0.55999755859375,-0.77618408203125,-4206,-10699,987,62,-62,-155
71563740,-0.20806884765625,0.19573974609375,0.55999755859375,-0.7777099609375,-3800,-10477,1082,62,-62,-163
71573716,-0.22088623046875,0.17767333984375,0.559814453125,-0.77862548828125,-3390,-10207,1158,62,-61,-173
71583702,-0.23443603515625,0.1590576171875,0.5595703125,-0.77886962890625,-2989,-9922,1218,62,-59,-181
71593684,-0.24871826171875,0.14007568359375,0.55902099609375,-0.7784423828125,-2571,-9642,1268,63,-57,-188
71603665,-0.2635498046875,0.12078857421875,0.55816650390625,-0.7774658203125,-2144,-9356,1341,63,-54,-192
71613649,-0.278564453125,0.1014404296875,0.55694580078125,-0.77587890625,-1732,-9070,1379,63,-52,-194
71623631,-0.29364013671875,0.08221435546875,0.55523681640625,-0.7738037109375,-1361,-8772,1399,63,-49,-195
71633616,-0.3087158203125,0.06329345703125,0.55316162109375,-0.77117919921875,-958,-8483,1444,63,-46,-193
71643595,-0.32354736328125,0.04473876953125,0.55059814453125,-0.76824951171875,-557,-8227,1521,62,-43,-191
71653578,-0.3382568359375,0.02655029296875,0.547607421875,-0.76483154296875,-188,-7994,1579,62,-40,-189
71663563,-0.352783203125,0.00885009765625,0.54425048828125,-0.7611083984375,138,-7790,1638,61,-37,-187
71673545,-0.3673095703125,-0.0084228515625,0.54052734375,-0.75689697265625,463,-7564,1705,61,-33,-187
71683526,-0.3818359375,-0.02545166015625,0.53631591796875,-0.7523193359375,744,-7343,1772,60,-29,-187
71693511,-0.3966064453125,-0.04217529296875,0.53173828125,-0.74713134765625,981,-7108,1814,59,-26,-190
71703492,-0.41156005859375,-0.0587158203125,0.5267333984375,-0.741455078125,1211,-6889,1883,59,-22,-193
71713475,-0.4267578125,-0.07513427734375,0.5213623046875,-0.73516845703125,1409,-6700,1935,58,-20,-196
71723458,-0.4420166015625,-0.09130859375,0.515625,-0.72833251953125,1558,-6529,1987,57,-18,-198
71733443,-0.45703125,-0.10711669921875,0.50958251953125,-0.72113037109375,1681,-6369,2041,56,-16,-197
71743430,-0.4715576171875,-0.12249755859375,0.50335693359375,-0.713623046875,1742,-6216,2086,55,-16,-193
71753411,-0.4853515625,-0.13739013671875,0.4970703125,-0.7060546875,1821,-6075,2112,54,-16,-187
71763395,-0.4981689453125,-0.15179443359375,0.490966796875,-0.69842529296875,1924,-5947,2149,52,-18,-179
71773370,-0.510009765625,-0.1656494140625,0.48492431640625,-0.69091796875,2027,-5826,2197,51,-20,-170
71783353,-0.52069091796875,-0.17901611328125,0.47918701171875,-0.68359375,2102,-5625,2241,49,-23,-162
71793337,-0.5306396484375,-0.192138671875,0.4736328125,-0.6761474609375,2158,-5313,2280,47,-26,-156
71803321,-0.54022216796875,-0.205322265625,0.46826171875,-0.66839599609375,2222,-4938,2329,45,-29,-156
71813301,-0.54962158203125,-0.21875,0.4630126953125,-0.66009521484375,2325,-4534,2392,43,-32,-157
71823287,-0.55908203125,-0.232421875,0.457763671875,-0.651123046875,2432,-4085,2430,40,-35,-161
71833268,-0.5687255859375,-0.246337890625,0.45245361328125,-0.6412353515625,2515,-3576,2476,37,-37,-165
71843251,-0.57867431640625,-0.2606201171875,0.447021484375,-0.63043212890625,2612,-2971,2539,34,-39,-172
71853231,-0.589111328125,-0.2752685546875,0.44122314453125,-0.6185302734375,2709,-2333,2629,31,-40,-179
71863222,-0.599853515625,-0.2900390625,0.43511962890625,-0.6055908203125,2786,-1725,2681,28,-41,-185
71873204,-0.6107177734375,-0.3046875,0.42889404296875,-0.5919189453125,2819,-1158,2710,25,-41,-187
71883183,-0.6212158203125,-0.31890869140625,0.422607421875,-0.57781982421875,2823,-636,2729,23,-41,-184
71893176,-0.63116455078125,-0.3326416015625,0.4163818359375,-0.56365966796875,2775,-113,2732,21,-41,-177
71903159,-0.6402587890625,-0.34564208984375,0.41033935546875,-0.5498046875,2713,413,2735,19,-41,-167
71913138,-0.6485595703125,-0.3577880859375,0.404541015625,-0.53643798828125,2639,939,2764,17,-41,-155
71923115,-0.6558837890625,-0.36907958984375,0.39910888671875,-0.52386474609375,2564,1431,2764,16,-40,-141
71933098,-0.66204833984375,-0.3792724609375,0.394287109375,-0.5123291015625,2484,1869,2722,15,-39,-123
71943080,-0.6669921875,-0.38836669921875,0.39013671875,-0.502197265625,2411,2290,2670,14,-37,-103
71953064,-0.670654296875,-0.39630126953125,0.38677978515625,-0.49359130859375,2363,2699,2624,13,-35,-82
71963045,-0.6732177734375,-0.40301513671875,0.38421630859375,-0.4866943359375,2357,3042,2569,12,-33,-61
71973028,-0.6746826171875,-0.4085693359375,0.38226318359375,-0.4814453125,2337,3309,2483,13,-28,-42
71983010,-0.67529296875,-0.4132080078125,0.3807373046875,-0.47784423828125,2305,3509,2353,13,-24,-25
71992991,-0.675048828125,-0.4169921875,0.379638671875,-0.475830078125,2242,3650,2196,15,-19,-9
72002982,-0.67376708984375,-0.41986083984375,0.37908935546875,-0.47552490234375,2165,3748,2032,17,-15,9
72012957,-0.67144775390625,-0.42181396484375,0.3790283203125,-0.47711181640625,2094,3827,1863,20,-11,29
72022940,-0.66802978515625,-0.4228515625,0.379638671875,-0.48052978515625,2030,3939,1704,21,-8,49
72032925,-0.6634521484375,-0.4229736328125,0.3809814453125,-0.48565673828125,1993,4048,1555,22,-6,69
72042906,-0.65789794921875,-0.422119140625,0.38311767578125,-0.49224853515625,2013,4150,1413,21,-4,86
72052887,-0.65155029296875,-0.42047119140625,0.3857421875,-0.5,2051,4255,1281,20,-2,99
72065989,-0.64453125,-0.41802978515625,0.38897705078125,-0.50848388671875,2135,4282,1145,18,1,110
72072854,-0.63720703125,-0.41473388671875,0.392578125,-0.51763916015625,2234,4254,1024,15,3,117
72082837,-0.62939453125,-0.41058349609375,0.39654541015625,-0.52734375,2340,4193,930,13,6,126
72092822,-0.62127685546875,-0.4056396484375,0.40081787109375,-0.5374755859375,2430,4069,857,10,9,133
72102803,-0.61273193359375,-0.39971923828125,0.405517578125,-0.548095703125,2490,3882,777,7,11,141
72112787,-0.6036376953125,-0.39276123046875,0.41070556640625,-0.55926513671875,2532,3650,714,3,13,150
72122762,-0.59393310546875,-0.3846435546875,0.4163818359375,-0.5709228515625,2566,3386,659,-1,16,161
72132750,-0.58343505859375,-0.3753662109375,0.42266845703125,-0.58319091796875,2613,3074,623,-5,17,172
72142734,-0.572021484375,-0.36492919921875,0.4295654296875,-0.595947265625,2650,2738,590,-8,19,183
72152710,-0.55987548828125,-0.35321044921875,0.43695068359375,-0.6090087890625,2704,2379,586,-13,21,193
72162693,-0.54718017578125,-0.34033203125,0.4447021484375,-0.62213134765625,2745,1978,610,-17,23,199
72172675,-0.53411865234375,-0.32647705078125,0.45263671875,-0.63507080078125,2786,1557,658,-23,25,202
72182659,-0.52093505859375,-0.31170654296875,0.46063232421875,-0.64752197265625,2839,1082,725,-27,28,202
72192641,-0.5076904296875,-0.296142578125,0.46875,-0.65948486328125,2900,517,796,-32,30,202
72202630,-0.49407958984375,-0.27960205078125,0.47698974609375,-0.6710205078125,2955,-142,877,-37,32,205
72212606,-0.47991943359375,-0.26202392578125,0.48541259765625,-0.6822509765625,3021,-847,972,-41,34,209
72222590,-0.4649658203125,-0.24334716796875,0.494140625,-0.69317626953125,3068,-1599,1048,-45,35,216
72232573,-0.44921875,-0.22357177734375,0.5029296875,-0.70379638671875,3063,-2355,1155,-48,36,222
72242554,-0.4327392578125,-0.20306396484375,0.51177978515625,-0.7138671875,3073,-3119,1250,-52,37,225
72252536,-0.41595458984375,-0.1820068359375,0.5205078125,-0.72314453125,3085,-3859,1376,-55,37,225
72262520,-0.399169921875,-0.16064453125,0.52899169921875,-0.7314453125,3042,-4633,1527,-59,38,220
72272504,-0.38275146484375,-0.1392822265625,0.5372314453125,-0.7386474609375,2989,-5346,1677,-62,38,212
72282485,-0.36724853515625,-0.11846923828125,0.544921875,-0.74444580078125,2871,-5917,1820,-65,39,199
72292469,-0.35302734375,-0.0985107421875,0.55218505859375,-0.74884033203125,2701,-6437,1945,-67,39,181
72302457,-0.34027099609375,-0.07965087890625,0.55914306640625,-0.75189208984375,2562,-6794,2080,-70,38,164
72312443,-0.3291015625,-0.06201171875,0.56573486328125,-0.7535400390625,2424,-7029,2200,-73,38,146
72322429,-0.3193359375,-0.04547119140625,0.572265625,-0.75396728515625,2312,-7246,2285,-77,37,130
72332410,-0.31036376953125,-0.02960205078125,0.57879638671875,-0.7535400390625,2173,-7473,2370,-81,37,122
72342391,-0.301513671875,-0.01373291015625,0.5855712890625,-0.75238037109375,1978,-7804,2364,-85,36,121
72352368,-0.29193115234375,0.00238037109375,0.59246826171875,-0.7508544921875,1794,-8115,2315,-87,34,127
72362351,-0.28167724609375,0.01885986328125,0.59942626953125,-0.7490234375,1556,-8413,2251,-89,32,131
72372334,-0.27099609375,0.03521728515625,0.6063232421875,-0.74676513671875,1355,-8671,2129,-91,30,131
72382316,-0.26068115234375,0.05078125,0.61309814453125,-0.7440185546875,1207,-8851,2045,-91,28,123
72392300,-0.25140380859375,0.0653076171875,0.61981201171875,-0.74053955078125,969,-9152,1935,-91,27,109
72402287,-0.24298095703125,0.07861328125,0.62646484375,-0.7364501953125,769,-9543,1784,-91,25,96
72412264,-0.23504638671875,0.09100341796875,0.6331787109375,-0.7318115234375,522,-9957,1590,-91,21,89
72422250,-0.22686767578125,0.102783203125,0.639892578125,-0.72698974609375,237,-10533,1317,-90,17,87
72432237,-0.21795654296875,0.11431884765625,0.64654541015625,-0.72210693359375,22,-11084,1046,-88,11,91
72442219,-0.2083740234375,0.12530517578125,0.65289306640625,-0.71734619140625,-73,-11447,861,-86,6,93
72452202,-0.19921875,0.13507080078125,0.6590576171875,-0.7125244140625,-113,-11662,696,-84,1,83
72462181,-0.1912841796875,0.14312744140625,0.66522216796875,-0.7073974609375,-163,-11882,555,-82,-1,65
72472168,-0.184814453125,0.14935302734375,0.6715087890625,-0.701904296875,-243,-12272,349,-80,-4,47
72482152,-0.178955078125,0.154296875,0.677734375,-0.6962890625,-291,-12789,91,-77,-7,40
72492121,-0.1728515625,0.1588134765625,0.68377685546875,-0.69091796875,-331,-13283,-171,-73,-12,42
72502104,-0.1658935546875,0.163330078125,0.6893310546875,-0.68603515625,-387,-13762,-441,-70,-17,49
72512086,-0.15814208984375,0.16790771484375,0.69451904296875,-0.6815185546875,-407,-14216,-690,-66,-21,55
72522068,-0.15008544921875,0.172119140625,0.69921875,-0.677490234375,-393,-14660,-888,-61,-24,56
72532051,-0.14227294921875,0.17547607421875,0.70355224609375,-0.67376708984375,-353,-15112,-1071,-57,-27,50
72542034,-0.13531494140625,0.1776123046875,0.70770263671875,-0.6702880859375,-313,-15449,-1251,-52,-30,39
72552017,-0.12957763671875,0.17816162109375,0.711669921875,-0.66705322265625,-273,-15697,-1397,-46,-31,23
72561999,-0.1253662109375,0.17669677734375,0.71563720703125,-0.66400146484375,-205,-15880,-1535,-41,-34,3
72571986,-0.12310791015625,0.17291259765625,0.7196044921875,-0.66119384765625,-76,-16013,-1597,-35,-35,-21
72581960,-0.12286376953125,0.166748046875,0.72344970703125,-0.6585693359375,135,-16112,-1577,-29,-36,-45
72591944,-0.124755859375,0.15814208984375,0.7271728515625,-0.65625,404,-16077,-1494,-23,-37,-69
72601927,-0.128662109375,0.14739990234375,0.730712890625,-0.65399169921875,724,-15811,-1337,-18,-37,-91
72611911,-0.13421630859375,0.1348876953125,0.73394775390625,-0.6519775390625,1085,-15355,-1126,-12,-36,-108
72621894,-0.14111328125,0.12109375,0.73675537109375,-0.65008544921875,1439,-14771,-899,-8,-34,-121
72631874,-0.14874267578125,0.106689453125,0.73907470703125,-0.6483154296875,1787,-14205,-693,-3,-33,-126
72641862,-0.156494140625,0.09246826171875,0.74078369140625,-0.646728515625,2106,-13621,-496,1,-30,-123
72651843,-0.16387939453125,0.0789794921875,0.74188232421875,-0.64532470703125,2356,-13078,-310,3,-29,-116
72661826,-0.17059326171875,0.06658935546875,0.7425537109375,-0.64422607421875,2554,-12607,-179,5,-27,-106
72671808,-0.1766357421875,0.0552978515625,0.7427978515625,-0.6434326171875,2709,-12235,-70,7,-24,-95
72681789,-0.1820068359375,0.04498291015625,0.74273681640625,-0.642822265625,2836,-11918,4,8,-23,-88
72691778,-0.1871337890625,0.03515625,0.74237060546875,-0.642333984375,2932,-11635,38,10,-21,-85
72701765,-0.19268798828125,0.02532958984375,0.74188232421875,-0.64178466796875,3035,-11341,65,11,-19,-89
72711747,-0.19891357421875,0.01507568359375,0.7412109375,-0.6409912109375,3144,-11108,78,11,-16,-97
72721729,-0.20574951171875,0.00445556640625,0.7403564453125,-0.63995361328125,3205,-10961,35,12,-14,-103
72731705,-0.2130126953125,-0.00634765625,0.73944091796875,-0.63861083984375,3228,-10968,-93,12,-12,-108
72741687,-0.22021484375,-0.01690673828125,0.73846435546875,-0.63714599609375,3248,-11100,-273,12,-11,-107
72751671,-0.22698974609375,-0.027099609375,0.73736572265625,-0.6356201171875,3247,-11328,-519,13,-11,-104
72761654,-0.23333740234375,-0.03692626953125,0.73638916015625,-0.63397216796875,3291,-11537,-776,13,-11,-102
72771637,-0.23968505859375,-0.046875,0.73529052734375,-0.6322021484375,3376,-11663,-1010,14,-12,-104
72781620,-0.24639892578125,-0.05743408203125,0.73406982421875,-0.63018798828125,3512,-11671,-1166,14,-12,-112
72791603,-0.25408935546875,-0.06915283203125,0.7325439453125,-0.62774658203125,3710,-11526,-1247,15,-11,-126
72801586,-0.26324462890625,-0.0823974609375,0.73052978515625,-0.62469482421875,3955,-11260,-1274,15,-10,-144
72811568,-0.27398681640625,-0.09716796875,0.7281494140625,-0.6207275390625,4228,-10908,-1263,14,-8,-163
72821551,-0.28607177734375,-0.1131591796875,0.72515869140625,-0.61602783203125,4532,-10537,-1237,14,-6,-176
72831536,-0.29876708984375,-0.129638671875,0.72174072265625,-0.61077880859375,4845,-10145,-1211,13,-3,-182
72841513,-0.31182861328125,-0.14599609375,0.71795654296875,-0.60504150390625,5187,-9683,-1148,11,-1,-183
72851501,-0.324951171875,-0.162109375,0.7137451171875,-0.598876953125,5492,-9137,-1069,10,2,-183
72861481,-0.3385009765625,-0.1781005859375,0.70916748046875,-0.59228515625,5778,-8525,-964,8,5,-185
72871463,-0.3526611328125,-0.19403076171875,0.7039794921875,-0.58514404296875,6002,-7918,-886,6,9,-191
72881446,-0.367431640625,-0.21002197265625,0.69830322265625,-0.5772705078125,6191,-7316,-846,4,13,-196
72891425,-0.38275146484375,-0.225830078125,0.69207763671875,-0.56884765625,6349,-6721,-801,2,18,-200
72901416,-0.3985595703125,-0.2413330078125,0.685302734375,-0.55975341796875,6446,-6196,-776,-1,23,-203
72911396,-0.41436767578125,-0.25604248046875,0.67816162109375,-0.55035400390625,6471,-5777,-800,-3,28,-201
72921374,-0.42987060546875,-0.26983642578125,0.6707763671875,-0.54083251953125,6403,-5492,-867,-5,32,-196
72931356,-0.44488525390625,-0.28253173828125,0.66326904296875,-0.5313720703125,6313,-5312,-987,-7,35,-190
72941344,-0.45928955078125,-0.294189453125,0.65576171875,-0.52203369140625,6208,-5154,-1119,-8,38,-183
72951323,-0.47320556640625,-0.30511474609375,0.6480712890625,-0.5128173828125,6073,-4999,-1246,-8,40,-179
72961304,-0.48681640625,-0.31561279296875,0.64013671875,-0.50360107421875,5922,-4823,-1348,-8,41,-177
72971287,-0.500244140625,-0.3258056640625,0.63189697265625,-0.49432373046875,5769,-4642,-1442,-7,43,-177
72981270,-0.5133056640625,-0.3358154296875,0.62335205078125,-0.4849853515625,5589,-4482,-1517,-6,43,-176
72991254,-0.5260009765625,-0.34552001953125,0.61456298828125,-0.4757080078125,5395,-4317,-1577,-5,44,-173
73001235,-0.53814697265625,-0.3548583984375,0.605712890625,-0.466552734375,5179,-4135,-1577,-4,43,-169
73011226,-0.54974365234375,-0.36395263671875,0.59661865234375,-0.45758056640625,4936,-3897,-1540,-3,42,-165
73021214,-0.560791015625,-0.37274169921875,0.58746337890625,-0.44891357421875,4657,-3651,-1452,0,41,-160
73031190,-0.5712890625,-0.38116455078125,0.57818603515625,-0.44049072265625,4350,-3390,-1295,2,41,-155
73041184,-0.5811767578125,-0.38916015625,0.56884765625,-0.4327392578125,4054,-3145,-1103,4,40,-147
73051168,-0.59014892578125,-0.396484375,0.5596923828125,-0.42584228515625,3746,-2884,-874,8,39,-134
73061152,-0.59808349609375,-0.403076171875,0.55084228515625,-0.42010498046875,3439,-2614,-594,12,38,-119
73071123,-0.60498046875,-0.40887451171875,0.54229736328125,-0.41571044921875,3139,-2296,-307,17,37,-103
73081105,-0.61083984375,-0.4140625,0.53399658203125,-0.41278076171875,2872,-1930,-3,22,38,-87
73091088,-0.615966796875,-0.418701171875,0.52569580078125,-0.4111328125,2660,-1484,332,28,39,-74
73101070,-0.6204833984375,-0.423095703125,0.51708984375,-0.41064453125,2518,-1017,673,35,42,-65
73111051,-0.6246337890625,-0.42730712890625,0.508056640625,-0.411376953125,2379,-530,964,42,47,-57
73121035,-0.6282958984375,-0.43121337890625,0.49853515625,-0.41326904296875,2227,-57,1201,49,52,-47
73131018,-0.63128662109375,-0.43475341796875,0.48870849609375,-0.416748046875,2025,448,1374,56,58,-33
73141000,-0.63323974609375,-0.4375,0.47906494140625,-0.42205810546875,1784,968,1478,63,62,-12
73150990,-0.6339111328125,-0.4393310546875,0.4698486328125,-0.42950439453125,1531,1562,1500,68,65,12
73160974,-0.6329345703125,-0.4400634765625,0.4615478515625,-0.43902587890625,1278,2199,1454,72,66,40
73170951,-0.63031005859375,-0.439697265625,0.4544677734375,-0.45050048828125,1068,2853,1352,74,65,67
73180933,-0.6259765625,-0.438232421875,0.44866943359375,-0.4635009765625,867,3467,1217,74,62,91
73190917,-0.6202392578125,-0.43585205078125,0.4442138671875,-0.47760009765625,710,4000,1050,72,57,112
73200898,-0.61334228515625,-0.4326171875,0.44097900390625,-0.4921875,652,4430,883,68,53,125
73210880,-0.60565185546875,-0.42889404296875,0.438720703125,-0.50677490234375,627,4755,738,63,48,133
73220865,-0.59747314453125,-0.4246826171875,0.43731689453125,-0.52105712890625,638,4955,594,58,43,137
73230849,-0.58880615234375,-0.419921875,0.4368896484375,-0.53497314453125,647,5057,496,51,38,142
73240831,-0.57952880859375,-0.4144287109375,0.43756103515625,-0.54864501953125,685,5039,415,44,33,150
73250813,-0.569580078125,-0.4080810546875,0.43951416015625,-0.5621337890625,763,4979,368,35,28,159
73260797,-0.558837890625,-0.4005126953125,0.44287109375,-0.57550048828125,870,4844,349,25,24,171
73270779,-0.54742431640625,-0.3917236328125,0.4476318359375,-0.5887451171875,1019,4657,368,15,21,181
73280766,-0.535400390625,-0.38153076171875,0.45355224609375,-0.60174560546875,1219,4422,425,4,19,190
73290747,-0.52313232421875,-0.37005615234375,0.46063232421875,-0.6142578125,1471,4114,478,-8,19,196
73300727,-0.51068115234375,-0.357177734375,0.4686279296875,-0.62615966796875,1768,3736,523,-20,20,200
73310705,-0.49847412109375,-0.34307861328125,0.477294921875,-0.63726806640625,2083,3331,575,-32,23,199
73320688,-0.48699951171875,-0.32806396484375,0.48626708984375,-0.64715576171875,2408,2900,607,-44,27,193
73330670,-0.47674560546875,-0.31231689453125,0.49517822265625,-0.65576171875,2706,2401,625,-54,32,182
73340651,-0.46759033203125,-0.2958984375,0.504150390625,-0.6630859375,2952,1732,598,-63,39,172
73350635,-0.45892333984375,-0.27838134765625,0.51336669921875,-0.669677734375,3110,833,527,-71,44,170
73360617,-0.44976806640625,-0.2593994140625,0.5230712890625,-0.6759033203125,3206,-234,454,-77,47,176
73370601,-0.4395751953125,-0.23883056640625,0.53326416015625,-0.68218994140625,3257,-1360,356,-81,50,186
73380585,-0.42840576171875,-0.217041015625,0.54364013671875,-0.68841552734375,3298,-2505,294,-82,52,194
73390567,-0.4161376953125,-0.194091796875,0.55389404296875,-0.694580078125,3320,-3759,236,-82,53,201
73400552,-0.40289306640625,-0.17041015625,0.5638427734375,-0.7005615234375,3322,-4973,222,-80,54,207
73410536,-0.38909912109375,-0.14642333984375,0.57318115234375,-0.7061767578125,3321,-6103,245,-78,54,206
73420518,-0.375244140625,-0.12274169921875,0.5816650390625,-0.71124267578125,3349,-7068,331,-74,54,201
73430500,-0.36212158203125,-0.099853515625,0.58917236328125,-0.7154541015625,3361,-7912,479,-71,53,190
73440482,-0.34991455078125,-0.078125,0.59576416015625,-0.71875,3373,-8745,581,-68,53,175
73450468,-0.3388671875,-0.0576171875,0.6015625,-0.72113037109375,3383,-9413,748,-65,53,160
73460447,-0.32916259765625,-0.03851318359375,0.60662841796875,-0.72265625,3330,-9971,904,-63,52,143
73470430,-0.32086181640625,-0.0208740234375,0.61102294921875,-0.723388671875,3299,-10405,1084,-60,52,126
73480418,-0.31402587890625,-0.00469970703125,0.61480712890625,-0.7235107421875,3269,-10644,1307,-58,51,111
73490402,-0.3084716796875,0.01019287109375,0.61810302734375,-0.7230224609375,3227,-10925,1456,-56,51,97
73500386,-0.3035888671875,0.0242919921875,0.62103271484375,-0.72222900390625,3224,-11026,1641,-54,51,91
73510361,-0.29913330078125,0.03790283203125,0.62353515625,-0.7213134765625,3127,-10963,1789,-53,51,88
73520345,-0.294921875,0.05120849609375,0.62591552734375,-0.72021484375,2957,-10699,2161,-52,51,85
73530327,-0.29119873046875,0.06396484375,0.62762451171875,-0.71917724609375,2820,-10540,2172,-52,50,81
73540310,-0.2879638671875,0.076171875,0.629638671875,-0.717529296875,2677,-10359,2157,-52,50,73
73550294,-0.28546142578125,0.0875244140625,0.63165283203125,-0.7154541015625,2537,-10106,2164,-52,50,63
73560273,-0.28399658203125,0.09808349609375,0.63360595703125,-0.71295166015625,2304,-9841,2224,-53,51,52
73570257,-0.283203125,0.1080322265625,0.6356201171875,-0.71002197265625,2019,-9761,2163,-54,51,44
73580236,-0.28204345703125,0.1181640625,0.6376953125,-0.70703125,1744,-9686,2124,-54,49,48
73590228,-0.27972412109375,0.1287841796875,0.6395263671875,-0.70440673828125,1431,-9510,2142,-54,46,60
73600212,-0.27606201171875,0.14013671875,0.6412353515625,-0.7021484375,1128,-9289,2144,-56,42,72
73610200,-0.271484375,0.1517333984375,0.64288330078125,-0.699951171875,872,-8994,2168,-57,39,76
73620184,-0.26702880859375,0.16278076171875,0.64459228515625,-0.6976318359375,659,-8660,2193,-58,37,70
73630168,-0.2637939453125,0.17242431640625,0.64666748046875,-0.69464111328125,457,-8342,2164,-59,36,52
73640148,-0.26214599609375,0.180419921875,0.649169921875,-0.69085693359375,165,-8187,2065,-59,35,30
73650118,-0.26177978515625,0.18701171875,0.65216064453125,-0.6864013671875,-118,-8323,1809,-59,34,14
73660100,-0.26129150390625,0.193115234375,0.65545654296875,-0.6817626953125,-429,-8726,1445,-57,29,14
73670083,-0.259033203125,0.1998291015625,0.6585693359375,-0.67767333984375,-759,-9243,1049,-55,23,30
73680066,-0.25421142578125,0.20770263671875,0.6611328125,-0.67462158203125,-1057,-9772,656,-52,15,54
73690051,-0.2471923828125,0.2166748046875,0.66314697265625,-0.6724853515625,-1281,-10131,344,-49,9,74
73700033,-0.2388916015625,0.22589111328125,0.66455078125,-0.6710205078125,-1420,-10381,151,-46,4,82
73710011,-0.2305908203125,0.23455810546875,0.6656494140625,-0.66986083984375,-1515,-10727,10,-43,1,80
73719993,-0.22247314453125,0.24249267578125,0.66668701171875,-0.66876220703125,-1606,-11295,-177,-40,-2,76
73729980,-0.214111328125,0.25006103515625,0.66754150390625,-0.6678466796875,-1725,-12051,-411,-36,-5,78
73739955,-0.205078125,0.257568359375,0.66796875,-0.66741943359375,-1872,-12911,-668,-32,-10,85
73749939,-0.19525146484375,0.26513671875,0.66790771484375,-0.66741943359375,-2029,-13768,-910,-28,-14,92
73759921,-0.18511962890625,0.27215576171875,0.66748046875,-0.66790771484375,-2181,-14462,-1110,-24,-19,91
73769903,-0.17559814453125,0.27777099609375,0.66705322265625,-0.66864013671875,-2318,-14972,-1271,-19,-24,78
73779887,-0.167724609375,0.2811279296875,0.6669921875,-0.6693115234375,-2421,-15346,-1364,-14,-29,54
73789872,-0.16229248046875,0.28131103515625,0.66766357421875,-0.66986083984375,-2452,-15622,-1414,-10,-33,20
73799853,-0.16009521484375,0.27783203125,0.6693115234375,-0.67022705078125,-2362,-15784,-1356,-5,-36,-20
73809835,-0.16131591796875,0.27069091796875,0.671875,-0.67034912109375,-2129,-15723,-1172,0,-38,-59
73819815,-0.16546630859375,0.2603759765625,0.6749267578125,-0.6702880859375,-1754,-15473,-866,5,-38,-90
73829797,-0.17169189453125,0.248046875,0.67803955078125,-0.67022705078125,-1293,-15124,-500,10,-38,-109
73839780,-0.17901611328125,0.23480224609375,0.68084716796875,-0.6702880859375,-774,-14715,-127,14,-36,-114
73849767,-0.1865234375,0.2216796875,0.68292236328125,-0.6705322265625,-263,-14233,214,18,-34,-110
73859751,-0.1937255859375,0.20928955078125,0.68438720703125,-0.67108154296875,226,-13732,502,21,-31,-102
73869737,-0.2005615234375,0.19757080078125,0.68511962890625,-0.67181396484375,689,-13260,758,24,-28,-94
73879713,-0.20709228515625,0.186767578125,0.685302734375,-0.67279052734375,1099,-12870,971,26,-25,-87
73889696,-0.21337890625,0.1767578125,0.68499755859375,-0.673828125,1442,-12563,1116,28,-21,-81
73899679,-0.21978759765625,0.1673583984375,0.684326171875,-0.67486572265625,1724,-12325,1193,30,-16,-78
73909661,-0.22625732421875,0.158447265625,0.68328857421875,-0.6759033203125,1937,-12177,1216,31,-12,-77
73919644,-0.23297119140625,0.14984130859375,0.68206787109375,-0.67681884765625,2082,-12085,1189,33,-9,-78
73929630,-0.2401123046875,0.14129638671875,0.68060302734375,-0.6776123046875,2164,-12055,1127,35,-6,-82
73939609,-0.2476806640625,0.132568359375,0.678955078125,-0.67828369140625,2192,-12115,1027,38,-4,-87
73949591,-0.255615234375,0.12371826171875,0.677001953125,-0.67901611328125,2222,-12224,936,41,-2,-90
73959576,-0.2635498046875,0.1148681640625,0.67462158203125,-0.67987060546875,2247,-12315,809,46,-1,-90
73969563,-0.27130126953125,0.106201171875,0.67181396484375,-0.68109130859375,2329,-12338,687,51,0,-86
73979545,-0.27862548828125,0.09796142578125,0.66839599609375,-0.68267822265625,2398,-12342,578,56,1,-80
73989525,-0.28564453125,0.0899658203125,0.6644287109375,-0.68475341796875,2474,-12264,504,61,1,-77
73999512,-0.292724609375,0.08184814453125,0.65997314453125,-0.68707275390625,2516,-12167,421,68,2,-79
74009494,-0.30035400390625,0.0731201171875,0.6549072265625,-0.6895751953125,2572,-12026,385,74,4,-86
74019476,-0.30865478515625,0.0638427734375,0.64935302734375,-0.692138671875,2651,-11865,372,79,5,-93
74029460,-0.31756591796875,0.0540771484375,0.64324951171875,-0.694580078125,2739,-11650,341,83,8,-98
74039443,-0.32684326171875,0.044189453125,0.63671875,-0.697021484375,2852,-11372,337,87,11,-100
74049430,-0.33624267578125,0.034423828125,0.62969970703125,-0.699462890625,2927,-11100,333,89,13,-99
74059412,-0.34564208984375,0.02490234375,0.62237548828125,-0.70184326171875,2983,-10741,343,91,16,-99
74069396,-0.355224609375,0.01544189453125,0.61468505859375,-0.7041015625,2972,-10362,367,91,18,-102
74079372,-0.36517333984375,0.0057373046875,0.6068115234375,-0.70599365234375,2917,-10018,380,91,19,-107
74089354,-0.37542724609375,-0.00408935546875,0.5987548828125,-0.70745849609375,2849,-9727,405,91,20,-111
74099338,-0.3857421875,-0.01397705078125,0.5906982421875,-0.7086181640625,2778,-9423,446,90,20,-113
74109320,-0.39599609375,-0.02392578125,0.58251953125,-0.70947265625,2667,-9147,490,89,19,-115
74119302,-0.40618896484375,-0.033935546875,0.574462890625,-0.70989990234375,2537,-8854,542,87,17,-118
74129287,-0.41632080078125,-0.04425048828125,0.56646728515625,-0.7098388671875,2435,-8564,612,85,15,-121
74139268,-0.42657470703125,-0.054931640625,0.5587158203125,-0.70916748046875,2328,-8308,708,82,11,-127
74149252,-0.43707275390625,-0.06622314453125,0.55108642578125,-0.707763671875,2238,-7998,795,80,8,-134
74159231,-0.44793701171875,-0.07830810546875,0.5435791015625,-0.70550537109375,2159,-7644,897,77,4,-143
74169226,-0.4593505859375,-0.09124755859375,0.53619384765625,-0.7022705078125,2082,-7285,1006,74,-1,-153
74179205,-0.47113037109375,-0.10498046875,0.52886962890625,-0.6981201171875,2040,-6873,1127,72,-4,-163
74189183,-0.4833984375,-0.1195068359375,0.521484375,-0.69293212890625,2009,-6412,1261,70,-9,-172
74199175,-0.49603271484375,-0.13482666015625,0.5140380859375,-0.686767578125,1989,-5925,1389,67,-12,-180
74209158,-0.5087890625,-0.15069580078125,0.506591796875,-0.67962646484375,1992,-5426,1502,65,-16,-185
74219134,-0.5213623046875,-0.1668701171875,0.49908447265625,-0.6717529296875,1997,-4953,1586,63,-20,-187
74229111,-0.53350830078125,-0.18310546875,0.49169921875,-0.6634521484375,2004,-4499,1635,61,-23,-186
74239095,-0.5450439453125,-0.1993408203125,0.484375,-0.6546630859375,2018,-4025,1673,59,-26,-184
74249077,-0.55633544921875,-0.215576171875,0.4769287109375,-0.64544677734375,2051,-3499,1727,59,-27,-183
74259058,-0.5673828125,-0.23199462890625,0.46929931640625,-0.63568115234375,2113,-2975,1776,57,-29,-184
74269045,-0.57818603515625,-0.24822998046875,0.46136474609375,-0.62548828125,2148,-2486,1794,56,-29,-184
74279023,-0.58868408203125,-0.26434326171875,0.4532470703125,-0.614990234375,2211,-1994,1788,56,-28,-181
74289006,-0.59869384765625,-0.280029296875,0.44488525390625,-0.6043701171875,2273,-1488,1776,56,-27,-177
74298990,-0.60809326171875,-0.295166015625,0.436279296875,-0.593994140625,2319,-1021,1747,56,-24,-169
74308978,-0.6165771484375,-0.3096923828125,0.4276123046875,-0.5841064453125,2339,-545,1688,56,-22,-158
74318955,-0.62408447265625,-0.32330322265625,0.41888427734375,-0.574951171875,2291,-73,1594,57,-19,-145
74328937,-0.6304931640625,-0.33612060546875,0.41033935546875,-0.5667724609375,2211,402,1456,58,-17,-129
74338921,-0.635498046875,-0.347900390625,0.402099609375,-0.55987548828125,2126,847,1308,58,-15,-110
74348905,-0.63916015625,-0.35858154296875,0.39434814453125,-0.55450439453125,2058,1286,1175,59,-12,-90
74358888,-0.64154052734375,-0.3682861328125,0.3870849609375,-0.55047607421875,2020,1736,1070,59,-9,-71
74368874,-0.64300537109375,-0.3770751953125,0.380126953125,-0.54766845703125,1983,2206,985,58,-6,-57
74378854,-0.64398193359375,-0.3851318359375,0.37322998046875,-0.545654296875,1975,2723,933,57,-2,-47
74388838,-0.6446533203125,-0.3924560546875,0.36639404296875,-0.5443115234375,1959,3217,902,55,2,-38
74398820,-0.64495849609375,-0.39892578125,0.35968017578125,-0.543701171875,1899,3688,893,53,6,-27
74408802,-0.64471435546875,-0.404296875,0.3533935546875,-0.544189453125,1827,4171,909,49,10,-12
74418789,-0.6436767578125,-0.408447265625,0.347900390625,-0.54583740234375,1775,4639,951,44,12,6
74428763,-0.64178466796875,-0.41119384765625,0.343505859375,-0.54876708984375,1726,5069,1003,37,14,26
74438756,-0.638916015625,-0.41253662109375,0.3404541015625,-0.55303955078125,1699,5447,1044,30,15,48
74448737,-0.635009765625,-0.41229248046875,0.3388671875,-0.55859375,1676,5728,1103,22,15,69
74458714,-0.630126953125,-0.41058349609375,0.3388671875,-0.5653076171875,1680,5884,1116,13,15,88
74468696,-0.62457275390625,-0.40753173828125,0.34027099609375,-0.5728759765625,1689,5968,1136,5,15,102
74478678,-0.6185302734375,-0.40325927734375,0.34283447265625,-0.580810546875,1722,5941,1144,-4,15,112
74488658,-0.61224365234375,-0.39794921875,0.34649658203125,-0.58892822265625,1770,5823,1139,-13,14,118
74498643,-0.60589599609375,-0.39166259765625,0.35107421875,-0.596923828125,1827,5646,1135,-22,15,122
74508630,-0.599609375,-0.3843994140625,0.35650634765625,-0.604736328125,1891,5384,1144,-31,15,125
74518608,-0.5933837890625,-0.3760986328125,0.36273193359375,-0.6123046875,2000,5098,1178,-41,15,127
74528590,-0.5872802734375,-0.366943359375,0.36968994140625,-0.61956787109375,2123,4771,1194,-49,16,130
74538574,-0.58099365234375,-0.356689453125,0.37744140625,-0.626708984375,2270,4403,1211,-57,17,135
74548556,-0.57440185546875,-0.34527587890625,0.385986328125,-0.634033203125,2439,3977,1234,-65,19,142
74558540,-0.56732177734375,-0.33270263671875,0.39520263671875,-0.641357421875,2614,3547,1246,-72,22,148
74568522,-0.56011962890625,-0.31903076171875,0.40484619140625,-0.6485595703125,2776,3083,1241,-78,25,151
74578505,-0.55279541015625,-0.3043212890625,0.41485595703125,-0.65557861328125,2923,2537,1239,-83,29,154
74588486,-0.5450439453125,-0.2884521484375,0.42498779296875,-0.66265869140625,3061,1870,1247,-87,33,159
74598471,-0.5364990234375,-0.271240234375,0.435546875,-0.67010498046875,3197,1086,1221,-89,38,169
74608456,-0.52642822265625,-0.25244140625,0.4462890625,-0.67822265625,3302,250,1240,-90,41,186
74618434,-0.5146484375,-0.23187255859375,0.45721435546875,-0.68731689453125,3355,-635,1267,-89,46,203
74628426,-0.50103759765625,-0.2095947265625,0.46807861328125,-0.69708251953125,3331,-1565,1290,-88,50,221
74638408,-0.4859619140625,-0.1861572265625,0.4786376953125,-0.70721435546875,3270,-2476,1340,-86,53,230
74648394,-0.47021484375,-0.16217041015625,0.48834228515625,-0.717041015625,3199,-3340,1397,-82,55,229
74658371,-0.45501708984375,-0.1385498046875,0.4969482421875,-0.725830078125,3106,-4094,1529,-78,58,216
74668353,-0.44140625,-0.115966796875,0.504150390625,-0.73321533203125,2977,-4780,1655,-74,61,193
74678338,-0.4296875,-0.09466552734375,0.51019287109375,-0.739013671875,2809,-5384,1805,-71,62,170
74688318,-0.4195556640625,-0.07470703125,0.51531982421875,-0.74359130859375,2594,-5878,1983,-68,63,150
74698300,-0.41046142578125,-0.0556640625,0.51971435546875,-0.74725341796875,2345,-6279,2154,-65,62,138
74708287,-0.4014892578125,-0.037109375,0.5238037109375,-0.75042724609375,2155,-6601,2369,-65,60,137
74718267,-0.39202880859375,-0.0185546875,0.527587890625,-0.75341796875,1996,-6933,2568,-65,58,141
74728250,-0.3819580078125,0.00030517578125,0.53125,-0.75628662109375,1847,-7247,2719,-66,59,145
74738237,-0.37158203125,0.01934814453125,0.5345458984375,-0.75885009765625,1647,-7578,2857,-66,60,146
74748220,-0.3609619140625,0.03857421875,0.53753662109375,-0.7611083984375,1343,-8052,2903,-65,60,147
74758204,-0.34954833984375,0.05810546875,0.54046630859375,-0.76312255859375,1000,-8529,2922,-65,58,153
74768183,-0.33709716796875,0.077880859375,0.54315185546875,-0.76507568359375,646,-8832,2932,-66,55,160
74778177,-0.32415771484375,0.0975341796875,0.5457763671875,-0.76654052734375,320,-9070,2880,-68,52,160
74788159,-0.3115234375,0.1163330078125,0.5484619140625,-0.7672119140625,93,-9179,2857,-70,51,151
74798133,-0.3004150390625,0.13385009765625,0.55126953125,-0.76678466796875,-213,-9352,2821,-73,50,131
74808110,-0.29119873046875,0.14996337890625,0.55450439453125,-0.7650146484375,-561,-9727,2675,-74,50,107
74818095,-0.283447265625,0.164794921875,0.5579833984375,-0.7623291015625,-846,-10062,2530,-73,50,92
74828076,-0.276611328125,0.1787109375,0.5615234375,-0.75909423828125,-1179,-10320,2356,-72,48,83
74838058,-0.27001953125,0.1920166015625,0.5650634765625,-0.755615234375,-1542,-10539,2137,-71,46,78
74848045,-0.26312255859375,0.20501708984375,0.56842041015625,-0.7520751953125,-1832,-10643,1929,-70,43,80
74858022,-0.25579833984375,0.2177734375,0.571533203125,-0.74871826171875,-2072,-10697,1752,-69,39,83
74868007,-0.24786376953125,0.23040771484375,0.5743408203125,-0.74542236328125,-2300,-10862,1565,-67,37,88
74877991,-0.239013671875,0.2432861328125,0.5767822265625,-0.7423095703125,-2501,-11079,1422,-66,34,97
74887977,-0.22943115234375,0.25628662109375,0.57867431640625,-0.739501953125,-2716,-11297,1257,-64,32,104
74897955,-0.21929931640625,0.269287109375,0.5802001953125,-0.73675537109375,-2942,-11527,1067,-61,30,108
74907937,-0.20904541015625,0.28192138671875,0.58123779296875,-0.734130859375,-3183,-11690,877,-57,28,107
74917920,-0.19915771484375,0.293701171875,0.58209228515625,-0.7315673828125,-3396,-11780,711,-53,25,101
74927901,-0.1900634765625,0.30438232421875,0.5828857421875,-0.72900390625,-3560,-11833,573,-49,22,91
74937886,-0.181884765625,0.31378173828125,0.5836181640625,-0.72650146484375,-3677,-11875,525,-47,19,81
74947872,-0.17437744140625,0.32220458984375,0.5843505859375,-0.72412109375,-3781,-11912,495,-43,16,75
74957851,-0.16717529296875,0.329833984375,0.5849609375,-0.72186279296875,-3885,-11972,464,-40,14,70
74967833,-0.1602783203125,0.33685302734375,0.58538818359375,-0.7198486328125,-3967,-12007,446,-37,11,67
74977817,-0.15374755859375,0.3431396484375,0.5858154296875,-0.71795654296875,-4017,-12006,403,-35,8,63
74987800,-0.1475830078125,0.3487548828125,0.58612060546875,-0.71630859375,-4072,-11950,388,-32,6,57
74997783,-0.14202880859375,0.35345458984375,0.58648681640625,-0.71478271484375,-4113,-11836,379,-29,3,50
75007760,-0.1370849609375,0.3572998046875,0.5869140625,-0.7135009765625,-4122,-11691,353,-26,0,42
75017750,-0.13275146484375,0.3602294921875,0.5875244140625,-0.71234130859375,-4102,-11497,343,-24,-2,34
75027730,-0.12896728515625,0.3623046875,0.58831787109375,-0.7113037109375,-4067,-11262,336,-22,-5,27
75037708,-0.12567138671875,0.36370849609375,0.5892333984375,-0.71044921875,-4035,-11010,318,-20,-8,21
75047690,-0.1226806640625,0.364501953125,0.5902099609375,-0.709716796875,-3999,-10766,286,-18,-10,17
75057672,-0.119873046875,0.3648681640625,0.5911865234375,-0.70916748046875,-3948,-10488,245,-16,-12,14
75067656,-0.1170654296875,0.36492919921875,0.5921630859375,-0.7088623046875,-3871,-10183,208,-15,-15,13
75077637,-0.11431884765625,0.36468505859375,0.59295654296875,-0.708740234375,-3761,-9850,183,-13,-17,13
75087621,-0.11138916015625,0.3641357421875,0.59368896484375,-0.7088623046875,-3674,-9550,172,-11,-19,12
75097605,-0.10845947265625,0.36346435546875,0.5943603515625,-0.7091064453125,-3563,-9250,188,-11,-21,12
75107587,-0.105712890625,0.36248779296875,0.5950927734375,-0.70947265625,-3416,-8956,248,-10,-21,10
75117570,-0.10321044921875,0.36114501953125,0.5958251953125,-0.7098388671875,-3254,-8688,377,-10,-22,7
75127553,-0.10113525390625,0.35955810546875,0.59661865234375,-0.7103271484375,-3082,-8435,522,-10,-21,4
75137536,-0.09930419921875,0.35784912109375,0.597412109375,-0.71075439453125,-2944,-8201,673,-10,-20,2
75147515,-0.09759521484375,0.3560791015625,0.5982666015625,-0.711181640625,-2850,-7996,832,-10,-19,1
75157496,-0.095947265625,0.3544921875,0.59906005859375,-0.71148681640625,-2811,-7813,996,-11,-18,1
75167482,-0.0941162109375,0.35302734375,0.59991455078125,-0.7117919921875,-2782,-7645,1146,-13,-17,2
75177465,-0.0921630859375,0.3516845703125,0.600830078125,-0.7119140625,-2764,-7516,1312,-15,-16,3
75187447,-0.09014892578125,0.3504638671875,0.601806640625,-0.7119140625,-2765,-7412,1509,-18,-16,4
75197427,-0.0880126953125,0.349365234375,0.60296630859375,-0.7117919921875,-2794,-7367,1672,-20,-15,4
75207417,-0.08575439453125,0.348388671875,0.60418701171875,-0.71148681640625,-2850,-7404,1807,-22,-14,5
75217401,-0.0833740234375,0.34759521484375,0.60546875,-0.7110595703125,-2935,-7503,1892,-23,-14,7
75227383,-0.080810546875,0.3470458984375,0.60675048828125,-0.7105712890625,-3027,-7653,1898,-24,-13,9
75237359,-0.07806396484375,0.3466796875,0.60797119140625,-0.7099609375,-3136,-7842,1830,-24,-13,11
75247344,-0.0751953125,0.3465576171875,0.60906982421875,-0.70941162109375,-3245,-8044,1708,-22,-12,13
75257325,-0.07232666015625,0.3465576171875,0.6099853515625,-0.70892333984375,-3343,-8232,1525,-19,-12,15
75267309,-0.0694580078125,0.3466796875,0.61065673828125,-0.70855712890625,-3421,-8398,1302,-16,-12,16
75277290,-0.06658935546875,0.34686279296875,0.611083984375,-0.7083740234375,-3495,-8529,1084,-13,-13,17
75287274,-0.063720703125,0.34716796875,0.6112060546875,-0.7083740234375,-3534,-8627,858,-9,-13,18
75297257,-0.06097412109375,0.347412109375,0.611083984375,-0.7086181640625,-3549,-8655,674,-6,-13,19
75307236,-0.0584716796875,0.34759521484375,0.6107177734375,-0.7091064453125,-3576,-8655,516,-2,-13,17
75317231,-0.0562744140625,0.34759521484375,0.61016845703125,-0.709716796875,-3596,-8586,374,0,-13,14
75327211,-0.0545654296875,0.3472900390625,0.609619140625,-0.71044921875,-3585,-8488,268,3,-13,10
75337190,-0.05328369140625,0.34661865234375,0.60906982421875,-0.71136474609375,-3567,-8359,183,5,-13,5
75347182,-0.052490234375,0.345703125,0.6085205078125,-0.71234130859375,-3517,-8218,120,7,-13,2
75357168,-0.052001953125,0.3446044921875,0.60797119140625,-0.71337890625,-3446,-8048,86,8,-12,0
75367151,-0.05169677734375,0.343505859375,0.6072998046875,-0.7144775390625,-3384,-7890,46,9,-12,0
75377115,-0.05126953125,0.34259033203125,0.6065673828125,-0.71563720703125,-3322,-7747,19,10,-11,2
75387100,-0.05059814453125,0.34197998046875,0.6055908203125,-0.716796875,-3264,-7603,11,10,-11,6
75397083,-0.0496826171875,0.3416748046875,0.60443115234375,-0.7178955078125,-3214,-7465,2,10,-10,9
75407065,-0.04864501953125,0.3416748046875,0.60321044921875,-0.71905517578125,-3162,-7334,30,10,-8,11
75417047,-0.0474853515625,0.3419189453125,0.6019287109375,-0.7200927734375,-3137,-7201,69,9,-7,12
75427032,-0.04638671875,0.34228515625,0.60064697265625,-0.7210693359375,-3131,-7089,95,9,-6,13
75437014,-0.04522705078125,0.34283447265625,0.599365234375,-0.721923828125,-3116,-6997,120,8,-5,14
75446996,-0.0440673828125,0.34368896484375,0.59814453125,-0.72259521484375,-3123,-6919,138,7,-3,15
75456984,-0.042724609375,0.34478759765625,0.59686279296875,-0.72320556640625,-3152,-6866,140,6,-2,18
75466967,-0.04119873046875,0.34619140625,0.5955810546875,-0.72369384765625,-3189,-6832,134,5,-1,21
75476947,-0.03955078125,0.347900390625,0.59423828125,-0.72406005859375,-3258,-6785,122,5,0,22
75486929,-0.0377197265625,0.3497314453125,0.5928955078125,-0.724365234375,-3335,-6769,119,4,1,23
75496913,-0.03582763671875,0.3516845703125,0.59161376953125,-0.72454833984375,-3436,-6765,93,4,1,24
75506891,-0.03399658203125,0.35369873046875,0.59033203125,-0.7247314453125,-3529,-6742,82,3,2,23
75516876,-0.03216552734375,0.35565185546875,0.58917236328125,-0.724853515625,-3643,-6725,77,2,2,22
75526859,-0.0302734375,0.3575439453125,0.5880126953125,-0.72491455078125,-3750,-6712,54,2,1,22
75536842,-0.0283203125,0.359375,0.5869140625,-0.7249755859375,-3852,-6714,22,1,0,22
75546824,-0.0262451171875,0.36126708984375,0.58587646484375,-0.7249755859375,-3967,-6719,-10,1,0,22
75556810,-0.0240478515625,0.36309814453125,0.58489990234375,-0.72491455078125,-4069,-6725,-37,0,-1,22
75566788,-0.02178955078125,0.36474609375,0.58404541015625,-0.72479248046875,-4159,-6744,-57,-1,-2,22
75576766,-0.01953125,0.36627197265625,0.58331298828125,-0.7247314453125,-4229,-6748,-81,-2,-3,21
75586756,-0.017333984375,0.36767578125,0.58270263671875,-0.72454833984375,-4294,-6763,-106,-2,-4,20
75596739,-0.01513671875,0.368896484375,0.5821533203125,-0.72442626953125,-4337,-6772,-137,-3,-4,18
75606717,-0.0130615234375,0.36993408203125,0.58184814453125,-0.72418212890625,-4365,-6780,-148,-4,-5,17
75616701,-0.0111083984375,0.37078857421875,0.5816650390625,-0.72393798828125,-4386,-6796,-163,-5,-5,14
75626683,-0.00933837890625,0.37139892578125,0.5816650390625,-0.7236328125,-4390,-6774,-165,-5,-6,11
75636666,-0.0078125,0.37176513671875,0.581787109375,-0.72332763671875,-4374,-6745,-160,-6,-6,8
75646648,-0.00665283203125,0.371826171875,0.5821533203125,-0.7230224609375,-4336,-6709,-143,-6,-6,4
75656632,-0.0057373046875,0.3717041015625,0.58270263671875,-0.72265625,-4297,-6672,-118,-7,-6,2
75666613,-0.0050048828125,0.3714599609375,0.583251953125,-0.72235107421875,-4258,-6640,-90,-7,-5,1
75676592,-0.0042724609375,0.3712158203125,0.58392333984375,-0.721923828125,-4215,-6615,-55,-7,-5,1
