subject,Ian Lake
arm,right
label,3
hz,100.17147751287176
time,5.480602

timestamp_us,q0,q1,q2,q3,ax,ay,az,gx,gy,gz
144518958,0.70440673828125,-0.24298095703125,-0.65838623046875,-0.1064453125,7842,-1930,119,-2,-1,-2
144528939,0.70428466796875,-0.2430419921875,-0.658447265625,-0.10650634765625,7876,-1917,101,-1,-2,-2
144538923,0.70416259765625,-0.24310302734375,-0.6585693359375,-0.10650634765625,7916,-1906,97,-1,-2,-1
144548910,0.70404052734375,-0.24310302734375,-0.65869140625,-0.1064453125,7941,-1898,83,0,-2,-1
144558891,0.70391845703125,-0.2430419921875,-0.65887451171875,-0.1064453125,7959,-1885,65,0,-2,-2
144568872,0.70379638671875,-0.242919921875,-0.65899658203125,-0.1064453125,7974,-1871,55,0,-2,-3
144578856,0.7037353515625,-0.24273681640625,-0.6591796875,-0.1065673828125,7978,-1856,38,1,-1,-3
144588838,0.70361328125,-0.24249267578125,-0.65936279296875,-0.10662841796875,7991,-1833,30,1,-1,-3
144598822,0.70355224609375,-0.2423095703125,-0.6595458984375,-0.10662841796875,7988,-1827,-5,1,-1,-2
144608804,0.70343017578125,-0.2421875,-0.65966796875,-0.1065673828125,7992,-1815,-27,1,-1,-2
144618794,0.703369140625,-0.24212646484375,-0.6597900390625,-0.1064453125,7996,-1805,-43,1,-1,0
144628768,0.70330810546875,-0.24212646484375,-0.659912109375,-0.10626220703125,8011,-1783,-48,1,-1,0
144638760,0.7032470703125,-0.2420654296875,-0.65997314453125,-0.10601806640625,8023,-1775,-46,1,-1,0
144648742,0.7032470703125,-0.24200439453125,-0.6600341796875,-0.1058349609375,8025,-1770,-47,1,-1,0
144658733,0.7032470703125,-0.24188232421875,-0.66015625,-0.10565185546875,8014,-1761,-45,2,-1,0
144668703,0.7032470703125,-0.24176025390625,-0.66021728515625,-0.10540771484375,7993,-1759,-51,1,-1,-1
144678686,0.7032470703125,-0.24163818359375,-0.66033935546875,-0.105224609375,7952,-1757,-48,2,-1,-1
144688673,0.7032470703125,-0.24151611328125,-0.660400390625,-0.10498046875,7928,-1743,-33,2,-1,0
144698651,0.7032470703125,-0.24151611328125,-0.66046142578125,-0.104736328125,7907,-1740,-6,1,-1,0
144708634,0.7032470703125,-0.241455078125,-0.66046142578125,-0.10443115234375,7878,-1712,18,1,-1,1
144718618,0.7032470703125,-0.24151611328125,-0.6605224609375,-0.10418701171875,7850,-1703,36,1,-2,1
144728601,0.7032470703125,-0.24151611328125,-0.66058349609375,-0.10394287109375,7821,-1694,56,1,-1,0
144738587,0.70318603515625,-0.241455078125,-0.66064453125,-0.103759765625,7801,-1686,65,0,-2,-1
144748563,0.70306396484375,-0.24127197265625,-0.66082763671875,-0.10382080078125,7782,-1672,72,0,-2,-3
144758549,0.70294189453125,-0.240966796875,-0.6610107421875,-0.10400390625,7782,-1668,87,0,-2,-5
144768527,0.70281982421875,-0.24053955078125,-0.6612548828125,-0.10443115234375,7787,-1653,104,0,-2,-6
144778510,0.70269775390625,-0.2398681640625,-0.66156005859375,-0.10498046875,7786,-1638,118,0,-2,-8
144788495,0.7025146484375,-0.23919677734375,-0.66192626953125,-0.10565185546875,7773,-1627,140,0,-2,-9
144798477,0.70233154296875,-0.23846435546875,-0.66229248046875,-0.10638427734375,7785,-1600,151,0,-2,-10
144808460,0.70208740234375,-0.23773193359375,-0.66265869140625,-0.107177734375,7823,-1574,141,-1,-2,-10
144818443,0.7017822265625,-0.23699951171875,-0.6630859375,-0.1080322265625,7898,-1551,132,-1,-3,-10
144828429,0.70147705078125,-0.236328125,-0.66351318359375,-0.10882568359375,7979,-1542,89,-1,-2,-10
144838411,0.70111083984375,-0.2357177734375,-0.6639404296875,-0.10968017578125,8089,-1561,61,-2,-3,-10
144848395,0.70074462890625,-0.2352294921875,-0.6644287109375,-0.11053466796875,8232,-1607,9,-2,-2,-10
144858372,0.70037841796875,-0.23480224609375,-0.664794921875,-0.111328125,8420,-1671,-62,-3,-2,-9
144868355,0.7000732421875,-0.23455810546875,-0.66510009765625,-0.112060546875,8623,-1752,-113,-3,-1,-7
144878345,0.69989013671875,-0.234619140625,-0.66522216796875,-0.11248779296875,8853,-1866,-167,-3,0,-4
144888332,0.6998291015625,-0.23504638671875,-0.6650390625,-0.11260986328125,9097,-2000,-211,-3,2,0
144898307,0.7000732421875,-0.23583984375,-0.66461181640625,-0.1123046875,9381,-2169,-253,-3,4,5
144908291,0.70050048828125,-0.237060546875,-0.663818359375,-0.1116943359375,9674,-2381,-301,-4,6,9
144918273,0.701171875,-0.2386474609375,-0.66265869140625,-0.11065673828125,10016,-2692,-320,-4,9,13
144928254,0.7021484375,-0.2406005859375,-0.6611328125,-0.10943603515625,10495,-3063,-340,-4,12,15
144938235,0.703369140625,-0.2427978515625,-0.65924072265625,-0.10821533203125,11045,-3525,-341,-6,16,15
144948226,0.7049560546875,-0.24505615234375,-0.6568603515625,-0.10723876953125,11530,-3951,-340,-7,21,15
144958211,0.7069091796875,-0.24798583984375,-0.6539306640625,-0.10601806640625,11859,-4264,-376,-10,26,23
144968200,0.709228515625,-0.25225830078125,-0.65008544921875,-0.1038818359375,12067,-4423,-451,-12,30,41
144978183,0.71185302734375,-0.25848388671875,-0.64532470703125,-0.10003662109375,12108,-4466,-522,-14,33,68
144988168,0.7147216796875,-0.26727294921875,-0.63946533203125,-0.0938720703125,11956,-4514,-520,-18,33,99
144998148,0.71783447265625,-0.27862548828125,-0.63226318359375,-0.0853271484375,11607,-4617,-420,-21,33,129
145008125,0.7208251953125,-0.29241943359375,-0.6240234375,-0.07440185546875,11081,-4817,-276,-24,31,155
145018107,0.72344970703125,-0.30810546875,-0.61474609375,-0.06170654296875,10428,-5087,-101,-27,27,175
145028091,0.72540283203125,-0.3250732421875,-0.6048583984375,-0.04766845703125,9788,-5405,83,-31,23,188
145038073,0.7265625,-0.34283447265625,-0.5946044921875,-0.032958984375,9205,-5796,264,-35,18,194
145048055,0.7266845703125,-0.3609619140625,-0.584228515625,-0.01806640625,8658,-6211,424,-39,12,195
145058038,0.725830078125,-0.37908935546875,-0.573974609375,-0.003173828125,8153,-6637,538,-42,7,194
145068020,0.723876953125,-0.39739990234375,-0.56390380859375,0.01177978515625,7705,-7053,604,-47,1,195
145078004,0.72088623046875,-0.41571044921875,-0.55389404296875,0.02691650390625,7300,-7484,624,-50,-6,196
145087989,0.71673583984375,-0.434326171875,-0.5439453125,0.04248046875,6945,-7893,605,-52,-12,201
145097974,0.71142578125,-0.45330810546875,-0.5338134765625,0.05877685546875,6633,-8313,523,-55,-18,210
145107952,0.70501708984375,-0.4727783203125,-0.52313232421875,0.07611083984375,6365,-8716,393,-57,-23,222
145117934,0.69732666015625,-0.49273681640625,-0.5118408203125,0.09466552734375,6124,-9117,255,-59,-28,235
145127915,0.68853759765625,-0.51300048828125,-0.49969482421875,0.11431884765625,5917,-9528,109,-60,-33,248
145137898,0.6785888671875,-0.5333251953125,-0.48675537109375,0.13494873046875,5732,-9915,-72,-61,-36,260
145147881,0.66754150390625,-0.55340576171875,-0.47296142578125,0.15618896484375,5542,-10309,-256,-60,-39,268
145157864,0.6556396484375,-0.57293701171875,-0.45855712890625,0.17779541015625,5395,-10678,-467,-59,-41,272
145167847,0.64300537109375,-0.59161376953125,-0.44366455078125,0.19927978515625,5258,-11041,-722,-57,-42,275
145177830,0.62969970703125,-0.60931396484375,-0.42852783203125,0.220458984375,5135,-11402,-979,-54,-43,273
145187813,0.6160888671875,-0.625732421875,-0.41326904296875,0.24102783203125,4996,-11696,-1231,-52,-43,269
145197797,0.60223388671875,-0.6409912109375,-0.39788818359375,0.26104736328125,4859,-11952,-1482,-48,-43,266
145207779,0.5882568359375,-0.65509033203125,-0.3822021484375,0.2806396484375,4690,-12161,-1704,-43,-43,265
145217761,0.57421875,-0.6680908203125,-0.365966796875,0.300048828125,4450,-12318,-1904,-38,-42,267
145227754,0.55999755859375,-0.68011474609375,-0.3489990234375,0.31939697265625,4157,-12403,-2095,-32,-42,269
145237737,0.545654296875,-0.691162109375,-0.33123779296875,0.3388671875,3826,-12421,-2213,-26,-42,273
145247715,0.53118896484375,-0.70111083984375,-0.31280517578125,0.35845947265625,3424,-12335,-2286,-20,-44,276
145257698,0.51641845703125,-0.7099609375,-0.2935791015625,0.37823486328125,2974,-12150,-2316,-14,-46,279
145267680,0.50140380859375,-0.7176513671875,-0.27392578125,0.398193359375,2496,-11893,-2312,-10,-50,280
145277664,0.48626708984375,-0.72406005859375,-0.25421142578125,0.41796875,2035,-11548,-2302,-5,-53,277
145287644,0.47125244140625,-0.72906494140625,-0.23492431640625,0.437255859375,1603,-11146,-2285,-1,-57,268
145297632,0.4564208984375,-0.73272705078125,-0.21624755859375,0.4560546875,1190,-10687,-2245,2,-61,259
145307611,0.44183349609375,-0.73516845703125,-0.19842529296875,0.47430419921875,873,-10187,-2196,4,-65,250
145317595,0.427490234375,-0.7364501953125,-0.1812744140625,0.491943359375,600,-9683,-2155,5,-69,241
145327578,0.41326904296875,-0.73675537109375,-0.164794921875,0.5091552734375,411,-9171,-2102,7,-72,234
145337559,0.3990478515625,-0.73614501953125,-0.14862060546875,0.52606201171875,259,-8661,-2036,8,-75,230
145347543,0.38482666015625,-0.73480224609375,-0.13275146484375,0.54254150390625,149,-8160,-1994,8,-76,226
145357527,0.3704833984375,-0.73284912109375,-0.1171875,0.5584716796875,81,-7651,-1927,8,-77,222
145367509,0.35601806640625,-0.7303466796875,-0.10186767578125,0.573974609375,53,-7163,-1832,7,-78,219
145377493,0.34173583984375,-0.72723388671875,-0.0869140625,0.5888671875,30,-6686,-1722,7,-77,213
145387474,0.32763671875,-0.7237548828125,-0.07257080078125,0.60296630859375,45,-6228,-1616,6,-75,204
145397458,0.31402587890625,-0.719970703125,-0.0589599609375,0.6160888671875,71,-5745,-1506,6,-72,194
145407443,0.3009033203125,-0.7159423828125,-0.0460205078125,0.6282958984375,82,-5254,-1381,5,-69,183
145417429,0.28826904296875,-0.71173095703125,-0.0338134765625,0.6396484375,64,-4760,-1238,4,-66,174
145427412,0.27606201171875,-0.70751953125,-0.02215576171875,0.650146484375,25,-4279,-1093,3,-62,164
145437395,0.264404296875,-0.70330810546875,-0.01129150390625,0.6597900390625,-43,-3812,-926,2,-57,153
145447373,0.25341796875,-0.69921875,-0.001220703125,0.66851806640625,-94,-3363,-774,1,-53,141
145457355,0.2432861328125,-0.69525146484375,0.0078125,0.67626953125,-111,-2952,-608,0,-47,126
145467345,0.23406982421875,-0.691650390625,0.01580810546875,0.68304443359375,-149,-2555,-461,-2,-42,113
145477319,0.2255859375,-0.6883544921875,0.02301025390625,0.68896484375,-199,-2155,-307,-3,-36,101
145487303,0.21759033203125,-0.6854248046875,0.02978515625,0.6942138671875,-305,-1762,-105,-3,-30,94
145497287,0.20977783203125,-0.682861328125,0.03631591796875,0.69879150390625,-452,-1371,93,-4,-24,90
145507269,0.2020263671875,-0.6806640625,0.04278564453125,0.702880859375,-658,-963,311,-5,-19,87
145517251,0.1942138671875,-0.67877197265625,0.04931640625,0.70648193359375,-892,-557,513,-6,-13,85
145527231,0.1864013671875,-0.67718505859375,0.055908203125,0.7095947265625,-1150,-132,735,-6,-8,82
145537223,0.178466796875,-0.67578125,0.06268310546875,0.71240234375,-1491,321,966,-6,-4,82
145547207,0.17034912109375,-0.674560546875,0.06964111328125,0.71490478515625,-1926,786,1232,-6,0,82
145557186,0.162109375,-0.67333984375,0.0767822265625,0.71722412109375,-2430,1245,1528,-6,3,81
145567177,0.15399169921875,-0.67218017578125,0.083984375,0.71929931640625,-2988,1715,1819,-4,4,77
145577160,0.14617919921875,-0.6708984375,0.091064453125,0.72125244140625,-3568,2182,2096,-3,5,73
145587136,0.1387939453125,-0.66949462890625,0.0980224609375,0.72308349609375,-4183,2623,2371,-1,5,68
145597117,0.13201904296875,-0.66796875,0.10479736328125,0.724853515625,-4801,3027,2597,2,4,62
145607098,0.12591552734375,-0.66619873046875,0.11138916015625,0.7265625,-5376,3394,2761,5,2,57
145617084,0.12066650390625,-0.6641845703125,0.1177978515625,0.728271484375,-5875,3705,2898,9,-1,50
145627060,0.11639404296875,-0.66192626953125,0.1239013671875,0.73004150390625,-6276,3963,2977,13,-4,42
145637045,0.11346435546875,-0.65948486328125,0.12939453125,0.73175048828125,-6595,4143,3024,17,-7,30
145647027,0.1123046875,-0.656982421875,0.13397216796875,0.73333740234375,-6846,4253,3033,21,-10,14
145657012,0.11322021484375,-0.654541015625,0.1373291015625,0.7347412109375,-7046,4284,3033,25,-13,-5
145666990,0.116455078125,-0.65228271484375,0.13922119140625,0.73590087890625,-7177,4242,2957,29,-14,-27
145676978,0.12213134765625,-0.65032958984375,0.13958740234375,0.73663330078125,-7228,4154,2847,33,-16,-50
145686955,0.13018798828125,-0.64874267578125,0.13836669921875,0.73687744140625,-7127,3999,2706,36,-16,-73
145696939,0.140625,-0.6475830078125,0.135498046875,0.73651123046875,-6914,3800,2521,39,-15,-97
145706921,0.15338134765625,-0.64691162109375,0.1309814453125,0.73541259765625,-6651,3557,2324,41,-14,-120
145716903,0.168212890625,-0.64666748046875,0.12493896484375,0.73345947265625,-6371,3294,2141,43,-11,-140
145726888,0.1846923828125,-0.646728515625,0.11761474609375,0.7305908203125,-6052,3023,1943,44,-8,-157
145736872,0.20257568359375,-0.64715576171875,0.1092529296875,0.726806640625,-5735,2711,1753,46,-4,-171
145746852,0.22137451171875,-0.64776611328125,0.10003662109375,0.7220458984375,-5393,2362,1548,47,-1,-181
145756838,0.2408447265625,-0.64849853515625,0.09014892578125,0.7164306640625,-5083,1996,1397,47,2,-188
145766822,0.2606201171875,-0.64923095703125,0.07989501953125,0.71002197265625,-4824,1629,1241,47,4,-192
145776804,0.280517578125,-0.6497802734375,0.0694580078125,0.7030029296875,-4631,1249,1134,47,6,-194
145786787,0.30035400390625,-0.650146484375,0.0589599609375,0.6954345703125,-4478,885,1044,47,7,-193
145796768,0.320068359375,-0.650146484375,0.04840087890625,0.6873779296875,-4375,513,980,47,8,-193
145806760,0.3397216796875,-0.6497802734375,0.03765869140625,0.678955078125,-4296,139,946,48,7,-195
145816742,0.3594970703125,-0.64886474609375,0.026611328125,0.6700439453125,-4235,-241,928,48,5,-198
145826719,0.37945556640625,-0.64752197265625,0.01513671875,0.66070556640625,-4192,-622,917,49,4,-202
145836702,0.3995361328125,-0.64544677734375,0.0032958984375,0.65093994140625,-4147,-994,927,49,1,-205
145846685,0.419677734375,-0.64276123046875,-0.00885009765625,0.64080810546875,-4081,-1355,929,50,-3,-207
145856665,0.439697265625,-0.6392822265625,-0.0213623046875,0.6304931640625,-3978,-1727,941,51,-6,-209
145866650,0.4598388671875,-0.63507080078125,-0.03424072265625,0.61968994140625,-3797,-2117,949,52,-9,-212
145876633,0.48016357421875,-0.63006591796875,-0.04779052734375,0.6083984375,-3567,-2519,968,52,-13,-217
145886615,0.50054931640625,-0.624267578125,-0.06195068359375,0.5965576171875,-3298,-2912,997,53,-16,-222
145896598,0.5208740234375,-0.61761474609375,-0.07647705078125,0.584228515625,-2971,-3304,1042,54,-19,-225
145906584,0.541015625,-0.61016845703125,-0.09130859375,0.57147216796875,-2589,-3716,1104,55,-21,-226
145916566,0.56097412109375,-0.60198974609375,-0.1063232421875,0.5582275390625,-2139,-4144,1181,56,-23,-227
145926550,0.58074951171875,-0.593017578125,-0.12158203125,0.54425048828125,-1638,-4568,1275,57,-23,-230
145936537,0.6005859375,-0.5833740234375,-0.13720703125,0.52923583984375,-1082,-5024,1399,58,-22,-237
145946515,0.62060546875,-0.572998046875,-0.1534423828125,0.5128173828125,-488,-5486,1552,59,-19,-246
145956499,0.640625,-0.56195068359375,-0.16998291015625,0.494873046875,78,-5909,1753,59,-16,-255
145966480,0.66021728515625,-0.55029296875,-0.18634033203125,0.47589111328125,603,-6255,1947,59,-13,-256
145976462,0.67889404296875,-0.53839111328125,-0.20196533203125,0.45654296875,1005,-6533,2143,58,-10,-251
145986446,0.69622802734375,-0.5263671875,-0.21624755859375,0.4375,1311,-6688,2340,57,-7,-237
145996426,0.7119140625,-0.51458740234375,-0.2291259765625,0.41937255859375,1530,-6784,2517,55,-5,-221
146006419,0.72601318359375,-0.5030517578125,-0.24072265625,0.40228271484375,1613,-6840,2711,52,-5,-206
146016401,0.73870849609375,-0.49188232421875,-0.25128173828125,0.38623046875,1665,-6874,2920,49,-6,-194
146026384,0.75030517578125,-0.48089599609375,-0.2613525390625,0.3707275390625,1702,-6912,3118,46,-8,-186
146036362,0.760986328125,-0.469970703125,-0.27117919921875,0.3555908203125,1666,-6936,3330,43,-10,-183
146046346,0.77099609375,-0.45892333984375,-0.28118896484375,0.34033203125,1702,-6995,3539,40,-14,-185
146056330,0.78033447265625,-0.44775390625,-0.2916259765625,0.3248291015625,1713,-7086,3728,37,-19,-189
146066313,0.7890625,-0.43621826171875,-0.3026123046875,0.30908203125,1694,-7153,3901,35,-24,-192
146076297,0.79693603515625,-0.42449951171875,-0.3138427734375,0.2935791015625,1744,-7165,4014,34,-31,-190
146086278,0.8038330078125,-0.41265869140625,-0.32537841796875,0.2786865234375,1840,-7133,4091,32,-37,-184
146096262,0.80975341796875,-0.40081787109375,-0.337158203125,0.2645263671875,2053,-7107,4129,31,-44,-178
146106250,0.81463623046875,-0.3890380859375,-0.34918212890625,0.2510986328125,2347,-7065,4133,30,-51,-172
146116235,0.8187255859375,-0.377197265625,-0.3614501953125,0.23828125,2716,-7024,4090,29,-56,-165
146126218,0.8218994140625,-0.365478515625,-0.37371826171875,0.22637939453125,3099,-6964,3999,29,-60,-157
146136200,0.82427978515625,-0.35400390625,-0.3858642578125,0.21533203125,3557,-6886,3895,29,-63,-148
146146188,0.82598876953125,-0.342529296875,-0.39801025390625,0.204833984375,4014,-6796,3792,28,-66,-144
146156172,0.82720947265625,-0.33099365234375,-0.410400390625,0.19427490234375,4516,-6636,3676,27,-68,-145
146166155,0.82794189453125,-0.31915283203125,-0.423095703125,0.1832275390625,5054,-6455,3532,25,-69,-149
146176132,0.82830810546875,-0.30718994140625,-0.4359130859375,0.17156982421875,5520,-6278,3424,23,-70,-152
146186108,0.8282470703125,-0.2952880859375,-0.44873046875,0.15966796875,6068,-6118,3308,21,-70,-152
146196090,0.82763671875,-0.28350830078125,-0.4613037109375,0.147705078125,6662,-6021,3204,20,-69,-149
146206074,0.82659912109375,-0.2720947265625,-0.47344970703125,0.13623046875,7173,-5925,3102,18,-67,-142
146216056,0.8251953125,-0.26123046875,-0.48480224609375,0.12548828125,7645,-5823,3024,18,-65,-133
146226039,0.82354736328125,-0.25091552734375,-0.4954833984375,0.115478515625,8060,-5697,2982,17,-62,-125
146236021,0.82171630859375,-0.24102783203125,-0.50543212890625,0.10601806640625,8463,-5536,2945,16,-59,-119
146246005,0.81976318359375,-0.2314453125,-0.514892578125,0.09661865234375,8899,-5378,2902,15,-55,-117
146255989,0.81781005859375,-0.221923828125,-0.5238037109375,0.0869140625,9314,-5285,2914,13,-51,-119
146265977,0.8160400390625,-0.21240234375,-0.5321044921875,0.07666015625,9679,-5230,2933,12,-46,-124
146275953,0.81439208984375,-0.20269775390625,-0.5396728515625,0.06585693359375,9935,-5164,2947,11,-40,-126
146285937,0.81298828125,-0.19317626953125,-0.5465087890625,0.0550537109375,10039,-5076,2953,11,-34,-126
146295920,0.811767578125,-0.18408203125,-0.55242919921875,0.04461669921875,9993,-4967,2968,10,-29,-119
146305901,0.8106689453125,-0.17578125,-0.55743408203125,0.03509521484375,9823,-4853,3006,10,-25,-109
146315883,0.80963134765625,-0.16827392578125,-0.5616455078125,0.0264892578125,9661,-4756,3050,9,-22,-100
146325872,0.80865478515625,-0.16143798828125,-0.56536865234375,0.0186767578125,9517,-4694,3094,8,-20,-93
146335849,0.80767822265625,-0.15509033203125,-0.5687255859375,0.01123046875,9375,-4664,3159,7,-19,-89
146345834,0.806640625,-0.14910888671875,-0.5718994140625,0.00396728515625,9265,-4663,3198,6,-19,-88
146355817,0.80548095703125,-0.14324951171875,-0.57501220703125,-0.003173828125,9215,-4685,3236,5,-20,-87
146365798,0.80419921875,-0.13751220703125,-0.57818603515625,-0.01019287109375,9214,-4721,3297,5,-21,-87
146375782,0.80267333984375,-0.13201904296875,-0.5814208984375,-0.0169677734375,9228,-4787,3376,5,-24,-85
146385762,0.80096435546875,-0.126953125,-0.58465576171875,-0.0233154296875,9195,-4851,3540,4,-26,-81
146395754,0.799072265625,-0.12249755859375,-0.587890625,-0.02886962890625,9179,-4946,3742,3,-31,-73
146405738,0.7969970703125,-0.119140625,-0.5911865234375,-0.033203125,9215,-5059,3960,2,-34,-59
146415715,0.79473876953125,-0.11712646484375,-0.594482421875,-0.035888671875,9409,-5199,4166,1,-38,-42
146425695,0.79229736328125,-0.11663818359375,-0.59771728515625,-0.03656005859375,9702,-5358,4311,1,-40,-21
146435681,0.7899169921875,-0.1177978515625,-0.60076904296875,-0.03509521484375,10009,-5544,4375,1,-40,0
146445661,0.78765869140625,-0.12042236328125,-0.6033935546875,-0.03167724609375,10325,-5748,4380,1,-38,18
146455642,0.78558349609375,-0.12408447265625,-0.6055908203125,-0.02685546875,10631,-5900,4293,2,-35,33
146465630,0.78375244140625,-0.12847900390625,-0.60723876953125,-0.0208740234375,10950,-5973,4161,3,-30,44
146475610,0.7822265625,-0.1334228515625,-0.60833740234375,-0.01416015625,11273,-5985,4034,2,-25,54
146485593,0.781005859375,-0.1390380859375,-0.60882568359375,-0.0068359375,11576,-5977,3903,1,-20,63
146495574,0.7801513671875,-0.14532470703125,-0.6085205078125,0.00115966796875,11824,-5954,3798,0,-13,74
146505556,0.77960205078125,-0.15240478515625,-0.6072998046875,0.00994873046875,12000,-5935,3706,-1,-7,85
146515538,0.7794189453125,-0.16033935546875,-0.6053466796875,0.01947021484375,12167,-5924,3603,-3,0,96
146525516,0.7794189453125,-0.1690673828125,-0.6025390625,0.02947998046875,12334,-5930,3507,-5,6,105
146535502,0.779541015625,-0.17852783203125,-0.59906005859375,0.03973388671875,12515,-5930,3415,-9,11,113
146545485,0.77960205078125,-0.188720703125,-0.594970703125,0.0504150390625,12636,-5931,3289,-12,15,122
146555469,0.77960205078125,-0.19989013671875,-0.59033203125,0.0615234375,12711,-5917,3166,-16,19,133
146565451,0.77935791015625,-0.21197509765625,-0.5850830078125,0.07318115234375,12753,-5906,3054,-19,21,144
146575430,0.77880859375,-0.22503662109375,-0.5792236328125,0.0853271484375,12698,-5917,2949,-24,24,154
146585422,0.7779541015625,-0.23907470703125,-0.57275390625,0.097900390625,12530,-5904,2879,-28,26,164
146595404,0.776611328125,-0.25408935546875,-0.565673828125,0.11090087890625,12275,-5914,2778,-33,28,175
146605386,0.7747802734375,-0.27008056640625,-0.55792236328125,0.12445068359375,11950,-5948,2663,-37,29,185
146615365,0.772216796875,-0.28704833984375,-0.54962158203125,0.1385498046875,11530,-6035,2560,-41,30,195
146625347,0.76910400390625,-0.3046875,-0.54058837890625,0.1529541015625,11044,-6131,2454,-45,31,203
146635329,0.7652587890625,-0.3228759765625,-0.53106689453125,0.16766357421875,10501,-6269,2340,-48,31,208
146645312,0.7607421875,-0.34136962890625,-0.52105712890625,0.18231201171875,9919,-6446,2201,-50,32,210
146655295,0.755615234375,-0.35992431640625,-0.5106201171875,0.19683837890625,9280,-6646,2055,-52,32,211
146665278,0.74993896484375,-0.37835693359375,-0.499755859375,0.211181640625,8667,-6863,1888,-53,33,210
146675260,0.7437744140625,-0.39654541015625,-0.48870849609375,0.22528076171875,8090,-7106,1705,-53,33,209
146685240,0.737060546875,-0.41436767578125,-0.477294921875,0.23919677734375,7535,-7383,1564,-51,32,209
146695237,0.72998046875,-0.43170166015625,-0.465576171875,0.25299072265625,7025,-7658,1428,-49,32,208
146705219,0.7225341796875,-0.44830322265625,-0.4537353515625,0.26666259765625,6617,-7931,1297,-45,30,206
146715201,0.71478271484375,-0.46405029296875,-0.44183349609375,0.2801513671875,6290,-8193,1178,-42,28,204
146725182,0.70684814453125,-0.47894287109375,-0.429931640625,0.29339599609375,5963,-8427,1069,-38,26,200
146735175,0.69873046875,-0.4930419921875,-0.41790771484375,0.306640625,5755,-8669,980,-35,24,201
146745157,0.6903076171875,-0.50640869140625,-0.40570068359375,0.320068359375,5596,-8894,898,-30,23,204
146755138,0.6815185546875,-0.51922607421875,-0.39288330078125,0.333984375,5443,-9097,809,-25,21,210
146765112,0.67236328125,-0.53155517578125,-0.37933349609375,0.3485107421875,5332,-9271,726,-20,20,218
146775095,0.66278076171875,-0.54339599609375,-0.364990234375,0.3636474609375,5211,-9390,640,-14,19,226
146785079,0.6527099609375,-0.55462646484375,-0.3499755859375,0.3792724609375,5051,-9480,547,-10,17,233
146795059,0.64227294921875,-0.56524658203125,-0.33428955078125,0.39520263671875,4853,-9522,484,-5,16,237
146805045,0.63153076171875,-0.57513427734375,-0.31805419921875,0.41131591796875,4635,-9555,443,0,15,240
146815026,0.6204833984375,-0.584228515625,-0.30133056640625,0.42755126953125,4325,-9553,411,4,13,242
146825008,0.60906982421875,-0.59259033203125,-0.28399658203125,0.444091796875,3950,-9478,425,9,11,246
146834992,0.59710693359375,-0.6002197265625,-0.265869140625,0.4610595703125,3510,-9348,462,13,8,253
146844981,0.58453369140625,-0.60693359375,-0.24700927734375,0.47845458984375,3067,-9184,529,18,5,258
146854957,0.5714111328125,-0.61273193359375,-0.22747802734375,0.4962158203125,2609,-8995,613,22,2,263
146864937,0.557861328125,-0.617431640625,-0.20751953125,0.5142822265625,2151,-8759,698,27,-3,265
146874919,0.54388427734375,-0.62103271484375,-0.18719482421875,0.5323486328125,1702,-8469,766,32,-7,266
146884902,0.52960205078125,-0.62353515625,-0.16650390625,0.5504150390625,1291,-8143,840,36,-11,266
146894885,0.51507568359375,-0.62481689453125,-0.145751953125,0.56842041015625,974,-7788,907,40,-15,266
146904872,0.50048828125,-0.6248779296875,-0.125244140625,0.5859375,660,-7404,949,43,-19,260
146914851,0.48626708984375,-0.6239013671875,-0.10516357421875,0.60272216796875,447,-7014,973,47,-22,251
146924834,0.47247314453125,-0.621826171875,-0.08575439453125,0.61865234375,287,-6621,978,49,-24,241
146934816,0.45904541015625,-0.61895751953125,-0.06683349609375,0.6337890625,165,-6209,961,52,-27,234
146944798,0.44598388671875,-0.61529541015625,-0.0482177734375,0.648193359375,67,-5801,953,54,-28,226
146954782,0.43316650390625,-0.61090087890625,-0.0299072265625,0.6619873046875,6,-5403,951,56,-29,221
146964761,0.420654296875,-0.60601806640625,-0.0118408203125,0.67498779296875,0,-5016,941,58,-28,213
146974757,0.4088134765625,-0.60064697265625,0.00567626953125,0.68707275390625,17,-4619,954,60,-28,203
146984739,0.397705078125,-0.594970703125,0.022705078125,0.69805908203125,67,-4194,953,62,-25,191
146994716,0.38751220703125,-0.5892333984375,0.03912353515625,0.70782470703125,143,-3750,928,63,-21,178
147004699,0.37835693359375,-0.5836181640625,0.0550537109375,0.71636962890625,244,-3276,905,64,-16,164
147014681,0.37005615234375,-0.5782470703125,0.07061767578125,0.72369384765625,346,-2768,878,66,-10,152
147024663,0.36236572265625,-0.57330322265625,0.08599853515625,0.72979736328125,429,-2224,858,67,-2,142
147034651,0.35504150390625,-0.56884765625,0.1014404296875,0.73486328125,449,-1638,831,67,6,134
147044631,0.34796142578125,-0.56500244140625,0.11700439453125,0.7388916015625,404,-1015,828,67,14,128
147054615,0.34088134765625,-0.5616455078125,0.13275146484375,0.7420654296875,300,-353,859,67,22,123
147064596,0.3338623046875,-0.55889892578125,0.14862060546875,0.74432373046875,103,320,915,65,29,117
147074580,0.3270263671875,-0.55670166015625,0.164306640625,0.7457275390625,-160,1031,978,64,37,108
147084564,0.32037353515625,-0.55523681640625,0.1795654296875,0.7462158203125,-518,1762,1057,61,42,97
147094546,0.31427001953125,-0.55438232421875,0.19415283203125,0.74578857421875,-991,2508,1137,57,47,84
147104528,0.3087158203125,-0.55419921875,0.20782470703125,0.74456787109375,-1533,3234,1224,53,51,71
147114511,0.30352783203125,-0.55462646484375,0.2205810546875,0.74267578125,-2097,3933,1301,48,54,60
147124497,0.29864501953125,-0.5555419921875,0.23248291015625,0.7403564453125,-2692,4601,1371,44,56,50
147134481,0.2938232421875,-0.5567626953125,0.2435302734375,0.73773193359375,-3339,5221,1429,39,56,44
147144465,0.28900146484375,-0.5582275390625,0.2540283203125,0.73504638671875,-4018,5835,1466,35,56,40
147154447,0.2838134765625,-0.55950927734375,0.26416015625,0.73248291015625,-4721,6411,1475,31,54,40
147164428,0.2783203125,-0.56060791015625,0.27392578125,0.73016357421875,-5479,6907,1458,28,50,41
147174422,0.2725830078125,-0.56134033203125,0.283447265625,0.7281494140625,-6204,7318,1405,25,45,43
147184404,0.2666015625,-0.56158447265625,0.29254150390625,0.72662353515625,-6858,7622,1353,23,39,45
147194386,0.2607421875,-0.56121826171875,0.30108642578125,0.72552490234375,-7436,7861,1328,21,32,44
147204362,0.25567626953125,-0.560546875,0.30865478515625,0.72467041015625,-7879,7990,1270,19,24,35
147214345,0.25225830078125,-0.55987548828125,0.31451416015625,0.72381591796875,-8221,8012,1214,17,16,17
147224326,0.25128173828125,-0.55963134765625,0.3182373046875,0.72271728515625,-8480,7919,1136,15,9,-10
147234303,0.25323486328125,-0.56011962890625,0.31939697265625,0.72113037109375,-8631,7736,1050,14,2,-41
147244287,0.2581787109375,-0.5614013671875,0.31793212890625,0.71905517578125,-8717,7452,969,12,-4,-72
147254266,0.265869140625,-0.563232421875,0.31414794921875,0.71649169921875,-8738,7079,899,11,-11,-98
147264250,0.2755126953125,-0.56524658203125,0.30859375,0.71368408203125,-8624,6632,825,11,-17,-116
147274238,0.28662109375,-0.5672607421875,0.30157470703125,0.710693359375,-8430,6139,741,10,-24,-129
147284220,0.2989501953125,-0.5692138671875,0.29351806640625,0.7073974609375,-8155,5620,643,10,-28,-139
147294207,0.3121337890625,-0.57098388671875,0.28448486328125,0.70391845703125,-7812,5086,550,10,-33,-147
147304186,0.3260498046875,-0.5726318359375,0.27471923828125,0.7001953125,-7405,4547,438,11,-36,-153
147314177,0.3404541015625,-0.5740966796875,0.264404296875,0.69610595703125,-6977,4019,318,11,-38,-157
147324161,0.3551025390625,-0.57525634765625,0.25372314453125,0.6917724609375,-6531,3513,241,12,-40,-159
147334136,0.36993408203125,-0.5760498046875,0.2427978515625,0.68731689453125,-6103,3045,186,13,-42,-160
147344112,0.38482666015625,-0.576416015625,0.23175048828125,0.6826171875,-5757,2598,158,15,-44,-160
147354096,0.3997802734375,-0.576416015625,0.2205810546875,0.67767333984375,-5484,2203,134,17,-45,-160
147364078,0.41497802734375,-0.576171875,0.209228515625,0.67230224609375,-5199,1838,114,19,-45,-164
147374063,0.4306640625,-0.57574462890625,0.197509765625,0.6663818359375,-4921,1504,100,20,-46,-170
147384045,0.44696044921875,-0.5750732421875,0.18524169921875,0.65966796875,-4642,1155,103,23,-46,-178
147394028,0.46392822265625,-0.57415771484375,0.17230224609375,0.65216064453125,-4408,829,141,25,-47,-186
147404010,0.48150634765625,-0.57281494140625,0.15887451171875,0.64398193359375,-4211,536,218,27,-48,-193
147413996,0.49945068359375,-0.571044921875,0.14501953125,0.6351318359375,-4069,258,295,30,-50,-199
147423986,0.51776123046875,-0.56866455078125,0.13079833984375,0.62567138671875,-3952,-13,398,32,-52,-203
147433969,0.5362548828125,-0.565673828125,0.1160888671875,0.6156005859375,-3804,-287,517,34,-54,-209
147443947,0.55517578125,-0.56207275390625,0.1007080078125,0.604736328125,-3637,-572,668,36,-56,-216
147453929,0.5743408203125,-0.55780029296875,0.0845947265625,0.5931396484375,-3436,-890,851,37,-59,-222
147463912,0.5936279296875,-0.552734375,0.06781005859375,0.58087158203125,-3201,-1217,1046,38,-62,-227
147473894,0.61273193359375,-0.5469970703125,0.05047607421875,0.568115234375,-2944,-1581,1278,38,-65,-229
147483877,0.631591796875,-0.54034423828125,0.032470703125,0.55499267578125,-2622,-1958,1523,38,-69,-230
147493861,0.65008544921875,-0.53289794921875,0.0137939453125,0.54144287109375,-2227,-2351,1817,38,-74,-233
147503843,0.66839599609375,-0.52471923828125,-0.0059814453125,0.52716064453125,-1741,-2773,2103,36,-79,-240
147513825,0.6866455078125,-0.5157470703125,-0.02728271484375,0.51153564453125,-1227,-3191,2386,32,-83,-252
147523810,0.704833984375,-0.50616455078125,-0.05010986328125,0.49444580078125,-645,-3577,2648,28,-87,-265
147533795,0.72247314453125,-0.495849609375,-0.0743408203125,0.47601318359375,-63,-3912,2844,24,-92,-274
147543779,0.73895263671875,-0.48492431640625,-0.09918212890625,0.45703125,501,-4194,2987,21,-97,-273
147553767,0.7537841796875,-0.4735107421875,-0.1241455078125,0.43841552734375,1101,-4414,3078,18,-101,-261
147563749,0.766357421875,-0.46185302734375,-0.1485595703125,0.4210205078125,1668,-4580,3132,13,-105,-241
147573730,0.7764892578125,-0.450439453125,-0.171875,0.4056396484375,2204,-4700,3141,9,-108,-214
147583708,0.78424072265625,-0.4395751953125,-0.19403076171875,0.392578125,2773,-4815,3149,4,-110,-185
147593689,0.78973388671875,-0.42938232421875,-0.2152099609375,0.38153076171875,3275,-4924,3178,-2,-112,-161
147603669,0.79339599609375,-0.4200439453125,-0.2354736328125,0.372314453125,3649,-5034,3206,-8,-113,-140
147613653,0.79547119140625,-0.41162109375,-0.2548828125,0.36444091796875,3970,-5140,3234,-14,-113,-123
147623637,0.79632568359375,-0.4039306640625,-0.2738037109375,0.357421875,4277,-5285,3284,-19,-113,-113
147633620,0.79638671875,-0.396728515625,-0.29241943359375,0.35052490234375,4483,-5439,3368,-24,-112,-111
147643601,0.79608154296875,-0.38958740234375,-0.31097412109375,0.34307861328125,4670,-5563,3426,-27,-111,-115
147653585,0.795654296875,-0.3824462890625,-0.3297119140625,0.3345947265625,4809,-5640,3478,-31,-110,-124
147663569,0.79522705078125,-0.37506103515625,-0.34857177734375,0.32470703125,4947,-5669,3508,-34,-108,-136
147673551,0.7947998046875,-0.3673095703125,-0.36773681640625,0.31329345703125,5195,-5726,3529,-36,-106,-147
147683537,0.79425048828125,-0.35919189453125,-0.38702392578125,0.30059814453125,5438,-5813,3543,-38,-104,-156
147693517,0.79339599609375,-0.3509521484375,-0.406005859375,0.2872314453125,5726,-5874,3523,-39,-102,-157
147703501,0.79205322265625,-0.343017578125,-0.42413330078125,0.27410888671875,6057,-5904,3462,-39,-98,-149
147713483,0.79010009765625,-0.33551025390625,-0.441162109375,0.26177978515625,6424,-5920,3404,-39,-94,-137
147723465,0.7877197265625,-0.32855224609375,-0.4571533203125,0.25018310546875,6855,-5903,3348,-40,-90,-127
147733447,0.78515625,-0.3218994140625,-0.4722900390625,0.23846435546875,7355,-5854,3247,-40,-84,-125
147743428,0.7825927734375,-0.315185546875,-0.48699951171875,0.22589111328125,7775,-5841,3133,-42,-78,-132
147753419,0.78033447265625,-0.30816650390625,-0.501220703125,0.2119140625,8084,-5862,3060,-45,-72,-143
147763403,0.7781982421875,-0.30096435546875,-0.514892578125,0.19683837890625,8359,-5880,2999,-46,-67,-150
147773385,0.77593994140625,-0.29388427734375,-0.52783203125,0.181640625,8669,-5901,2913,-47,-62,-146
147783364,0.77337646484375,-0.287353515625,-0.53973388671875,0.1671142578125,9066,-5905,2822,-46,-58,-136
147793348,0.7706298828125,-0.281494140625,-0.55084228515625,0.1533203125,9513,-5936,2663,-46,-54,-126
147803330,0.7677001953125,-0.27606201171875,-0.5611572265625,0.1397705078125,9871,-5992,2511,-47,-50,-124
147813312,0.76483154296875,-0.2706298828125,-0.57086181640625,0.1258544921875,10092,-6019,2363,-48,-46,-128
147823295,0.7620849609375,-0.2650146484375,-0.5802001953125,0.11126708984375,10270,-6035,2182,-49,-42,-133
147833279,0.75921630859375,-0.259521484375,-0.58905029296875,0.096435546875,10364,-6045,2015,-50,-39,-133
147843263,0.7562255859375,-0.2545166015625,-0.59716796875,0.082275390625,10451,-6021,1835,-49,-37,-124
147853241,0.75311279296875,-0.25030517578125,-0.6044921875,0.0693359375,10655,-5979,1628,-48,-34,-111
147863232,0.74993896484375,-0.24676513671875,-0.611083984375,0.05743408203125,10870,-5988,1414,-46,-31,-101
147873216,0.74688720703125,-0.2435302734375,-0.61700439453125,0.04608154296875,10944,-5980,1257,-44,-27,-99
147883200,0.74407958984375,-0.239990234375,-0.62255859375,0.03460693359375,10926,-5914,1096,-43,-24,-103
147893189,0.74139404296875,-0.23590087890625,-0.62786865234375,0.02264404296875,10853,-5801,935,-42,-21,-110
147903172,0.73876953125,-0.23126220703125,-0.6329345703125,0.0101318359375,10665,-5673,831,-41,-19,-115
147913154,0.73626708984375,-0.2264404296875,-0.63763427734375,-0.00238037109375,10479,-5541,785,-40,-17,-115
147923124,0.73388671875,-0.2216796875,-0.6419677734375,-0.01446533203125,10370,-5417,741,-38,-16,-111
147933107,0.7314453125,-0.21722412109375,-0.6458740234375,-0.0257568359375,10309,-5359,675,-36,-14,-105
147943091,0.72906494140625,-0.21295166015625,-0.6494140625,-0.0364990234375,10290,-5343,636,-34,-13,-102
147953073,0.726806640625,-0.208740234375,-0.6527099609375,-0.046875,10270,-5339,615,-32,-12,-101
147963057,0.72454833984375,-0.20452880859375,-0.65570068359375,-0.05694580078125,10223,-5327,589,-31,-11,-99
147973038,0.722412109375,-0.20068359375,-0.65838623046875,-0.06640625,10186,-5294,579,-30,-10,-92
147983022,0.72039794921875,-0.19757080078125,-0.66064453125,-0.07476806640625,10165,-5257,564,-28,-9,-81
147993005,0.71844482421875,-0.1954345703125,-0.6624755859375,-0.0819091796875,10128,-5214,568,-28,-9,-67
148002990,0.71673583984375,-0.1944580078125,-0.66387939453125,-0.0877685546875,10067,-5197,609,-28,-9,-54
148012977,0.7152099609375,-0.194580078125,-0.66485595703125,-0.092529296875,9981,-5233,671,-29,-9,-42
148022953,0.7137451171875,-0.1956787109375,-0.66558837890625,-0.096435546875,9900,-5308,758,-30,-9,-32
148032935,0.71234130859375,-0.19769287109375,-0.66607666015625,-0.09942626953125,9841,-5420,822,-31,-11,-23
148042919,0.71087646484375,-0.20062255859375,-0.6663818359375,-0.10162353515625,9829,-5582,857,-32,-12,-14
148052900,0.70947265625,-0.20458984375,-0.66650390625,-0.1029052734375,9887,-5749,854,-32,-12,-2
148062887,0.70819091796875,-0.209716796875,-0.666259765625,-0.1029052734375,9989,-5880,803,-33,-13,13
148072872,0.70703125,-0.2161865234375,-0.6656494140625,-0.1014404296875,10167,-5948,712,-33,-13,31
148082850,0.7060546875,-0.22406005859375,-0.66455078125,-0.098388671875,10320,-5999,632,-32,-12,50
148092832,0.70526123046875,-0.23345947265625,-0.662841796875,-0.09368896484375,10424,-6035,551,-32,-12,70
148102815,0.70465087890625,-0.24407958984375,-0.66046142578125,-0.0875244140625,10507,-6105,470,-31,-11,86
148112800,0.70416259765625,-0.25567626953125,-0.6575927734375,-0.0802001953125,10567,-6207,371,-31,-10,98
148125990,0.70361328125,-0.26763916015625,-0.654296875,-0.07232666015625,10589,-6337,232,-30,-8,104
148132761,0.7030029296875,-0.27978515625,-0.65069580078125,-0.0640869140625,10553,-6500,99,-30,-7,106
148142756,0.702392578125,-0.2918701171875,-0.64678955078125,-0.0557861328125,10542,-6694,-41,-29,-6,108
148152738,0.70166015625,-0.3038330078125,-0.64276123046875,-0.04742431640625,10617,-6897,-204,-28,-5,108
148162716,0.7008056640625,-0.315673828125,-0.6385498046875,-0.0390625,10738,-7111,-360,-27,-4,109
148172697,0.69976806640625,-0.3275146484375,-0.6341552734375,-0.03045654296875,10841,-7314,-520,-27,-4,113
148182678,0.6986083984375,-0.3397216796875,-0.62939453125,-0.02130126953125,10881,-7520,-642,-26,-5,121
148192663,0.6971435546875,-0.35260009765625,-0.6241455078125,-0.0111083984375,10865,-7715,-749,-25,-6,134
148202646,0.6954345703125,-0.36651611328125,-0.61810302734375,0.0006103515625,10781,-7899,-845,-24,-8,152
148212630,0.69329833984375,-0.38165283203125,-0.61114501953125,0.01416015625,10638,-8073,-946,-23,-11,173
148222611,0.6905517578125,-0.39813232421875,-0.6031494140625,0.0296630859375,10518,-8254,-1056,-22,-13,195
148232593,0.6871337890625,-0.41552734375,-0.5941162109375,0.046875,10416,-8457,-1170,-21,-16,214
148242575,0.68304443359375,-0.43353271484375,-0.58416748046875,0.0653076171875,10305,-8683,-1292,-20,-19,227
148252560,0.67816162109375,-0.45166015625,-0.57354736328125,0.08441162109375,10152,-8927,-1413,-20,-20,235
148262543,0.672607421875,-0.4696044921875,-0.5623779296875,0.1038818359375,9981,-9162,-1505,-19,-22,240
148272525,0.66644287109375,-0.48712158203125,-0.55072021484375,0.12353515625,9739,-9393,-1591,-18,-24,242
148282509,0.65966796875,-0.50421142578125,-0.53851318359375,0.14349365234375,9438,-9614,-1677,-16,-26,246
148292491,0.6522216796875,-0.52099609375,-0.52569580078125,0.16375732421875,9121,-9817,-1757,-14,-27,252
148302474,0.64410400390625,-0.53741455078125,-0.51214599609375,0.1844482421875,8780,-9990,-1814,-13,-29,258
148312457,0.63531494140625,-0.553466796875,-0.497802734375,0.20556640625,8423,-10154,-1848,-11,-31,264
148322443,0.6258544921875,-0.56890869140625,-0.48291015625,0.22686767578125,8048,-10294,-1888,-9,-33,268
148332430,0.61578369140625,-0.58367919921875,-0.46746826171875,0.24822998046875,7654,-10389,-1923,-7,-34,270
148342412,0.605224609375,-0.59759521484375,-0.45166015625,0.26953125,7259,-10470,-1930,-4,-36,270
148352393,0.59423828125,-0.610595703125,-0.43548583984375,0.29058837890625,6860,-10521,-1931,-3,-37,270
148362373,0.58282470703125,-0.62274169921875,-0.41900634765625,0.31146240234375,6437,-10544,-1923,0,-38,270
148372353,0.5709228515625,-0.63409423828125,-0.4019775390625,0.33233642578125,5972,-10532,-1887,2,-40,272
148382336,0.55841064453125,-0.644775390625,-0.38421630859375,0.3533935546875,5511,-10455,-1834,5,-42,279
148392318,0.54510498046875,-0.65484619140625,-0.3653564453125,0.3748779296875,4976,-10303,-1792,8,-43,288
148402302,0.5308837890625,-0.66436767578125,-0.34527587890625,0.39691162109375,4420,-10109,-1732,10,-45,298
148412287,0.51580810546875,-0.67315673828125,-0.32421875,0.419189453125,3849,-9867,-1693,13,-48,303
148422267,0.5001220703125,-0.68084716796875,-0.302734375,0.4412841796875,3267,-9579,-1663,15,-50,302
148432250,0.48406982421875,-0.68731689453125,-0.28131103515625,0.46270751953125,2728,-9283,-1646,16,-52,295
148442238,0.46807861328125,-0.6925048828125,-0.2606201171875,0.48309326171875,2228,-8979,-1645,17,-54,283
148452221,0.452392578125,-0.69635009765625,-0.24090576171875,0.50238037109375,1749,-8644,-1604,18,-56,268
148462205,0.4371337890625,-0.69891357421875,-0.22222900390625,0.5206298828125,1310,-8292,-1547,18,-59,254
148472184,0.4222412109375,-0.7003173828125,-0.2044677734375,0.53802490234375,874,-7924,-1477,19,-61,242
148482178,0.4075927734375,-0.70062255859375,-0.18756103515625,0.5548095703125,464,-7553,-1381,19,-65,232
148492159,0.393310546875,-0.70001220703125,-0.17138671875,0.5709228515625,124,-7187,-1291,20,-67,222
148502137,0.379150390625,-0.69854736328125,-0.1558837890625,0.58648681640625,-201,-6800,-1188,20,-70,214
148512113,0.3653564453125,-0.69622802734375,-0.14105224609375,0.6015625,-469,-6448,-1074,20,-72,205
148522097,0.351806640625,-0.6932373046875,-0.126953125,0.6160888671875,-689,-6119,-1002,20,-74,197
148532081,0.338623046875,-0.6895751953125,-0.11346435546875,0.63006591796875,-811,-5828,-917,20,-76,191
148542063,0.32562255859375,-0.68536376953125,-0.100341796875,0.6435546875,-909,-5511,-837,20,-77,186
148552048,0.31256103515625,-0.6807861328125,-0.08746337890625,0.6566162109375,-996,-5184,-786,20,-77,183
148562030,0.299560546875,-0.67584228515625,-0.07470703125,0.6693115234375,-1016,-4831,-723,19,-77,180
148572012,0.28662109375,-0.67059326171875,-0.0621337890625,0.681396484375,-1018,-4458,-654,19,-75,176
148581995,0.27392578125,-0.6651611328125,-0.0498046875,0.69287109375,-989,-4065,-578,19,-73,170
148591985,0.26171875,-0.65960693359375,-0.03802490234375,0.70355224609375,-945,-3643,-494,18,-69,161
148601961,0.250244140625,-0.654052734375,-0.0269775390625,0.71331787109375,-879,-3238,-390,18,-65,149
148611945,0.23980712890625,-0.648681640625,-0.01678466796875,0.72210693359375,-812,-2814,-257,17,-60,135
148621928,0.2303466796875,-0.64349365234375,-0.0074462890625,0.72991943359375,-757,-2393,-103,17,-54,121
148631908,0.2220458984375,-0.638671875,0.0010986328125,0.73675537109375,-701,-1991,73,16,-47,107
148641893,0.21484375,-0.63433837890625,0.00885009765625,0.7425537109375,-669,-1594,267,17,-39,93
148651875,0.20867919921875,-0.63043212890625,0.01593017578125,0.7474365234375,-694,-1181,488,16,-32,79
148661858,0.20355224609375,-0.62713623046875,0.02227783203125,0.75146484375,-810,-746,740,16,-24,67
148671841,0.19927978515625,-0.62445068359375,0.02813720703125,0.75469970703125,-997,-302,1010,15,-17,55
148681822,0.19580078125,-0.62225341796875,0.033447265625,0.7572021484375,-1227,143,1293,15,-10,45
148691804,0.19293212890625,-0.62054443359375,0.03826904296875,0.75909423828125,-1476,573,1586,14,-4,36
148701788,0.1904296875,-0.619384765625,0.04290771484375,0.7603759765625,-1762,998,1863,13,2,31
148711764,0.18792724609375,-0.61865234375,0.0474853515625,0.7613525390625,-2093,1417,2142,12,7,29
148721757,0.18524169921875,-0.61822509765625,0.05230712890625,0.76202392578125,-2469,1812,2434,12,12,30
148731740,0.18212890625,-0.6180419921875,0.05755615234375,0.7625732421875,-2885,2198,2732,12,15,34
148741716,0.17852783203125,-0.61798095703125,0.0633544921875,0.76300048828125,-3327,2557,3017,13,18,38
148751703,0.17449951171875,-0.6180419921875,0.0697021484375,0.76336669921875,-3778,2904,3263,14,20,42
148761685,0.170166015625,-0.61810302734375,0.076416015625,0.76361083984375,-4252,3236,3476,15,21,44
148771667,0.166015625,-0.6181640625,0.0833740234375,0.76373291015625,-4719,3546,3661,17,23,42
148781653,0.16241455078125,-0.6182861328125,0.0902099609375,0.763671875,-5163,3816,3779,19,23,36
148791634,0.15972900390625,-0.618408203125,0.0965576171875,0.76336669921875,-5560,4031,3873,21,22,26
148801619,0.1583251953125,-0.6185302734375,0.10211181640625,0.7628173828125,-5913,4192,3922,23,21,13
148811597,0.15863037109375,-0.6187744140625,0.1065673828125,0.761962890625,-6188,4309,3943,25,20,-4
148821577,0.16082763671875,-0.61907958984375,0.10968017578125,0.76080322265625,-6378,4377,3917,27,19,-25
148831561,0.16546630859375,-0.6197509765625,0.11114501953125,0.75909423828125,-6460,4392,3815,28,18,-49
148841544,0.172607421875,-0.6207275390625,0.1104736328125,0.7567138671875,-6471,4345,3678,29,18,-77
148851525,0.182373046875,-0.62213134765625,0.10772705078125,0.75372314453125,-6404,4244,3499,29,18,-105
148861509,0.19451904296875,-0.62396240234375,0.1029052734375,0.74981689453125,-6254,4077,3281,29,19,-130
148871493,0.20855712890625,-0.6260986328125,0.0963134765625,0.7451171875,-6027,3850,3040,28,20,-150
148881478,0.2239990234375,-0.6285400390625,0.08831787109375,0.73956298828125,-5735,3592,2784,27,22,-166
148891460,0.24053955078125,-0.63116455078125,0.07916259765625,0.733154296875,-5405,3272,2527,26,24,-177
148901443,0.2576904296875,-0.63385009765625,0.06915283203125,0.7259521484375,-5062,2953,2263,24,25,-185
148911432,0.27532958984375,-0.6365966796875,0.05841064453125,0.718017578125,-4721,2607,2005,23,27,-192
148921416,0.29327392578125,-0.6392822265625,0.047119140625,0.70928955078125,-4437,2257,1780,22,29,-197
148931396,0.311279296875,-0.64178466796875,0.0355224609375,0.699951171875,-4199,1890,1594,21,30,-199
148941374,0.3292236328125,-0.6441650390625,0.0235595703125,0.69000244140625,-4025,1506,1425,21,31,-201
148951356,0.3470458984375,-0.646240234375,0.01153564453125,0.6795654296875,-3864,1125,1281,20,31,-200
148961345,0.36456298828125,-0.64794921875,-0.00048828125,0.66876220703125,-3715,758,1155,20,32,-199
148971323,0.3818359375,-0.6492919921875,-0.012451171875,0.6575927734375,-3545,394,1028,20,30,-197
148981309,0.3988037109375,-0.65020751953125,-0.02447509765625,0.64617919921875,-3332,42,925,21,30,-195
148991291,0.41571044921875,-0.650634765625,-0.03656005859375,0.6343994140625,-3086,-320,825,21,29,-196
149001274,0.4326171875,-0.65057373046875,-0.0489501953125,0.62225341796875,-2828,-673,732,22,27,-198
149011258,0.4498291015625,-0.64990234375,-0.0618896484375,0.60943603515625,-2598,-1024,665,22,25,-204
149021237,0.46728515625,-0.64862060546875,-0.07550048828125,0.59600830078125,-2373,-1369,635,23,23,-211
149031229,0.48486328125,-0.64666748046875,-0.089599609375,0.58203125,-2131,-1720,597,23,21,-216
149041212,0.50250244140625,-0.64398193359375,-0.10430908203125,0.5673828125,-1838,-2102,573,23,19,-220
149051191,0.52001953125,-0.6405029296875,-0.11968994140625,0.55224609375,-1466,-2510,552,22,15,-224
149061184,0.53753662109375,-0.63629150390625,-0.1357421875,0.53643798828125,-1053,-2953,535,22,12,-230
149071168,0.5550537109375,-0.63116455078125,-0.15283203125,0.51983642578125,-638,-3468,523,20,8,-239
149081149,0.57269287109375,-0.625,-0.17132568359375,0.50201416015625,-138,-3999,543,19,4,-252
149091118,0.590576171875,-0.61767578125,-0.19146728515625,0.482666015625,436,-4561,562,16,0,-267
149101101,0.6083984375,-0.60919189453125,-0.213134765625,0.46185302734375,1092,-5118,585,13,-4,-281
149111082,0.625732421875,-0.5994873046875,-0.236083984375,0.43963623046875,1735,-5654,601,10,-9,-291
149121063,0.64190673828125,-0.5888671875,-0.25946044921875,0.41693115234375,2315,-6135,628,7,-14,-290
149131047,0.6563720703125,-0.57769775390625,-0.282470703125,0.39453125,2804,-6501,694,4,-19,-281
149141028,0.66876220703125,-0.5662841796875,-0.3043212890625,0.37347412109375,3250,-6821,768,1,-25,-260
149151012,0.678955078125,-0.5550537109375,-0.3248291015625,0.35406494140625,3695,-7119,816,-2,-30,-238
149160990,0.687255859375,-0.5440673828125,-0.34429931640625,0.3363037109375,4102,-7396,854,-4,-36,-220
149170982,0.69403076171875,-0.5333251953125,-0.36279296875,0.31976318359375,4472,-7623,898,-6,-40,-206
149180957,0.69952392578125,-0.52276611328125,-0.38055419921875,0.30426025390625,4791,-7738,884,-8,-43,-194
149190941,0.70379638671875,-0.51251220703125,-0.3975830078125,0.2896728515625,5111,-7848,874,-10,-46,-182
149200924,0.70703125,-0.50262451171875,-0.413818359375,0.27606201171875,5519,-7973,840,-11,-47,-170
149210906,0.70941162109375,-0.49298095703125,-0.42938232421875,0.26324462890625,5937,-8104,804,-12,-49,-161
149220891,0.71124267578125,-0.48333740234375,-0.4447021484375,0.2506103515625,6364,-8239,764,-12,-50,-159
149230873,0.712646484375,-0.473388671875,-0.4599609375,0.2376708984375,6764,-8338,724,-13,-51,-164
149240857,0.71392822265625,-0.46270751953125,-0.4754638671875,0.223876953125,7157,-8352,680,-13,-51,-173
149250840,0.7152099609375,-0.451171875,-0.49114990234375,0.20892333984375,7579,-8275,611,-13,-49,-184
149260821,0.7164306640625,-0.4388427734375,-0.5069580078125,0.1927490234375,7974,-8192,494,-14,-46,-196
149270807,0.71746826171875,-0.42596435546875,-0.52239990234375,0.175537109375,8308,-8089,391,-15,-41,-203
149280790,0.7183837890625,-0.4129638671875,-0.537109375,0.15777587890625,8714,-7956,280,-16,-35,-202
149290769,0.7188720703125,-0.40032958984375,-0.5506591796875,0.1402587890625,9062,-7833,176,-17,-31,-193
149300761,0.71905517578125,-0.38848876953125,-0.56280517578125,0.12359619140625,9368,-7685,148,-18,-26,-181
149310745,0.7188720703125,-0.37750244140625,-0.5736083984375,0.1077880859375,9743,-7561,87,-19,-22,-168
149320728,0.71844482421875,-0.36724853515625,-0.58343505859375,0.0924072265625,10051,-7453,7,-20,-18,-161
149330704,0.718017578125,-0.3572998046875,-0.59228515625,0.07720947265625,10247,-7350,-24,-22,-13,-159
149340688,0.71759033203125,-0.3475341796875,-0.60040283203125,0.061767578125,10405,-7239,-19,-23,-8,-159
149350670,0.7171630859375,-0.33782958984375,-0.6077880859375,0.04620361328125,10460,-7104,-12,-24,-4,-159
149360650,0.71673583984375,-0.32843017578125,-0.6143798828125,0.0308837890625,10401,-6944,4,-24,-1,-154
149370638,0.7161865234375,-0.31976318359375,-0.6201171875,0.01641845703125,10404,-6781,-37,-25,1,-144
149380617,0.71539306640625,-0.31195068359375,-0.625244140625,0.00286865234375,10461,-6632,-114,-25,2,-133
149390600,0.71435546875,-0.30487060546875,-0.62982177734375,-0.0098876953125,10548,-6482,-193,-26,2,-125
149400584,0.713134765625,-0.2979736328125,-0.63409423828125,-0.02239990234375,10682,-6322,-264,-27,2,-123
149410566,0.711669921875,-0.29095458984375,-0.63848876953125,-0.03509521484375,10806,-6160,-313,-27,1,-128
149420549,0.71002197265625,-0.28326416015625,-0.64288330078125,-0.04840087890625,10888,-5991,-312,-27,1,-136
149430537,0.70806884765625,-0.27490234375,-0.6474609375,-0.06243896484375,10925,-5798,-311,-28,0,-145
149440515,0.70574951171875,-0.26605224609375,-0.652099609375,-0.0767822265625,10930,-5564,-297,-28,-2,-149
149450497,0.703125,-0.25726318359375,-0.65667724609375,-0.0908203125,10917,-5312,-310,-27,-4,-146
149460479,0.70025634765625,-0.24896240234375,-0.66094970703125,-0.10406494140625,10889,-5034,-293,-26,-6,-137
149470461,0.69720458984375,-0.241455078125,-0.6649169921875,-0.1160888671875,10875,-4762,-254,-25,-8,-125
149480446,0.69415283203125,-0.23504638671875,-0.66851806640625,-0.12677001953125,10897,-4509,-204,-24,-11,-111
149490429,0.6910400390625,-0.22955322265625,-0.6717529296875,-0.13616943359375,10893,-4261,-173,-23,-13,-99
149500420,0.68798828125,-0.22479248046875,-0.67474365234375,-0.1444091796875,10862,-4041,-136,-21,-14,-88
149510403,0.68505859375,-0.2208251953125,-0.677490234375,-0.151611328125,10807,-3831,-118,-20,-14,-78
149520388,0.68231201171875,-0.21771240234375,-0.6798095703125,-0.1578369140625,10740,-3622,-144,-19,-14,-66
149530366,0.6798095703125,-0.21551513671875,-0.68182373046875,-0.162841796875,10628,-3441,-200,-18,-13,-52
149540347,0.677734375,-0.21453857421875,-0.683349609375,-0.1666259765625,10478,-3268,-255,-18,-12,-38
149550329,0.67608642578125,-0.21453857421875,-0.68426513671875,-0.1693115234375,10297,-3105,-293,-17,-9,-24
149560313,0.67486572265625,-0.21551513671875,-0.68475341796875,-0.1708984375,10086,-2964,-324,-17,-7,-12
149570295,0.674072265625,-0.21722412109375,-0.68475341796875,-0.17181396484375,9892,-2851,-357,-16,-5,-3
149580280,0.67364501953125,-0.21923828125,-0.6844482421875,-0.17236328125,9714,-2754,-384,-16,-2,1
149590259,0.67340087890625,-0.22137451171875,-0.68389892578125,-0.1727294921875,9531,-2697,-402,-16,0,2
149600236,0.67333984375,-0.223388671875,-0.68316650390625,-0.17333984375,9354,-2636,-415,-16,3,1
149610230,0.6734619140625,-0.22503662109375,-0.68231201171875,-0.174072265625,9192,-2603,-422,-15,5,-3
149620210,0.67364501953125,-0.22613525390625,-0.68145751953125,-0.17535400390625,9064,-2546,-444,-14,7,-8
149630200,0.67388916015625,-0.2266845703125,-0.68060302734375,-0.177001953125,8961,-2493,-456,-14,9,-13
149640187,0.67413330078125,-0.22662353515625,-0.6798095703125,-0.17926025390625,8900,-2431,-495,-14,11,-20
149650170,0.67437744140625,-0.22601318359375,-0.67901611328125,-0.1820068359375,8888,-2372,-547,-13,13,-25
149660152,0.6746826171875,-0.2249755859375,-0.67822265625,-0.18499755859375,8856,-2287,-593,-12,15,-28
149670123,0.675048828125,-0.22381591796875,-0.6773681640625,-0.1881103515625,8814,-2207,-643,-12,17,-28
149680107,0.67559814453125,-0.22271728515625,-0.6763916015625,-0.19110107421875,8769,-2142,-688,-11,18,-26
149690088,0.67620849609375,-0.2216796875,-0.67529296875,-0.19390869140625,8724,-2073,-717,-11,19,-24
149700073,0.67706298828125,-0.22076416015625,-0.67401123046875,-0.1964111328125,8668,-2005,-703,-10,20,-21
149710056,0.67803955078125,-0.219970703125,-0.672607421875,-0.19866943359375,8648,-1950,-675,-9,20,-19
149720045,0.67913818359375,-0.21929931640625,-0.671142578125,-0.20074462890625,8611,-1891,-652,-8,21,-16
149730022,0.6802978515625,-0.2186279296875,-0.66961669921875,-0.20257568359375,8571,-1815,-590,-7,21,-15
149740004,0.68157958984375,-0.21807861328125,-0.66802978515625,-0.20416259765625,8537,-1740,-536,-6,21,-13
149749991,0.68280029296875,-0.217529296875,-0.66650390625,-0.20556640625,8491,-1662,-475,-5,20,-11
149759978,0.68408203125,-0.21697998046875,-0.66497802734375,-0.206787109375,8427,-1587,-422,-4,19,-10
149769953,0.685302734375,-0.2164306640625,-0.66357421875,-0.20782470703125,8381,-1490,-363,-3,18,-9
149779936,0.6865234375,-0.2159423828125,-0.6622314453125,-0.20867919921875,8306,-1374,-284,-2,17,-7
149789917,0.68768310546875,-0.21551513671875,-0.66094970703125,-0.2093505859375,8228,-1270,-214,-1,16,-5
149799904,0.6888427734375,-0.215087890625,-0.65972900390625,-0.209716796875,8152,-1164,-137,0,14,-4
149809884,0.68988037109375,-0.21466064453125,-0.65875244140625,-0.21002197265625,8114,-1063,-51,1,12,-4
149819872,0.69085693359375,-0.21405029296875,-0.6578369140625,-0.21026611328125,8094,-977,55,2,11,-5
149829849,0.691650390625,-0.21319580078125,-0.6571044921875,-0.210693359375,8054,-879,157,3,9,-7
149839832,0.69232177734375,-0.2120361328125,-0.6566162109375,-0.21124267578125,7999,-800,282,4,8,-10
149849814,0.69287109375,-0.210693359375,-0.65625,-0.2119140625,7947,-716,420,4,6,-12
149859798,0.6932373046875,-0.20904541015625,-0.6561279296875,-0.21270751953125,7895,-630,532,5,4,-14
149869782,0.69354248046875,-0.207275390625,-0.6561279296875,-0.2135009765625,7828,-546,621,6,4,-16
149879763,0.6937255859375,-0.20550537109375,-0.65618896484375,-0.21429443359375,7772,-459,683,6,2,-15
149889755,0.69384765625,-0.2037353515625,-0.65643310546875,-0.21490478515625,7743,-381,715,7,2,-14
149899736,0.6939697265625,-0.2020263671875,-0.6566162109375,-0.2154541015625,7730,-304,711,7,1,-13
149909715,0.694091796875,-0.200439453125,-0.6568603515625,-0.2158203125,7701,-251,697,7,1,-11
149919698,0.69427490234375,-0.19903564453125,-0.65704345703125,-0.216064453125,7681,-185,692,7,1,-10
149929680,0.6944580078125,-0.19769287109375,-0.6572265625,-0.21624755859375,7687,-133,697,7,1,-8
149939662,0.69464111328125,-0.19647216796875,-0.6573486328125,-0.2164306640625,7724,-72,696,6,1,-8
149949646,0.69482421875,-0.19525146484375,-0.657470703125,-0.21649169921875,7757,-12,681,6,1,-7
149959630,0.69500732421875,-0.19415283203125,-0.65753173828125,-0.21661376953125,7809,28,662,6,1,-6
149969610,0.69525146484375,-0.193115234375,-0.6575927734375,-0.2166748046875,7880,72,647,5,2,-6
149979595,0.69549560546875,-0.19219970703125,-0.65753173828125,-0.21673583984375,7945,106,619,5,3,-5
149989577,0.69580078125,-0.1912841796875,-0.657470703125,-0.2169189453125,8013,160,581,4,3,-5
149999560,0.69610595703125,-0.1904296875,-0.6573486328125,-0.217041015625,8072,192,502,4,4,-5
