subject,Ian Lake
arm,left
label,2
hz,100.17201670080999
time,4.87162

timestamp_us,q0,q1,q2,q3,ax,ay,az,gx,gy,gz
26371614,0.375732421875,0.52142333984375,0.5438232421875,0.53948974609375,1193,7735,-1545,2,19,8
26381598,0.37353515625,0.52081298828125,0.54461669921875,0.540771484375,1199,7749,-1530,3,20,6
26391581,0.37139892578125,0.52001953125,0.545654296875,0.54205322265625,1186,7766,-1501,4,22,5
26401562,0.36932373046875,0.51904296875,0.546875,0.543212890625,1166,7776,-1460,5,23,3
26411545,0.36724853515625,0.517822265625,0.54833984375,0.54425048828125,1138,7769,-1399,6,23,0
26421529,0.36529541015625,0.5164794921875,0.54998779296875,0.54510498046875,1097,7772,-1349,7,23,-2
26431510,0.36346435546875,0.51507568359375,0.55181884765625,0.5458984375,1036,7796,-1279,8,23,-3
26441495,0.36163330078125,0.51361083984375,0.5537109375,0.5465087890625,988,7827,-1228,9,23,-4
26451479,0.35986328125,0.51214599609375,0.55572509765625,0.5469970703125,953,7865,-1173,10,22,-5
26461463,0.358154296875,0.51080322265625,0.55767822265625,0.54742431640625,915,7932,-1119,10,21,-4
26471449,0.35650634765625,0.509521484375,0.55950927734375,0.5478515625,873,8025,-1054,11,20,-3
26481433,0.35479736328125,0.5084228515625,0.5611572265625,0.5482177734375,836,8126,-1001,10,19,-1
26491419,0.35308837890625,0.507568359375,0.5626220703125,0.54864501953125,829,8235,-960,10,17,1
26501401,0.35137939453125,0.5068359375,0.5638427734375,0.54913330078125,809,8337,-921,9,16,3
26511376,0.349853515625,0.5062255859375,0.56494140625,0.54962158203125,823,8439,-901,8,15,3
26521359,0.34844970703125,0.50555419921875,0.56585693359375,0.55010986328125,825,8535,-881,7,13,2
26531342,0.347412109375,0.50482177734375,0.5667724609375,0.550537109375,825,8631,-868,5,12,0
26541326,0.3466796875,0.50396728515625,0.56756591796875,0.55096435546875,836,8730,-882,4,11,-1
26551307,0.34613037109375,0.5030517578125,0.568359375,0.5513916015625,830,8802,-904,2,10,-2
26561293,0.34588623046875,0.50201416015625,0.5689697265625,0.5518798828125,801,8857,-896,0,9,-2
26571271,0.3458251953125,0.50091552734375,0.5694580078125,0.5523681640625,771,8890,-868,-2,8,-3
26581256,0.34600830078125,0.499755859375,0.56988525390625,0.5528564453125,702,8905,-856,-3,7,-4
26591241,0.346435546875,0.49835205078125,0.5703125,0.5533447265625,643,8900,-851,-5,7,-6
26601224,0.34722900390625,0.496826171875,0.57080078125,0.55377197265625,564,8875,-824,-6,6,-9
26611206,0.348388671875,0.4949951171875,0.57135009765625,0.5540771484375,477,8821,-802,-7,5,-12
26621187,0.349853515625,0.4930419921875,0.572021484375,0.55426025390625,380,8756,-776,-8,4,-15
26631179,0.3516845703125,0.4908447265625,0.57269287109375,0.5543212890625,301,8681,-773,-9,3,-17
26641162,0.3536376953125,0.48876953125,0.5733642578125,0.55426025390625,240,8628,-802,-10,2,-18
26651130,0.35565185546875,0.4866943359375,0.573974609375,0.55413818359375,178,8597,-849,-10,1,-18
26661111,0.35760498046875,0.48486328125,0.57452392578125,0.553955078125,125,8564,-914,-10,0,-16
26671097,0.35955810546875,0.4832763671875,0.5748291015625,0.55377197265625,66,8518,-939,-10,-2,-13
26681076,0.36138916015625,0.48193359375,0.57489013671875,0.55364990234375,9,8469,-979,-10,-3,-11
26691062,0.36322021484375,0.480712890625,0.574951171875,0.553466796875,-40,8410,-991,-11,-4,-11
26701043,0.36517333984375,0.47955322265625,0.57489013671875,0.55328369140625,-83,8389,-1003,-11,-5,-11
26711025,0.3671875,0.47833251953125,0.5748291015625,0.55303955078125,-100,8409,-989,-11,-5,-12
26721008,0.369384765625,0.47705078125,0.57476806640625,0.552734375,-109,8466,-982,-12,-6,-13
26730995,0.37164306640625,0.4757080078125,0.57470703125,0.55242919921875,-105,8522,-965,-12,-6,-14
26740980,0.37408447265625,0.4742431640625,0.57464599609375,0.55206298828125,-90,8583,-941,-13,-6,-17
26750956,0.376708984375,0.4725341796875,0.57476806640625,0.55169677734375,-79,8662,-923,-13,-6,-19
26760940,0.37957763671875,0.47052001953125,0.57501220703125,0.5511474609375,-81,8758,-900,-14,-6,-23
26770922,0.3826904296875,0.46820068359375,0.575439453125,0.55059814453125,-99,8865,-887,-14,-5,-27
26780904,0.385986328125,0.4654541015625,0.57611083984375,0.54986572265625,-141,8969,-852,-15,-4,-30
26790889,0.3895263671875,0.46246337890625,0.576904296875,0.549072265625,-204,9072,-808,-15,-4,-34
26800869,0.39324951171875,0.45916748046875,0.577880859375,0.54815673828125,-284,9188,-742,-16,-3,-36
26810853,0.39697265625,0.4556884765625,0.578857421875,0.54730224609375,-378,9298,-654,-15,-2,-37
26820837,0.40081787109375,0.45208740234375,0.5799560546875,0.54638671875,-482,9389,-570,-15,-2,-38
26830820,0.40460205078125,0.4483642578125,0.58111572265625,0.54541015625,-590,9489,-478,-15,-1,-39
26840801,0.4085693359375,0.44439697265625,0.58245849609375,0.5443115234375,-684,9618,-400,-15,-1,-42
26850790,0.41265869140625,0.4400634765625,0.583984375,0.54302978515625,-788,9764,-350,-15,0,-47
26860768,0.4171142578125,0.43524169921875,0.58587646484375,0.54150390625,-880,9932,-316,-15,1,-53
26870761,0.4219970703125,0.429931640625,0.58807373046875,0.53961181640625,-976,10115,-261,-16,1,-60
26880744,0.42742919921875,0.423828125,0.590576171875,0.537353515625,-1092,10276,-185,-17,2,-69
26890721,0.433349609375,0.4169921875,0.59344482421875,0.5347900390625,-1231,10442,-118,-18,2,-77
26900703,0.43963623046875,0.40960693359375,0.596435546875,0.53204345703125,-1388,10648,-67,-19,3,-82
26910686,0.44610595703125,0.40179443359375,0.5994873046875,0.52923583984375,-1537,10838,-46,-21,4,-85
26920668,0.45263671875,0.3936767578125,0.60247802734375,0.5263671875,-1692,11016,-58,-24,5,-87
26930651,0.459228515625,0.3851318359375,0.60540771484375,0.5235595703125,-1863,11187,-62,-26,6,-90
26940636,0.46600341796875,0.37603759765625,0.6083984375,0.520751953125,-2058,11333,-51,-29,8,-93
26950615,0.47283935546875,0.36651611328125,0.61126708984375,0.51800537109375,-2254,11474,-36,-32,9,-96
26960600,0.4798583984375,0.3565673828125,0.61407470703125,0.51519775390625,-2467,11559,-29,-34,10,-99
26970583,0.4869384765625,0.34625244140625,0.61676025390625,0.51226806640625,-2697,11581,-5,-36,10,-101
26980569,0.494140625,0.3355712890625,0.61944580078125,0.50933837890625,-2918,11556,34,-37,10,-103
26990551,0.50146484375,0.32452392578125,0.62200927734375,0.50616455078125,-3139,11497,81,-39,11,-107
27000534,0.50897216796875,0.31298828125,0.62457275390625,0.50274658203125,-3353,11422,126,-40,10,-112
27010519,0.516845703125,0.3009033203125,0.627197265625,0.49884033203125,-3572,11316,141,-41,10,-119
27020501,0.52496337890625,0.2882080078125,0.6298828125,0.49444580078125,-3804,11190,193,-41,10,-125
27030485,0.53338623046875,0.2750244140625,0.63250732421875,0.4896240234375,-4036,11079,237,-42,9,-131
27040468,0.5419921875,0.261474609375,0.635009765625,0.48431396484375,-4281,10988,293,-42,8,-135
27050451,0.550537109375,0.247802734375,0.63726806640625,0.47882080078125,-4533,10887,323,-43,7,-136
27060430,0.55902099609375,0.23419189453125,0.63934326171875,0.4730224609375,-4764,10763,335,-42,5,-137
27070422,0.5673828125,0.2205810546875,0.6412353515625,0.46697998046875,-4985,10653,323,-42,4,-138
27080404,0.57568359375,0.2069091796875,0.6429443359375,0.46075439453125,-5210,10517,342,-42,3,-139
27090382,0.58404541015625,0.1932373046875,0.6444091796875,0.4541015625,-5418,10359,382,-41,2,-142
27100364,0.5924072265625,0.1793212890625,0.64569091796875,0.447021484375,-5619,10156,412,-40,0,-145
27110350,0.6009521484375,0.1651611328125,0.6468505859375,0.43939208984375,-5790,9926,431,-39,-1,-151
27120327,0.60968017578125,0.15057373046875,0.64788818359375,0.43096923828125,-5919,9659,476,-38,-2,-158
27130308,0.61859130859375,0.1357421875,0.648681640625,0.42193603515625,-6055,9397,533,-37,-4,-163
27140293,0.6275634765625,0.12066650390625,0.649169921875,0.412353515625,-6162,9110,575,-36,-6,-167
27150276,0.636474609375,0.10565185546875,0.6494140625,0.40240478515625,-6253,8838,610,-35,-8,-169
27160257,0.64520263671875,0.0906982421875,0.6492919921875,0.39215087890625,-6331,8543,634,-34,-9,-169
27170238,0.65380859375,0.07586669921875,0.64886474609375,0.3817138671875,-6382,8239,651,-34,-11,-169
27180228,0.66217041015625,0.06121826171875,0.64801025390625,0.37115478515625,-6432,7916,649,-33,-13,-168
27190212,0.67041015625,0.0467529296875,0.6468505859375,0.36041259765625,-6465,7602,658,-32,-14,-168
27200192,0.67840576171875,0.032470703125,0.64532470703125,0.34954833984375,-6484,7310,647,-32,-16,-168
27210184,0.686279296875,0.018310546875,0.64349365234375,0.33843994140625,-6497,7021,621,-31,-17,-168
27220167,0.69390869140625,0.00439453125,0.64129638671875,0.3272705078125,-6516,6734,588,-30,-19,-167
27230143,0.7012939453125,-0.00927734375,0.6387939453125,0.31610107421875,-6516,6453,572,-29,-21,-165
27240120,0.70843505859375,-0.0225830078125,0.635986328125,0.30499267578125,-6472,6170,554,-28,-22,-163
27250104,0.71533203125,-0.03564453125,0.63287353515625,0.29388427734375,-6429,5887,527,-28,-24,-161
27260086,0.72210693359375,-0.048583984375,0.62945556640625,0.28271484375,-6403,5592,509,-28,-25,-160
27270068,0.7286376953125,-0.061279296875,0.62567138671875,0.27154541015625,-6357,5280,514,-27,-27,-159
27280053,0.735107421875,-0.073974609375,0.62158203125,0.26019287109375,-6287,4947,531,-26,-28,-160
27290035,0.741455078125,-0.08660888671875,0.61712646484375,0.24859619140625,-6218,4625,558,-26,-29,-161
27300017,0.7476806640625,-0.09906005859375,0.6123046875,0.23687744140625,-6170,4298,591,-25,-31,-160
27310000,0.753662109375,-0.11114501953125,0.60723876953125,0.225341796875,-6114,3975,637,-24,-32,-156
27319988,0.7593994140625,-0.12274169921875,0.6019287109375,0.21417236328125,-6040,3647,684,-23,-33,-150
27329966,0.7647705078125,-0.1336669921875,0.59649658203125,0.20355224609375,-5932,3338,730,-23,-34,-142
27339948,0.76971435546875,-0.1439208984375,0.5909423828125,0.193603515625,-5846,3047,796,-21,-33,-134
27349931,0.7744140625,-0.153564453125,0.58544921875,0.18414306640625,-5756,2784,874,-21,-33,-128
27359915,0.77874755859375,-0.16278076171875,0.57989501953125,0.17510986328125,-5661,2515,935,-20,-33,-122
27369897,0.78289794921875,-0.17181396484375,0.5743408203125,0.166259765625,-5527,2246,1005,-20,-32,-121
27379881,0.786865234375,-0.180908203125,0.56866455078125,0.15716552734375,-5400,1989,1076,-20,-31,-123
27389863,0.7906494140625,-0.190185546875,0.5628662109375,0.14764404296875,-5275,1735,1142,-20,-30,-126
27399847,0.794189453125,-0.1995849609375,0.5570068359375,0.137939453125,-5164,1521,1206,-20,-29,-126
27409829,0.7974853515625,-0.20867919921875,0.55133056640625,0.12841796875,-5090,1325,1274,-19,-27,-123
27419813,0.80035400390625,-0.21759033203125,0.545654296875,0.11920166015625,-5004,1115,1352,-20,-25,-119
27429794,0.802978515625,-0.226318359375,0.5401611328125,0.110107421875,-4898,903,1424,-20,-23,-117
27439784,0.80523681640625,-0.23516845703125,0.5347900390625,0.10101318359375,-4801,705,1493,-21,-21,-117
27449766,0.8072509765625,-0.24395751953125,0.52947998046875,0.09185791015625,-4723,518,1569,-21,-18,-117
27459751,0.80889892578125,-0.2528076171875,0.52423095703125,0.08258056640625,-4646,329,1634,-22,-16,-117
27469732,0.810302734375,-0.26171875,0.5191650390625,0.07305908203125,-4549,178,1700,-22,-13,-119
27479709,0.81134033203125,-0.27093505859375,0.51409912109375,0.063232421875,-4450,37,1747,-23,-10,-122
27489693,0.81195068359375,-0.2803955078125,0.5091552734375,0.052978515625,-4326,-76,1804,-24,-6,-126
27499676,0.81219482421875,-0.2901611328125,0.5042724609375,0.04229736328125,-4194,-207,1828,-25,-3,-130
27509661,0.81201171875,-0.30047607421875,0.4993896484375,0.03076171875,-4042,-385,1845,-27,1,-137
27519639,0.811279296875,-0.3114013671875,0.494384765625,0.0184326171875,-3869,-606,1885,-28,5,-145
27529623,0.81005859375,-0.32281494140625,0.4893798828125,0.00537109375,-3717,-918,1912,-29,10,-149
27539605,0.80828857421875,-0.33441162109375,0.4844970703125,-0.008056640625,-3557,-1277,1918,-31,13,-150
27549589,0.80596923828125,-0.345947265625,0.4798583984375,-0.021484375,-3417,-1716,1932,-31,17,-146
27559571,0.80322265625,-0.35723876953125,0.47540283203125,-0.03472900390625,-3286,-2233,1951,-30,20,-141
27569554,0.80010986328125,-0.36798095703125,0.47125244140625,-0.04754638671875,-3162,-2798,1990,-29,22,-134
27579535,0.79681396484375,-0.37811279296875,0.46734619140625,-0.05987548828125,-3052,-3397,2044,-27,23,-125
27589519,0.79345703125,-0.38739013671875,0.4638671875,-0.0714111328125,-2937,-3952,2095,-25,24,-114
27599503,0.79010009765625,-0.39569091796875,0.4608154296875,-0.08209228515625,-2832,-4498,2137,-22,25,-102
27609484,0.78692626953125,-0.4029541015625,0.4581298828125,-0.0919189453125,-2723,-4984,2176,-18,25,-90
27619468,0.783935546875,-0.4091796875,0.45587158203125,-0.10089111328125,-2608,-5399,2217,-14,24,-79
27629451,0.78118896484375,-0.41436767578125,0.45391845703125,-0.109130859375,-2497,-5744,2243,-10,24,-70
27639430,0.77874755859375,-0.4188232421875,0.4521484375,-0.116943359375,-2388,-6008,2266,-7,23,-64
27649422,0.7764892578125,-0.42266845703125,0.450439453125,-0.12451171875,-2287,-6204,2283,-3,23,-60
27659407,0.77435302734375,-0.42608642578125,0.44873046875,-0.132080078125,-2196,-6355,2297,0,23,-60
27669381,0.77227783203125,-0.4293212890625,0.44683837890625,-0.139892578125,-2124,-6444,2324,2,23,-62
27679363,0.77020263671875,-0.43243408203125,0.44476318359375,-0.1480712890625,-2072,-6505,2345,4,23,-65
27689350,0.76812744140625,-0.4354248046875,0.44256591796875,-0.15631103515625,-2039,-6565,2375,5,22,-65
27699329,0.76611328125,-0.43817138671875,0.4404296875,-0.1644287109375,-2033,-6604,2388,6,22,-63
27709313,0.76416015625,-0.44061279296875,0.4384765625,-0.17205810546875,-2047,-6673,2385,6,21,-58
27719295,0.76226806640625,-0.44268798828125,0.4368896484375,-0.1790771484375,-2076,-6740,2387,6,22,-52
27729277,0.760498046875,-0.44439697265625,0.43548583984375,-0.18560791015625,-2126,-6777,2409,5,21,-48
27739259,0.7587890625,-0.4459228515625,0.434326171875,-0.191650390625,-2207,-6820,2422,6,21,-44
27749239,0.7572021484375,-0.4471435546875,0.43341064453125,-0.1971435546875,-2274,-6833,2419,4,20,-38
27759231,0.75567626953125,-0.44805908203125,0.432861328125,-0.20184326171875,-2355,-6842,2410,4,19,-30
27769217,0.75445556640625,-0.448486328125,0.43292236328125,-0.2054443359375,-2452,-6818,2396,3,19,-20
27779197,0.75335693359375,-0.44842529296875,0.43365478515625,-0.20794677734375,-2559,-6780,2367,1,18,-9
27789188,0.75250244140625,-0.44805908203125,0.4349365234375,-0.20928955078125,-2661,-6749,2324,-1,18,0
27799166,0.75177001953125,-0.44744873046875,0.4365234375,-0.2099609375,-2748,-6709,2296,-2,17,6
27809146,0.75103759765625,-0.44671630859375,0.4383544921875,-0.21014404296875,-2846,-6634,2253,-3,16,9
27819122,0.7503662109375,-0.44598388671875,0.44036865234375,-0.20989990234375,-2944,-6559,2204,-5,16,12
27829106,0.74969482421875,-0.44525146484375,0.442626953125,-0.20916748046875,-3058,-6476,2142,-7,16,15
27839087,0.74896240234375,-0.44451904296875,0.445068359375,-0.20806884765625,-3126,-6406,2075,-9,15,19
27849071,0.748291015625,-0.443603515625,0.44793701171875,-0.20635986328125,-3213,-6331,2009,-10,15,24
27859054,0.74774169921875,-0.4425048828125,0.45111083984375,-0.20379638671875,-3285,-6278,1938,-12,14,32
27869036,0.747314453125,-0.4410400390625,0.45477294921875,-0.200439453125,-3332,-6217,1870,-13,14,41
27879020,0.74700927734375,-0.439208984375,0.4588623046875,-0.19610595703125,-3343,-6187,1802,-14,14,51
27889004,0.74688720703125,-0.43695068359375,0.4635009765625,-0.1907958984375,-3321,-6148,1754,-15,13,61
27898994,0.74700927734375,-0.43408203125,0.46844482421875,-0.18450927734375,-3286,-6099,1714,-15,12,71
27908978,0.74725341796875,-0.430908203125,0.47369384765625,-0.17755126953125,-3199,-6012,1669,-16,12,78
27918953,0.74755859375,-0.42755126953125,0.47894287109375,-0.170166015625,-3084,-5885,1613,-16,10,81
27928937,0.74786376953125,-0.424072265625,0.48419189453125,-0.16253662109375,-2980,-5716,1574,-17,9,82
27938924,0.7481689453125,-0.420654296875,0.48919677734375,-0.15472412109375,-2884,-5515,1548,-17,8,82
27948906,0.74853515625,-0.417236328125,0.4940185546875,-0.14691162109375,-2793,-5320,1526,-17,6,82
27958888,0.74884033203125,-0.41387939453125,0.49847412109375,-0.13909912109375,-2693,-5142,1510,-17,4,81
27968871,0.74932861328125,-0.410400390625,0.50286865234375,-0.1309814453125,-2649,-4952,1485,-17,2,84
27978852,0.75,-0.40655517578125,0.50714111328125,-0.1224365234375,-2609,-4787,1453,-16,0,88
27988835,0.75079345703125,-0.40228271484375,0.511474609375,-0.11328125,-2575,-4609,1429,-15,-2,94
27998815,0.75177001953125,-0.39739990234375,0.51593017578125,-0.1033935546875,-2553,-4400,1386,-14,-4,102
28008799,0.75286865234375,-0.39190673828125,0.5205078125,-0.0926513671875,-2520,-4170,1315,-13,-6,111
28018784,0.75408935546875,-0.38555908203125,0.52545166015625,-0.08087158203125,-2475,-3917,1252,-12,-7,122
28031995,0.75531005859375,-0.3785400390625,0.5306396484375,-0.068115234375,-2432,-3628,1161,-12,-8,131
28038751,0.75640869140625,-0.3707275390625,0.5361328125,-0.0543212890625,-2416,-3344,1088,-13,-9,141
28048735,0.75732421875,-0.36224365234375,0.5418701171875,-0.03961181640625,-2419,-3076,1011,-13,-9,150
28058710,0.7579345703125,-0.3531494140625,0.5478515625,-0.024169921875,-2451,-2831,939,-13,-8,157
28068693,0.75830078125,-0.343505859375,0.553955078125,-0.0081787109375,-2510,-2619,896,-13,-7,163
28078677,0.75823974609375,-0.33331298828125,0.5601806640625,0.00836181640625,-2591,-2402,852,-13,-6,168
28088660,0.7578125,-0.32269287109375,0.56646728515625,0.025146484375,-2682,-2177,802,-13,-5,172
28098642,0.7569580078125,-0.3116455078125,0.57275390625,0.04229736328125,-2802,-1956,776,-13,-4,174
28108624,0.75567626953125,-0.30035400390625,0.57891845703125,0.05938720703125,-2948,-1769,741,-12,-3,175
28118608,0.75396728515625,-0.288818359375,0.5849609375,0.07635498046875,-3144,-1614,726,-11,-2,174
28128591,0.751953125,-0.277099609375,0.59075927734375,0.093017578125,-3341,-1405,736,-9,-1,172
28138579,0.74957275390625,-0.26513671875,0.59649658203125,0.10943603515625,-3551,-1150,692,-7,0,172
28148558,0.74664306640625,-0.2525634765625,0.602294921875,0.12603759765625,-3807,-827,628,-6,2,177
28158542,0.74310302734375,-0.2391357421875,0.6082763671875,0.1431884765625,-4114,-461,550,-4,4,184
28168524,0.7388916015625,-0.2249755859375,0.61444091796875,0.16064453125,-4451,-129,488,-2,6,189
28178509,0.734130859375,-0.21044921875,0.62054443359375,0.1778564453125,-4799,225,451,0,8,187
28188488,0.72906494140625,-0.1959228515625,0.62628173828125,0.1942138671875,-5136,717,401,3,9,179
28198472,0.7236328125,-0.18157958984375,0.63189697265625,0.20965576171875,-5492,1270,268,6,11,172
28208456,0.71771240234375,-0.16717529296875,0.63751220703125,0.22454833984375,-5852,1897,121,7,13,169
28218435,0.711181640625,-0.15252685546875,0.64312744140625,0.2392578125,-6181,2505,6,8,15,169
28228426,0.7041015625,-0.1378173828125,0.648681640625,0.2537841796875,-6486,3070,-119,9,18,169
28238413,0.696533203125,-0.123291015625,0.65411376953125,0.26776123046875,-6813,3559,-226,9,21,164
28248395,0.68878173828125,-0.1094970703125,0.6593017578125,0.28082275390625,-7099,4003,-273,10,23,154
28258372,0.680908203125,-0.0965576171875,0.664306640625,0.29266357421875,-7423,4453,-367,11,25,143
28268355,0.6729736328125,-0.08428955078125,0.669189453125,0.303466796875,-7718,4794,-414,12,27,135
28278337,0.6650390625,-0.07269287109375,0.67388916015625,0.31341552734375,-7909,5036,-425,13,29,129
28288320,0.6572265625,-0.06170654296875,0.6783447265625,0.322509765625,-8061,5206,-430,14,30,120
28298304,0.64959716796875,-0.0516357421875,0.6826171875,0.33062744140625,-8217,5242,-409,15,30,111
28308285,0.64239501953125,-0.04241943359375,0.6865234375,0.33770751953125,-8304,5370,-381,15,29,101
28318268,0.6353759765625,-0.03350830078125,0.6903076171875,0.3443603515625,-8424,5528,-383,15,29,99
28328256,0.6280517578125,-0.024169921875,0.69384765625,0.351318359375,-8489,5674,-396,15,28,107
28338242,0.62017822265625,-0.01385498046875,0.697265625,0.35906982421875,-8457,5913,-447,15,28,118
28348224,0.611572265625,-0.00250244140625,0.70050048828125,0.36767578125,-8417,6076,-492,15,28,130
28358206,0.60260009765625,0.00927734375,0.703369140625,0.376708984375,-8319,6174,-489,14,27,135
28368194,0.59375,0.0206298828125,0.7060546875,0.38531494140625,-8207,6241,-491,14,28,128
28378179,0.58563232421875,0.030517578125,0.70843505859375,0.392578125,-8109,6200,-418,14,27,111
28388159,0.57855224609375,0.038818359375,0.71063232421875,0.3983154296875,-7990,6332,-389,15,25,91
28398130,0.57208251953125,0.046142578125,0.7127685546875,0.403076171875,-7955,6596,-476,15,24,81
28408114,0.5655517578125,0.0535888671875,0.71478271484375,0.40777587890625,-7932,6937,-558,15,22,84
28418096,0.558349609375,0.06201171875,0.71661376953125,0.41326904296875,-7917,7389,-714,14,23,96
28428078,0.55029296875,0.0716552734375,0.71820068359375,0.41973876953125,-7924,7712,-834,13,22,111
28438061,0.5418701171875,0.081787109375,0.7193603515625,0.42669677734375,-7877,7879,-855,12,22,117
28448051,0.53387451171875,0.09136962890625,0.72039794921875,0.43310546875,-7816,7923,-844,12,21,107
28458028,0.527099609375,0.09912109375,0.72125244140625,0.43817138671875,-7726,7824,-771,12,19,85
28468010,0.52203369140625,0.1046142578125,0.72222900390625,0.44140625,-7605,7788,-722,12,16,59
28477996,0.5181884765625,0.10845947265625,0.72320556640625,0.443359375,-7561,7911,-782,11,14,42
28487982,0.5146484375,0.1121826171875,0.72412109375,0.445068359375,-7555,8152,-876,10,11,43
28497958,0.5103759765625,0.11712646484375,0.72467041015625,0.44781494140625,-7544,8499,-1038,9,10,60
28507941,0.50469970703125,0.12420654296875,0.72479248046875,0.4521484375,-7518,8840,-1197,7,10,85
28517924,0.4979248046875,0.13299560546875,0.7242431640625,0.45794677734375,-7439,9018,-1270,4,10,105
28527908,0.4908447265625,0.1422119140625,0.72332763671875,0.46429443359375,-7317,8949,-1243,2,9,108
28537890,0.48468017578125,0.15020751953125,0.7222900390625,0.4698486328125,-7161,8690,-1094,2,8,92
28547878,0.4803466796875,0.15582275390625,0.72137451171875,0.47381591796875,-6973,8248,-846,2,6,64
28557854,0.478271484375,0.15863037109375,0.72088623046875,0.4757080078125,-6780,7746,-611,3,3,31
28567838,0.47802734375,0.15936279296875,0.72076416015625,0.47589111328125,-6586,7397,-470,4,-1,8
28577816,0.478515625,0.15948486328125,0.72076416015625,0.47540283203125,-6436,7237,-464,4,-3,2
28587798,0.47845458984375,0.1605224609375,0.7205810546875,0.47540283203125,-6277,7242,-524,4,-5,15
28597784,0.47705078125,0.1636962890625,0.71990966796875,0.47674560546875,-6123,7347,-629,3,-5,40
28607772,0.47406005859375,0.16925048828125,0.7186279296875,0.47967529296875,-5990,7472,-709,2,-5,67
28617754,0.4696044921875,0.1767578125,0.716796875,0.48406982421875,-5846,7565,-742,2,-5,88
28627738,0.4644775390625,0.18536376953125,0.7144775390625,0.4891357421875,-5688,7639,-699,2,-5,99
28637713,0.459228515625,0.1942138671875,0.7120361328125,0.4942626953125,-5544,7768,-658,2,-6,98
28647696,0.454345703125,0.20257568359375,0.7095947265625,0.4989013671875,-5448,7977,-658,3,-7,91
28657679,0.44989013671875,0.2103271484375,0.707275390625,0.5030517578125,-5394,8306,-685,3,-7,84
28667663,0.44561767578125,0.21771240234375,0.70489501953125,0.5069580078125,-5384,8728,-746,2,-8,81
28677645,0.44140625,0.22491455078125,0.7025146484375,0.51080322265625,-5381,9166,-822,1,-8,80
28687628,0.43731689453125,0.2318115234375,0.7000732421875,0.51458740234375,-5386,9546,-872,0,-7,78
28697610,0.4334716796875,0.23828125,0.6976318359375,0.51824951171875,-5434,9896,-894,-2,-7,74
28707590,0.4300537109375,0.24395751953125,0.69525146484375,0.52154541015625,-5489,10145,-873,-2,-6,66
28717573,0.4273681640625,0.248779296875,0.69317626953125,0.5242919921875,-5537,10305,-819,-2,-7,56
28727555,0.425537109375,0.25238037109375,0.69146728515625,0.52630615234375,-5601,10374,-770,-1,-6,43
28737542,0.42462158203125,0.25482177734375,0.69024658203125,0.5274658203125,-5650,10380,-712,0,-7,29
28747522,0.42449951171875,0.25616455078125,0.68951416015625,0.52777099609375,-5711,10325,-665,1,-6,16
28757506,0.425048828125,0.256591796875,0.6893310546875,0.5274658203125,-5767,10240,-608,3,-6,6
28767489,0.4261474609375,0.25628662109375,0.689453125,0.52655029296875,-5794,10105,-515,4,-5,-3
28777466,0.42767333984375,0.2552490234375,0.68994140625,0.525146484375,-5819,9947,-413,6,-4,-12
28787450,0.42974853515625,0.25347900390625,0.69091796875,0.5230712890625,-5836,9795,-317,8,-4,-22
28797431,0.432373046875,0.25079345703125,0.69232177734375,0.52032470703125,-5867,9664,-221,10,-2,-32
28807423,0.4354248046875,0.247314453125,0.694091796875,0.51708984375,-5911,9547,-126,11,-1,-41
28817409,0.4388427734375,0.24310302734375,0.6961669921875,0.51336669921875,-5948,9463,-34,12,1,-48
28827391,0.44232177734375,0.2384033203125,0.698486328125,0.50946044921875,-6026,9430,22,12,3,-53
28837367,0.44573974609375,0.23333740234375,0.700927734375,0.50543212890625,-6118,9489,46,12,5,-55
28847351,0.44891357421875,0.22808837890625,0.70343017578125,0.50152587890625,-6216,9626,39,11,8,-55
28857333,0.45172119140625,0.22265625,0.7059326171875,0.49786376953125,-6313,9865,-4,9,11,-55
28867315,0.454345703125,0.21685791015625,0.70849609375,0.49444580078125,-6447,10142,-75,6,14,-57
28877298,0.45684814453125,0.21044921875,0.71112060546875,0.4910888671875,-6573,10423,-166,4,18,-61
28887282,0.45947265625,0.203125,0.7138671875,0.48773193359375,-6709,10679,-268,0,21,-69
28897268,0.46240234375,0.194580078125,0.71685791015625,0.484130859375,-6846,10891,-378,-2,25,-80
28907244,0.46563720703125,0.18463134765625,0.7200927734375,0.48004150390625,-7016,11076,-517,-6,28,-93
28917238,0.4693603515625,0.17315673828125,0.7235107421875,0.47552490234375,-7210,11192,-645,-9,31,-105
28927221,0.4735107421875,0.16021728515625,0.72711181640625,0.47039794921875,-7448,11197,-771,-11,34,-119
28937206,0.47821044921875,0.14581298828125,0.73089599609375,0.4644775390625,-7688,11080,-873,-12,36,-133
28947192,0.48345947265625,0.1298828125,0.73480224609375,0.45758056640625,-7927,10849,-946,-12,37,-147
28957175,0.48919677734375,0.1129150390625,0.73870849609375,0.44964599609375,-8190,10503,-1009,-10,37,-159
28967159,0.4951171875,0.09521484375,0.74249267578125,0.4407958984375,-8446,10114,-1100,-8,37,-166
28977130,0.50115966796875,0.07733154296875,0.7462158203125,0.43121337890625,-8666,9675,-1192,-5,35,-170
28987113,0.5072021484375,0.0594482421875,0.7496337890625,0.4208984375,-8825,9222,-1295,-2,34,-173
28997099,0.51318359375,0.04180908203125,0.75286865234375,0.409912109375,-8938,8800,-1391,2,32,-175
29007079,0.51910400390625,0.02435302734375,0.7557373046875,0.3983154296875,-9011,8424,-1489,6,29,-178
29017062,0.52508544921875,0.00732421875,0.75823974609375,0.38616943359375,-9036,8077,-1574,10,25,-177
29027051,0.53106689453125,-0.0091552734375,0.76043701171875,0.37353515625,-8999,7727,-1646,15,22,-178
29037030,0.53717041015625,-0.02520751953125,0.7620849609375,0.36041259765625,-8919,7365,-1705,18,17,-179
29047011,0.54351806640625,-0.0408935546875,0.76324462890625,0.3468017578125,-8775,7022,-1741,22,12,-181
29056997,0.550048828125,-0.05615234375,0.763916015625,0.33270263671875,-8610,6757,-1820,25,8,-182
29066984,0.55657958984375,-0.0706787109375,0.76397705078125,0.3184814453125,-8427,6517,-1874,28,2,-180
29076959,0.56304931640625,-0.08428955078125,0.76361083984375,0.30438232421875,-8230,6275,-1932,30,-2,-174
29086942,0.5694580078125,-0.096923828125,0.76275634765625,0.29058837890625,-8021,6016,-1946,31,-7,-168
29096923,0.5758056640625,-0.10882568359375,0.76141357421875,0.2769775390625,-7818,5698,-1962,33,-10,-163
29106907,0.582275390625,-0.12042236328125,0.7596435546875,0.26324462890625,-7615,5346,-1948,34,-14,-163
29116890,0.5889892578125,-0.1318359375,0.75726318359375,0.24932861328125,-7407,5032,-1943,35,-18,-165
29126872,0.595703125,-0.1431884765625,0.75445556640625,0.23516845703125,-7236,4793,-1962,36,-21,-166
29136855,0.60235595703125,-0.154296875,0.75128173828125,0.2210693359375,-7077,4589,-2008,36,-24,-165
29146839,0.60882568359375,-0.164794921875,0.74774169921875,0.20733642578125,-6939,4453,-2082,35,-25,-160
29156821,0.61474609375,-0.17462158203125,0.74420166015625,0.19427490234375,-6785,4354,-2189,35,-25,-152
29166802,0.62017822265625,-0.18353271484375,0.7406005859375,0.18206787109375,-6672,4280,-2302,33,-25,-142
29176784,0.62493896484375,-0.19171142578125,0.7371826171875,0.170654296875,-6546,4174,-2421,31,-24,-134
29186774,0.62933349609375,-0.19976806640625,0.7337646484375,0.1597900390625,-6465,3995,-2460,28,-22,-130
29196758,0.6334228515625,-0.20819091796875,0.73016357421875,0.14886474609375,-6389,3706,-2451,26,-20,-133
29206740,0.637451171875,-0.2176513671875,0.7261962890625,0.13720703125,-6317,3273,-2367,24,-19,-144
29216716,0.64154052734375,-0.22845458984375,0.72161865234375,0.12420654296875,-6246,2728,-2247,24,-17,-158
29226700,0.64556884765625,-0.24066162109375,0.71636962890625,0.10986328125,-6158,2100,-2109,25,-16,-172
29236682,0.64959716796875,-0.253662109375,0.71044921875,0.09423828125,-6049,1409,-1950,26,-15,-180
29246665,0.6533203125,-0.2667236328125,0.70416259765625,0.0780029296875,-5936,752,-1789,29,-14,-181
29256648,0.65673828125,-0.2791748046875,0.69775390625,0.06182861328125,-5815,186,-1641,31,-13,-174
29266636,0.65985107421875,-0.290283203125,0.69146728515625,0.0462646484375,-5685,-273,-1510,34,-12,-162
29276614,0.66259765625,-0.29998779296875,0.685546875,0.03143310546875,-5570,-637,-1401,37,-11,-149
29286595,0.6650390625,-0.308349609375,0.67987060546875,0.01727294921875,-5453,-911,-1330,39,-9,-138
29296580,0.66717529296875,-0.31573486328125,0.67462158203125,0.00372314453125,-5306,-1093,-1298,41,-7,-130
29306561,0.66900634765625,-0.3226318359375,0.66949462890625,-0.00958251953125,-5160,-1202,-1253,42,-5,-127
29316544,0.67047119140625,-0.329345703125,0.66436767578125,-0.0230712890625,-5018,-1270,-1228,42,-3,-129
29326528,0.6715087890625,-0.33636474609375,0.65911865234375,-0.03692626953125,-4896,-1341,-1190,42,-1,-134
29336513,0.6722412109375,-0.3438720703125,0.65362548828125,-0.05145263671875,-4763,-1449,-1137,42,2,-141
29346495,0.6724853515625,-0.351806640625,0.647705078125,-0.06658935546875,-4633,-1595,-1051,41,4,-148
29356477,0.67236328125,-0.36004638671875,0.6414794921875,-0.082275390625,-4516,-1774,-952,41,6,-152
29366460,0.67193603515625,-0.36834716796875,0.63494873046875,-0.09814453125,-4388,-2010,-816,41,7,-153
29376449,0.67132568359375,-0.3763427734375,0.6282958984375,-0.11383056640625,-4255,-2275,-658,41,7,-149
29386432,0.67059326171875,-0.38360595703125,0.62164306640625,-0.12896728515625,-4091,-2539,-500,41,7,-141
29396416,0.669921875,-0.3900146484375,0.61529541015625,-0.14312744140625,-3933,-2778,-339,40,7,-128
29406400,0.66937255859375,-0.39532470703125,0.60931396484375,-0.15618896484375,-3750,-2987,-187,40,6,-115
29416374,0.66900634765625,-0.399658203125,0.60369873046875,-0.16802978515625,-3560,-3175,-39,39,4,-102
29426357,0.6688232421875,-0.40325927734375,0.598388671875,-0.17877197265625,-3353,-3327,138,38,3,-91
29436341,0.6688232421875,-0.40631103515625,0.59320068359375,-0.18865966796875,-3140,-3454,292,36,1,-83
29446325,0.66900634765625,-0.4090576171875,0.58819580078125,-0.19769287109375,-2918,-3555,449,34,-1,-76
29456304,0.66937255859375,-0.41156005859375,0.58319091796875,-0.20599365234375,-2691,-3642,592,31,-4,-70
29466293,0.66986083984375,-0.413818359375,0.57830810546875,-0.21337890625,-2473,-3746,765,28,-7,-62
29476270,0.67071533203125,-0.415771484375,0.57354736328125,-0.21978759765625,-2291,-3868,955,25,-10,-53
29486256,0.67181396484375,-0.41741943359375,0.56903076171875,-0.2249755859375,-2133,-3995,1142,21,-13,-44
29496242,0.67327880859375,-0.4188232421875,0.5645751953125,-0.22906494140625,-1976,-4134,1322,17,-17,-35
29506224,0.675048828125,-0.41998291015625,0.5604248046875,-0.23187255859375,-1809,-4292,1498,13,-21,-24
29516206,0.6771240234375,-0.42083740234375,0.55670166015625,-0.2333984375,-1623,-4426,1634,9,-24,-11
29526190,0.67950439453125,-0.421142578125,0.55352783203125,-0.2332763671875,-1456,-4524,1743,5,-26,3
29536175,0.6822509765625,-0.42083740234375,0.55120849609375,-0.23150634765625,-1305,-4593,1806,0,-27,19
29546157,0.68511962890625,-0.41986083984375,0.54974365234375,-0.22808837890625,-1189,-4616,1814,-4,-27,35
29556128,0.68804931640625,-0.41839599609375,0.5491943359375,-0.2232666015625,-1111,-4617,1781,-9,-27,47
29566110,0.69085693359375,-0.4166259765625,0.5494384765625,-0.21734619140625,-1096,-4600,1700,-13,-26,56
29576092,0.6934814453125,-0.4146728515625,0.55023193359375,-0.21051025390625,-1115,-4558,1601,-17,-24,62
29586076,0.69580078125,-0.41259765625,0.5516357421875,-0.20306396484375,-1164,-4544,1520,-21,-22,68
29596059,0.6978759765625,-0.410400390625,0.55364990234375,-0.1949462890625,-1225,-4516,1415,-24,-18,74
29606042,0.6995849609375,-0.4078369140625,0.55633544921875,-0.186279296875,-1320,-4488,1312,-27,-15,80
29616024,0.70098876953125,-0.40496826171875,0.55975341796875,-0.1768798828125,-1434,-4436,1202,-30,-12,88
29626008,0.7020263671875,-0.4017333984375,0.56378173828125,-0.1668701171875,-1529,-4379,1090,-32,-8,94
29635996,0.7027587890625,-0.39813232421875,0.5684814453125,-0.15643310546875,-1633,-4317,1001,-34,-4,100
29645986,0.70306396484375,-0.39404296875,0.57373046875,-0.1455078125,-1760,-4243,902,-35,0,105
29655960,0.70306396484375,-0.38946533203125,0.57965087890625,-0.13409423828125,-1903,-4141,784,-36,4,113
29665942,0.7027587890625,-0.3841552734375,0.586181640625,-0.12200927734375,-2059,-4024,693,-36,8,121
29675924,0.70208740234375,-0.378173828125,0.59332275390625,-0.10943603515625,-2206,-3932,600,-36,12,128
29685908,0.70111083984375,-0.37158203125,0.600830078125,-0.0966796875,-2381,-3842,517,-35,16,132
29695890,0.69976806640625,-0.36468505859375,0.6083984375,-0.08404541015625,-2564,-3756,463,-34,18,132
29705878,0.6982421875,-0.357666015625,0.61590576171875,-0.07183837890625,-2757,-3604,424,-31,20,128
29715856,0.69647216796875,-0.35040283203125,0.62322998046875,-0.05999755859375,-2986,-3401,352,-28,21,126
29725839,0.69464111328125,-0.34271240234375,0.630615234375,-0.048095703125,-3221,-3166,291,-27,22,128
29735821,0.692626953125,-0.33441162109375,0.63800048828125,-0.0360107421875,-3446,-2915,224,-24,22,133
29745804,0.69049072265625,-0.32537841796875,0.64556884765625,-0.02349853515625,-3671,-2666,122,-23,22,138
29755786,0.68817138671875,-0.3157958984375,0.653076171875,-0.01055908203125,-3870,-2434,36,-21,22,143
29765767,0.68572998046875,-0.30584716796875,0.660400390625,0.0023193359375,-4076,-2245,-16,-20,21,142
29775759,0.683349609375,-0.2960205078125,0.66717529296875,0.01483154296875,-4324,-1990,-70,-18,19,137
29785744,0.680908203125,-0.28607177734375,0.673583984375,0.0272216796875,-4572,-1676,-154,-17,17,135
29795720,0.67852783203125,-0.27569580078125,0.6796875,0.03985595703125,-4780,-1311,-235,-16,14,138
29805703,0.67596435546875,-0.2646484375,0.6856689453125,0.05322265625,-5004,-849,-398,-17,12,146
29815687,0.6729736328125,-0.2523193359375,0.69189453125,0.06793212890625,-5218,-402,-586,-17,11,160
29825668,0.66973876953125,-0.23883056640625,0.69805908203125,0.0838623046875,-5434,-29,-757,-19,9,173
29835652,0.66595458984375,-0.22467041015625,0.70416259765625,0.10052490234375,-5685,328,-949,-20,9,179
29845636,0.661865234375,-0.21014404296875,0.70989990234375,0.117431640625,-5937,682,-1049,-20,8,180
29855618,0.65765380859375,-0.19586181640625,0.71490478515625,0.13397216796875,-6224,1054,-1187,-21,6,174
29865600,0.6531982421875,-0.18206787109375,0.71942138671875,0.1500244140625,-6532,1448,-1387,-21,4,167
29875584,0.6488037109375,-0.16876220703125,0.7232666015625,0.16558837890625,-6833,1798,-1486,-22,2,161
29885566,0.64434814453125,-0.1556396484375,0.7265625,0.1807861328125,-7194,2237,-1673,-22,0,157
29895550,0.63946533203125,-0.14208984375,0.72955322265625,0.1962890625,-7581,2698,-1913,-22,-2,163
29905530,0.63421630859375,-0.12786865234375,0.7322998046875,0.2122802734375,-7928,3075,-2039,-22,-3,170
29915514,0.628662109375,-0.1131591796875,0.73468017578125,0.22833251953125,-8265,3421,-2165,-22,-3,174
29925497,0.62298583984375,-0.098388671875,0.736572265625,0.24407958984375,-8545,3662,-2168,-21,-5,172
29935478,0.61767578125,-0.08428955078125,0.73779296875,0.2587890625,-8737,3843,-2079,-18,-6,161
29945462,0.61279296875,-0.0712890625,0.7384033203125,0.27203369140625,-8917,4092,-2027,-16,-8,147
29955449,0.60833740234375,-0.0589599609375,0.7386474609375,0.28424072265625,-9066,4338,-1942,-14,-11,138
29965434,0.60406494140625,-0.04681396484375,0.73846435546875,0.2957763671875,-9157,4642,-1899,-13,-12,134
29975417,0.59954833984375,-0.03436279296875,0.73809814453125,0.30731201171875,-9240,4983,-1876,-12,-13,138
29985401,0.5947265625,-0.02130126953125,0.737548828125,0.31903076171875,-9265,5215,-1765,-10,-13,145
29995376,0.5897216796875,-0.0078125,0.73663330078125,0.33074951171875,-9246,5415,-1644,-9,-13,148
30005359,0.58453369140625,0.005615234375,0.735595703125,0.3421630859375,-9208,5562,-1516,-7,-13,146
30015343,0.57952880859375,0.0186767578125,0.73431396484375,0.35284423828125,-9099,5639,-1312,-5,-13,140
30025325,0.57489013671875,0.03094482421875,0.73284912109375,0.362548828125,-8983,5754,-1138,-3,-13,130
30035310,0.570556640625,0.04248046875,0.7313232421875,0.37115478515625,-8839,5824,-965,0,-13,120
30045293,0.56658935546875,0.053466796875,0.72967529296875,0.37890625,-8689,5946,-820,3,-14,114
30055273,0.5625,0.064453125,0.7281494140625,0.38623046875,-8525,6153,-735,5,-14,113
30065256,0.55792236328125,0.075927734375,0.72650146484375,0.3936767578125,-8345,6366,-669,6,-12,119
30075244,0.55279541015625,0.08807373046875,0.724853515625,0.40142822265625,-8176,6656,-646,8,-11,126
30085227,0.54693603515625,0.1007080078125,0.72320556640625,0.40936279296875,-8005,6910,-625,9,-9,132
30095210,0.54083251953125,0.11334228515625,0.721435546875,0.417236328125,-7775,7066,-587,10,-7,131
30105189,0.534912109375,0.125244140625,0.7197265625,0.42431640625,-7522,7151,-550,11,-6,120
30115181,0.529541015625,0.1357421875,0.7183837890625,0.43011474609375,-7276,7138,-518,13,-5,104
30125164,0.52490234375,0.14471435546875,0.71728515625,0.43463134765625,-7035,7128,-468,15,-3,87
30135140,0.5208740234375,0.1524658203125,0.716552734375,0.43798828125,-6862,7136,-466,17,-2,74
30145118,0.51708984375,0.15972900390625,0.716064453125,0.44073486328125,-6722,7175,-457,19,-2,70
30155100,0.51312255859375,0.167236328125,0.71563720703125,0.44329833984375,-6610,7319,-472,21,-2,73
30165084,0.50872802734375,0.17535400390625,0.71502685546875,0.4461669921875,-6523,7531,-519,22,-2,80
30175067,0.50372314453125,0.184326171875,0.7142333984375,0.449462890625,-6422,7803,-562,23,-2,89
30185051,0.498291015625,0.1939697265625,0.713134765625,0.45318603515625,-6301,8149,-672,22,-2,95
30195032,0.49249267578125,0.203857421875,0.7119140625,0.4571533203125,-6186,8544,-832,21,-2,98
30205016,0.486572265625,0.2135009765625,0.7105712890625,0.46112060546875,-6016,8905,-997,19,-1,95
30215002,0.48095703125,0.222412109375,0.70928955078125,0.46484375,-5854,9220,-1134,17,0,87
30224987,0.475830078125,0.23016357421875,0.70806884765625,0.4681396484375,-5756,9512,-1254,14,0,77
30234964,0.47119140625,0.2369384765625,0.7069091796875,0.47113037109375,-5719,9812,-1352,11,2,70
30244947,0.46661376953125,0.2432861328125,0.70574951171875,0.4742431640625,-5739,10095,-1442,8,3,70
30254929,0.4619140625,0.24957275390625,0.70428466796875,0.47772216796875,-5750,10318,-1503,6,4,74
30264914,0.4569091796875,0.25604248046875,0.70257568359375,0.48162841796875,-5716,10447,-1522,4,4,78
30274894,0.45208740234375,0.26226806640625,0.70068359375,0.485595703125,-5654,10454,-1491,2,5,76
30284879,0.44781494140625,0.26763916015625,0.69891357421875,0.48919677734375,-5546,10333,-1404,1,4,66
30294862,0.444580078125,0.27154541015625,0.69744873046875,0.49200439453125,-5399,10114,-1276,0,4,49
30304843,0.4427490234375,0.27374267578125,0.696533203125,0.49371337890625,-5239,9828,-1119,-1,3,28
30314823,0.442138671875,0.2744140625,0.6961669921875,0.49444580078125,-5086,9514,-984,-1,2,10
30324808,0.44232177734375,0.2740478515625,0.69610595703125,0.4945068359375,-4950,9257,-910,-1,1,1
30334791,0.4425048828125,0.273681640625,0.6961669921875,0.49444580078125,-4855,9088,-925,-1,1,2
30344770,0.44219970703125,0.27392578125,0.69598388671875,0.494873046875,-4772,8985,-981,-2,1,12
30354762,0.4410400390625,0.2752685546875,0.69537353515625,0.49603271484375,-4674,8913,-1020,-3,2,25
30364744,0.43914794921875,0.27740478515625,0.6943359375,0.4979248046875,-4583,8804,-993,-3,3,35
30374722,0.43701171875,0.27984619140625,0.693115234375,0.5001220703125,-4488,8659,-903,-4,3,38
30384704,0.43511962890625,0.2821044921875,0.69189453125,0.50225830078125,-4373,8502,-796,-3,3,34
30394688,0.4337158203125,0.28363037109375,0.69091796875,0.50390625,-4252,8336,-698,-3,2,24
30404669,0.43310546875,0.28424072265625,0.6903076171875,0.50494384765625,-4127,8181,-622,-3,2,12
30414653,0.43328857421875,0.283935546875,0.69012451171875,0.5052490234375,-4010,8046,-571,-2,1,0
30424636,0.43402099609375,0.28289794921875,0.6903076171875,0.50494384765625,-3881,7950,-563,-2,1,-9
30434614,0.43505859375,0.281494140625,0.690673828125,0.50439453125,-3769,7900,-594,-2,0,-13
30444596,0.43603515625,0.280029296875,0.69110107421875,0.50372314453125,-3691,7874,-646,-2,1,-13
30454580,0.43682861328125,0.27880859375,0.69146728515625,0.50323486328125,-3638,7863,-688,-2,1,-9
30464565,0.437255859375,0.278076171875,0.691650390625,0.5030517578125,-3594,7865,-715,-2,1,-3
30474552,0.437255859375,0.27789306640625,0.69158935546875,0.503173828125,-3567,7881,-729,-2,1,3
30484529,0.43695068359375,0.27813720703125,0.69134521484375,0.503662109375,-3532,7877,-713,-2,1,8
30494511,0.4365234375,0.278564453125,0.69097900390625,0.5042724609375,-3475,7889,-677,-2,1,9
30504493,0.43621826171875,0.279052734375,0.69061279296875,0.50482177734375,-3408,7908,-675,-2,0,8
30514479,0.43597412109375,0.27935791015625,0.69024658203125,0.5052490234375,-3340,7917,-681,-2,0,5
30524466,0.43603515625,0.27935791015625,0.6900634765625,0.5054931640625,-3278,7932,-713,-2,-1,2
30534449,0.436279296875,0.279052734375,0.68994140625,0.50555419921875,-3194,7954,-732,-2,-1,-3
30544429,0.436767578125,0.27850341796875,0.68994140625,0.5054931640625,-3125,7966,-773,-3,-1,-6
30554410,0.4373779296875,0.27777099609375,0.6900634765625,0.5052490234375,-3073,7961,-807,-3,-1,-8
30564394,0.4381103515625,0.27679443359375,0.69012451171875,0.5050048828125,-3048,7954,-821,-4,-1,-9
30574370,0.4388427734375,0.27593994140625,0.69012451171875,0.5048828125,-3026,7911,-812,-4,-1,-8
30584353,0.43951416015625,0.27520751953125,0.69000244140625,0.5048828125,-3016,7877,-808,-5,-1,-6
30594339,0.43994140625,0.27471923828125,0.68975830078125,0.50506591796875,-3011,7862,-789,-5,-2,-2
30604327,0.4403076171875,0.27459716796875,0.6893310546875,0.50543212890625,-2992,7855,-774,-5,-3,1
30614304,0.44049072265625,0.27484130859375,0.688720703125,0.5059814453125,-2970,7832,-774,-6,-3,5
30624293,0.44049072265625,0.2752685546875,0.68798828125,0.50665283203125,-2923,7820,-777,-6,-3,7
30634271,0.4404296875,0.27581787109375,0.68719482421875,0.50750732421875,-2860,7827,-792,-6,-4,8
30644256,0.44036865234375,0.27655029296875,0.686279296875,0.5084228515625,-2777,7841,-809,-7,-4,9
30654242,0.440185546875,0.27734375,0.685302734375,0.50946044921875,-2698,7869,-860,-8,-4,10
30664224,0.43994140625,0.2781982421875,0.684326171875,0.510498046875,-2645,7878,-901,-8,-4,11
30674207,0.439697265625,0.27911376953125,0.68328857421875,0.5115966796875,-2585,7865,-936,-8,-4,11
30684195,0.439453125,0.280029296875,0.6822509765625,0.5126953125,-2547,7822,-949,-8,-5,11
30694180,0.43927001953125,0.28082275390625,0.6812744140625,0.51373291015625,-2503,7753,-948,-8,-5,10
30704163,0.43927001953125,0.281494140625,0.6802978515625,0.5146484375,-2471,7688,-940,-8,-5,8
30714140,0.43939208984375,0.2821044921875,0.679443359375,0.515380859375,-2439,7624,-933,-7,-5,6
30724117,0.4395751953125,0.2825927734375,0.6787109375,0.51593017578125,-2421,7580,-931,-6,-6,5
30734099,0.4398193359375,0.2830810546875,0.677978515625,0.516357421875,-2409,7541,-908,-5,-6,4
30744085,0.4400634765625,0.28369140625,0.67730712890625,0.5167236328125,-2390,7497,-896,-4,-6,5
30754067,0.44024658203125,0.284423828125,0.6766357421875,0.51702880859375,-2385,7472,-879,-3,-7,6
30764053,0.44036865234375,0.285400390625,0.67596435546875,0.51727294921875,-2377,7457,-850,-2,-7,7
30774034,0.44049072265625,0.2864990234375,0.67523193359375,0.51751708984375,-2375,7454,-829,-1,-8,8
30784021,0.4405517578125,0.28778076171875,0.67449951171875,0.5177001953125,-2362,7449,-803,0,-9,9
30794002,0.44061279296875,0.28912353515625,0.673828125,0.517822265625,-2350,7450,-780,0,-9,9
30803990,0.440673828125,0.2906494140625,0.673095703125,0.51788330078125,-2353,7487,-778,2,-10,10
30813967,0.44061279296875,0.2923583984375,0.67236328125,0.51788330078125,-2345,7518,-787,2,-10,11
30823950,0.44049072265625,0.29412841796875,0.671630859375,0.51788330078125,-2332,7543,-774,3,-10,12
30833933,0.44036865234375,0.29608154296875,0.6708984375,0.51788330078125,-2313,7582,-780,3,-11,13
30843914,0.440185546875,0.29815673828125,0.67010498046875,0.51788330078125,-2290,7653,-784,4,-11,14
30853898,0.44000244140625,0.30035400390625,0.669189453125,0.5179443359375,-2272,7716,-765,3,-12,14
30863882,0.4398193359375,0.30255126953125,0.66827392578125,0.51800537109375,-2247,7789,-764,4,-13,15
30873865,0.43963623046875,0.3048095703125,0.6673583984375,0.51800537109375,-2223,7867,-755,4,-12,14
30883846,0.439453125,0.30706787109375,0.6663818359375,0.51806640625,-2180,7937,-767,3,-13,15
30893830,0.43927001953125,0.309326171875,0.6654052734375,0.5181884765625,-2153,7990,-787,3,-13,15
30903814,0.4390869140625,0.31158447265625,0.66436767578125,0.518310546875,-2135,8044,-807,2,-13,15
30913794,0.4388427734375,0.31390380859375,0.6632080078125,0.5185546875,-2096,8111,-826,1,-13,17
30923784,0.43853759765625,0.31622314453125,0.6619873046875,0.51898193359375,-2068,8161,-841,0,-13,18
30933769,0.438232421875,0.318603515625,0.66070556640625,0.51947021484375,-2023,8206,-848,0,-12,18
30943753,0.43792724609375,0.3209228515625,0.6593017578125,0.52008056640625,-1982,8237,-853,-2,-13,18
30953732,0.43768310546875,0.3231201171875,0.65789794921875,0.5206298828125,-1935,8258,-876,-2,-12,17
30963710,0.4375,0.3251953125,0.65655517578125,0.521240234375,-1890,8257,-885,-3,-12,16
30973692,0.43731689453125,0.32708740234375,0.6552734375,0.521728515625,-1847,8235,-913,-3,-11,14
30983675,0.437255859375,0.328857421875,0.65411376953125,0.522216796875,-1818,8191,-921,-3,-11,13
30993658,0.43731689453125,0.33038330078125,0.6529541015625,0.52264404296875,-1799,8136,-901,-3,-10,11
31003640,0.4373779296875,0.331787109375,0.65185546875,0.52301025390625,-1783,8083,-874,-3,-10,10
31013624,0.4375,0.33319091796875,0.65081787109375,0.52337646484375,-1769,8019,-823,-3,-10,10
31023606,0.4375,0.33447265625,0.64984130859375,0.52374267578125,-1755,7957,-740,-2,-9,11
31033590,0.43743896484375,0.33587646484375,0.64886474609375,0.524169921875,-1724,7873,-667,-1,-8,12
31043577,0.43707275390625,0.3372802734375,0.64794921875,0.52459716796875,-1689,7827,-583,0,-7,13
31053557,0.4365234375,0.33880615234375,0.647216796875,0.5250244140625,-1647,7771,-487,2,-5,14
31063542,0.43572998046875,0.34033203125,0.64654541015625,0.5255126953125,-1619,7746,-383,4,-3,14
31073520,0.434814453125,0.341796875,0.6461181640625,0.52587890625,-1590,7756,-289,5,-1,13
31083505,0.43377685546875,0.343017578125,0.6458740234375,0.5262451171875,-1567,7802,-211,7,0,11
31093486,0.4327392578125,0.343994140625,0.64593505859375,0.5263671875,-1558,7871,-138,8,2,8
31103471,0.43182373046875,0.3446044921875,0.646240234375,0.52630615234375,-1583,7952,-97,9,4,5
31113453,0.43096923828125,0.34490966796875,0.6468505859375,0.526123046875,-1614,8049,-57,9,5,2
31123431,0.43017578125,0.3448486328125,0.64764404296875,0.5257568359375,-1656,8158,-35,10,6,-1
31133418,0.42950439453125,0.34466552734375,0.6485595703125,0.525390625,-1688,8272,-35,10,7,-3
31143401,0.4288330078125,0.34423828125,0.64959716796875,0.52490234375,-1739,8376,-58,9,8,-4
31153377,0.42822265625,0.34375,0.65057373046875,0.52447509765625,-1800,8465,-101,8,7,-4
31163359,0.42767333984375,0.34320068359375,0.6514892578125,0.524169921875,-1842,8535,-137,7,8,-4
31173343,0.42718505859375,0.3426513671875,0.65234375,0.52386474609375,-1920,8569,-195,5,7,-3
31183324,0.4267578125,0.3421630859375,0.65301513671875,0.523681640625,-1988,8591,-238,4,6,-2
31193317,0.42645263671875,0.34185791015625,0.6534423828125,0.52362060546875,-2082,8594,-300,3,4,1
31203295,0.4261474609375,0.341796875,0.653564453125,0.52374267578125,-2169,8611,-347,1,2,4
31213275,0.42584228515625,0.34210205078125,0.6533203125,0.5240478515625,-2219,8606,-397,-1,0,7
31223260,0.42559814453125,0.34271240234375,0.65277099609375,0.5245361328125,-2249,8596,-442,-2,-3,10
31233237,0.425537109375,0.34344482421875,0.6519775390625,0.525146484375,-2267,8582,-463,-4,-5,11
31243234,0.42559814453125,0.3443603515625,0.65087890625,0.52587890625,-2246,8554,-488,-6,-7,12
