subject,Ian Lake
arm,right
label,1
hz,100.1715465253903
time,4.542208

timestamp_us,q0,q1,q2,q3,ax,ay,az,gx,gy,gz
132220057,0.66094970703125,-0.08465576171875,-0.69000244140625,-0.28271484375,7714,2444,275,4,-2,-4
132230037,0.66064453125,-0.08392333984375,-0.6903076171875,-0.28277587890625,7783,2441,244,4,-2,-6
132240023,0.6602783203125,-0.0830078125,-0.690673828125,-0.28302001953125,7854,2430,206,3,-2,-9
132250004,0.65985107421875,-0.08197021484375,-0.69097900390625,-0.2835693359375,7927,2418,173,3,-1,-11
132259991,0.65936279296875,-0.080810546875,-0.6912841796875,-0.28424072265625,7999,2398,137,2,-1,-13
132269980,0.65887451171875,-0.07958984375,-0.69158935546875,-0.28509521484375,8081,2377,104,1,0,-14
132279955,0.65838623046875,-0.0782470703125,-0.6917724609375,-0.2861328125,8138,2352,85,1,1,-16
132289939,0.657958984375,-0.076904296875,-0.69183349609375,-0.2872314453125,8174,2331,78,0,1,-16
132299920,0.65765380859375,-0.0755615234375,-0.69183349609375,-0.288330078125,8217,2310,80,0,3,-16
132309903,0.65740966796875,-0.0743408203125,-0.6917724609375,-0.28936767578125,8227,2304,91,0,3,-15
132319887,0.6573486328125,-0.0732421875,-0.69158935546875,-0.29022216796875,8245,2283,98,0,4,-12
132329872,0.65740966796875,-0.07232666015625,-0.69134521484375,-0.2908935546875,8241,2264,101,0,5,-10
132339854,0.65765380859375,-0.07171630859375,-0.6910400390625,-0.291259765625,8212,2247,112,0,5,-6
132349838,0.65802001953125,-0.0712890625,-0.690673828125,-0.29144287109375,8170,2232,123,0,5,-3
132359826,0.65850830078125,-0.0711669921875,-0.69024658203125,-0.291259765625,8102,2211,147,1,5,0
132369802,0.6591796875,-0.0711669921875,-0.6898193359375,-0.2908935546875,8019,2198,178,1,5,3
132379786,0.65985107421875,-0.07135009765625,-0.6893310546875,-0.29034423828125,7945,2182,198,2,6,4
132389766,0.66064453125,-0.07159423828125,-0.68890380859375,-0.28961181640625,7872,2161,221,2,5,6
132399758,0.66131591796875,-0.07177734375,-0.68853759765625,-0.288818359375,7797,2144,243,3,5,6
132409740,0.66204833984375,-0.07196044921875,-0.688232421875,-0.28802490234375,7739,2117,273,3,4,5
132419717,0.66259765625,-0.07196044921875,-0.68798828125,-0.2872314453125,7698,2110,296,4,3,3
132429700,0.6630859375,-0.07177734375,-0.68780517578125,-0.28656005859375,7662,2108,315,4,3,2
132439683,0.66351318359375,-0.07147216796875,-0.687744140625,-0.28594970703125,7637,2109,369,5,2,1
132449666,0.663818359375,-0.071044921875,-0.68768310546875,-0.28533935546875,7623,2113,400,6,1,0
132459652,0.6640625,-0.07049560546875,-0.68780517578125,-0.28472900390625,7627,2109,420,7,1,-1
132469630,0.6641845703125,-0.06988525390625,-0.68792724609375,-0.2840576171875,7654,2131,433,7,0,-1
132479614,0.66436767578125,-0.0692138671875,-0.68817138671875,-0.28338623046875,7664,2158,452,8,0,-1
132489597,0.66448974609375,-0.06854248046875,-0.68841552734375,-0.28271484375,7691,2190,471,8,-1,-1
132499587,0.6646728515625,-0.06787109375,-0.68865966796875,-0.2818603515625,7713,2222,489,9,0,0
132509565,0.66485595703125,-0.06719970703125,-0.68890380859375,-0.2808837890625,7755,2243,518,9,0,1
132519549,0.6651611328125,-0.066650390625,-0.6890869140625,-0.27978515625,7803,2276,532,9,-1,3
132529531,0.66546630859375,-0.066162109375,-0.6893310546875,-0.2786865234375,7869,2324,543,10,0,3
132539511,0.66583251953125,-0.065673828125,-0.68951416015625,-0.27740478515625,7915,2364,550,10,0,5
132549496,0.66632080078125,-0.06524658203125,-0.68963623046875,-0.276123046875,7950,2393,544,10,1,5
132559480,0.66680908203125,-0.0648193359375,-0.689697265625,-0.27484130859375,7981,2443,559,10,1,5
132569464,0.66729736328125,-0.0643310546875,-0.68975830078125,-0.2735595703125,8005,2468,562,10,2,5
132579446,0.6678466796875,-0.063720703125,-0.689697265625,-0.2724609375,8011,2501,549,9,3,3
132589426,0.66839599609375,-0.06292724609375,-0.68963623046875,-0.271484375,8016,2533,540,9,3,2
132599416,0.66888427734375,-0.06207275390625,-0.6895751953125,-0.2706298828125,8007,2563,522,9,4,1
132609400,0.66943359375,-0.06109619140625,-0.68939208984375,-0.26995849609375,7976,2592,505,9,5,0
132619377,0.669921875,-0.06011962890625,-0.689208984375,-0.26934814453125,7925,2610,493,8,5,0
132629360,0.67047119140625,-0.0592041015625,-0.68896484375,-0.268798828125,7857,2624,480,7,5,0
132639345,0.6710205078125,-0.0584716796875,-0.68878173828125,-0.26812744140625,7798,2631,458,7,5,1
132649326,0.67156982421875,-0.05780029296875,-0.68853759765625,-0.26751708984375,7754,2641,448,6,5,2
132659308,0.67205810546875,-0.05731201171875,-0.6883544921875,-0.266845703125,7690,2644,430,6,4,3
132669291,0.67254638671875,-0.05694580078125,-0.68817138671875,-0.2662353515625,7646,2646,392,5,4,3
132679275,0.6729736328125,-0.05657958984375,-0.68798828125,-0.265625,7604,2651,358,4,3,3
132689260,0.67327880859375,-0.056396484375,-0.68792724609375,-0.26513671875,7567,2642,335,3,2,3
132699250,0.6734619140625,-0.05621337890625,-0.68792724609375,-0.26470947265625,7546,2645,295,3,1,2
132709233,0.67364501953125,-0.0560302734375,-0.6878662109375,-0.264404296875,7534,2631,281,2,1,2
132719214,0.67364501953125,-0.055908203125,-0.68798828125,-0.26416015625,7535,2632,259,1,0,1
132729200,0.673583984375,-0.0557861328125,-0.6881103515625,-0.26397705078125,7550,2624,240,1,-1,1
132739183,0.6734619140625,-0.0557861328125,-0.68829345703125,-0.263916015625,7567,2614,232,0,-2,1
132749168,0.6732177734375,-0.05584716796875,-0.6884765625,-0.263916015625,7582,2598,232,-1,-3,0
132759148,0.6729736328125,-0.05596923828125,-0.688720703125,-0.26397705078125,7601,2587,223,-1,-3,1
132769118,0.67266845703125,-0.0562744140625,-0.68896484375,-0.26397705078125,7636,2584,221,-2,-4,1
132779099,0.67230224609375,-0.056640625,-0.689208984375,-0.26409912109375,7687,2582,214,-3,-4,1
132789083,0.67193603515625,-0.05706787109375,-0.68951416015625,-0.2642822265625,7732,2563,202,-4,-5,1
132799062,0.6715087890625,-0.05755615234375,-0.68975830078125,-0.2645263671875,7774,2535,220,-5,-4,0
132809045,0.671142578125,-0.05816650390625,-0.69000244140625,-0.26483154296875,7816,2514,233,-5,-5,0
132819028,0.6707763671875,-0.0587158203125,-0.690185546875,-0.26519775390625,7848,2481,266,-6,-4,0
132829010,0.67041015625,-0.05938720703125,-0.69024658203125,-0.26556396484375,7876,2450,292,-6,-4,0
132838994,0.670166015625,-0.06005859375,-0.6903076171875,-0.2659912109375,7899,2427,324,-6,-4,1
132848983,0.669921875,-0.06072998046875,-0.6903076171875,-0.266357421875,7920,2406,366,-7,-4,1
132858960,0.66973876953125,-0.06146240234375,-0.6903076171875,-0.26678466796875,7945,2376,393,-7,-3,1
132868941,0.66961669921875,-0.0621337890625,-0.690185546875,-0.26715087890625,7970,2344,428,-7,-2,0
132878924,0.66949462890625,-0.062744140625,-0.6900634765625,-0.267578125,7977,2317,447,-6,-2,0
132888911,0.66943359375,-0.06329345703125,-0.68994140625,-0.2679443359375,7965,2277,467,-6,-2,0
132898895,0.66937255859375,-0.063720703125,-0.6898193359375,-0.26837158203125,7950,2230,489,-6,-2,-1
132908875,0.6693115234375,-0.06414794921875,-0.689697265625,-0.268798828125,7943,2182,496,-5,-2,-1
132918857,0.66925048828125,-0.06451416015625,-0.6895751953125,-0.2691650390625,7942,2143,502,-4,-1,-2
132928840,0.669189453125,-0.06475830078125,-0.689453125,-0.26953125,7948,2111,509,-4,-2,-2
132938825,0.66912841796875,-0.06500244140625,-0.68939208984375,-0.269775390625,7941,2072,514,-3,-1,-2
132948806,0.66912841796875,-0.065185546875,-0.6893310546875,-0.26995849609375,7934,2033,523,-2,-1,-2
132958790,0.66912841796875,-0.0654296875,-0.6893310546875,-0.27001953125,7902,2003,514,-1,-2,-1
132968779,0.66912841796875,-0.0655517578125,-0.6893310546875,-0.26995849609375,7853,1974,514,-1,-2,-1
132978762,0.66912841796875,-0.06573486328125,-0.6893310546875,-0.269775390625,7808,1944,501,0,-2,0
132988746,0.66912841796875,-0.06585693359375,-0.689453125,-0.2694091796875,7782,1923,487,1,-2,1
132998731,0.66912841796875,-0.06591796875,-0.68963623046875,-0.26904296875,7744,1901,466,2,-2,0
133008711,0.6690673828125,-0.06585693359375,-0.6898193359375,-0.26861572265625,7710,1897,444,3,-2,-1
133018689,0.66900634765625,-0.06561279296875,-0.69012451171875,-0.26812744140625,7675,1881,406,4,-3,-1
133028669,0.66876220703125,-0.06524658203125,-0.6905517578125,-0.2677001953125,7663,1892,367,5,-3,-3
133038652,0.66851806640625,-0.06463623046875,-0.69097900390625,-0.267333984375,7652,1895,325,6,-3,-4
133048634,0.66815185546875,-0.06390380859375,-0.6915283203125,-0.2669677734375,7642,1911,286,7,-4,-5
133058618,0.667724609375,-0.06298828125,-0.692138671875,-0.2666015625,7655,1925,244,7,-4,-6
133068601,0.66729736328125,-0.06207275390625,-0.69287109375,-0.2662353515625,7648,1948,209,8,-5,-6
133078583,0.666748046875,-0.0611572265625,-0.693603515625,-0.26580810546875,7663,1988,177,8,-5,-5
133088565,0.666259765625,-0.060302734375,-0.69439697265625,-0.26519775390625,7673,2027,145,9,-5,-4
133098549,0.66571044921875,-0.0594482421875,-0.69525146484375,-0.2645263671875,7702,2058,109,9,-6,-4
133108537,0.66510009765625,-0.05859375,-0.69610595703125,-0.26385498046875,7739,2097,66,10,-6,-4
133118515,0.66455078125,-0.05767822265625,-0.697021484375,-0.26318359375,7767,2124,44,9,-6,-5
133128497,0.66387939453125,-0.05670166015625,-0.69793701171875,-0.26263427734375,7797,2150,26,10,-7,-6
133138481,0.6632080078125,-0.0555419921875,-0.69879150390625,-0.26214599609375,7806,2191,12,10,-6,-7
133148462,0.6624755859375,-0.05438232421875,-0.69976806640625,-0.26177978515625,7837,2220,-1,10,-7,-8
133158446,0.6617431640625,-0.0531005859375,-0.70068359375,-0.26141357421875,7886,2259,-22,10,-6,-9
133168430,0.6610107421875,-0.0518798828125,-0.70159912109375,-0.26104736328125,7935,2292,-32,10,-7,-8
133178421,0.66033935546875,-0.05072021484375,-0.7025146484375,-0.26055908203125,8003,2333,-43,10,-6,-7
133188405,0.65972900390625,-0.04974365234375,-0.703369140625,-0.25994873046875,8057,2372,-34,10,-6,-4
133198385,0.65936279296875,-0.0489501953125,-0.70404052734375,-0.2591552734375,8090,2426,-12,10,-5,-1
133208369,0.65911865234375,-0.0484619140625,-0.7047119140625,-0.25811767578125,8120,2448,12,10,-5,2
133218349,0.6590576171875,-0.04815673828125,-0.7052001953125,-0.25689697265625,8131,2461,31,9,-3,4
133228329,0.65911865234375,-0.0479736328125,-0.70562744140625,-0.25555419921875,8147,2480,40,9,-3,6
133238313,0.6593017578125,-0.0478515625,-0.7059326171875,-0.25433349609375,8144,2496,48,8,-2,6
133248296,0.659423828125,-0.047607421875,-0.70623779296875,-0.25323486328125,8145,2522,54,7,-1,4
133258287,0.65960693359375,-0.04730224609375,-0.7064208984375,-0.2523193359375,8140,2529,55,7,0,3
133268263,0.6597900390625,-0.046875,-0.70654296875,-0.2515869140625,8123,2532,47,6,0,2
133278250,0.65997314453125,-0.04644775390625,-0.7066650390625,-0.2509765625,8091,2546,75,5,0,1
133288234,0.66009521484375,-0.04595947265625,-0.7066650390625,-0.25048828125,8061,2552,95,5,1,0
133298221,0.6602783203125,-0.0455322265625,-0.7066650390625,-0.25006103515625,8037,2550,110,5,1,0
133308204,0.66046142578125,-0.0450439453125,-0.70672607421875,-0.249755859375,8004,2551,123,4,0,-1
133318189,0.66058349609375,-0.0445556640625,-0.7066650390625,-0.24951171875,7975,2548,139,4,1,-2
133328175,0.66064453125,-0.04400634765625,-0.7066650390625,-0.24945068359375,7931,2560,141,3,1,-3
133338155,0.66070556640625,-0.04339599609375,-0.7066650390625,-0.24951171875,7924,2592,140,2,0,-3
133348133,0.66070556640625,-0.0428466796875,-0.7066650390625,-0.2496337890625,7936,2622,127,2,0,-4
133358110,0.66064453125,-0.04229736328125,-0.70660400390625,-0.2498779296875,7957,2653,111,1,0,-4
133368090,0.66064453125,-0.04168701171875,-0.70654296875,-0.250244140625,7953,2685,112,0,1,-5
133378073,0.66064453125,-0.0411376953125,-0.7064208984375,-0.25067138671875,7959,2698,74,0,1,-5
133388055,0.66064453125,-0.04071044921875,-0.706298828125,-0.2510986328125,7942,2710,50,-1,1,-4
133398037,0.66064453125,-0.04046630859375,-0.7061767578125,-0.25152587890625,7913,2698,10,-2,1,-3
133408019,0.66070556640625,-0.04034423828125,-0.70599365234375,-0.2518310546875,7859,2671,-17,-2,2,-2
133418010,0.66082763671875,-0.04046630859375,-0.705810546875,-0.2520751953125,7805,2657,-28,-3,1,0
133427990,0.66094970703125,-0.040771484375,-0.70556640625,-0.25225830078125,7728,2627,-38,-4,1,2
133437978,0.6611328125,-0.04119873046875,-0.70538330078125,-0.2523193359375,7666,2589,-43,-4,1,3
133447953,0.6612548828125,-0.0416259765625,-0.7052001953125,-0.25238037109375,7626,2550,-30,-4,0,3
133457937,0.661376953125,-0.0421142578125,-0.705078125,-0.25238037109375,7597,2526,-22,-3,0,2
133467921,0.661376953125,-0.04254150390625,-0.70501708984375,-0.25250244140625,7567,2530,-23,-4,-1,2
133477901,0.6612548828125,-0.04290771484375,-0.70501708984375,-0.25262451171875,7569,2524,-30,-3,-2,1
133487885,0.66107177734375,-0.0433349609375,-0.70513916015625,-0.25274658203125,7555,2517,-50,-3,-3,1
133497872,0.6607666015625,-0.04376220703125,-0.70538330078125,-0.25286865234375,7546,2513,-56,-3,-4,1
133507852,0.660400390625,-0.04425048828125,-0.70562744140625,-0.2529296875,7526,2494,-70,-3,-5,2
133517827,0.6600341796875,-0.0447998046875,-0.7059326171875,-0.25299072265625,7504,2479,-58,-4,-6,2
133527812,0.65960693359375,-0.04541015625,-0.706298828125,-0.2530517578125,7489,2461,-51,-4,-6,2
133537793,0.65911865234375,-0.04608154296875,-0.70672607421875,-0.25311279296875,7491,2444,-32,-4,-7,2
133547779,0.65850830078125,-0.04669189453125,-0.7071533203125,-0.25323486328125,7504,2416,-14,-4,-8,1
133557767,0.6578369140625,-0.0472412109375,-0.7076416015625,-0.25347900390625,7534,2416,-20,-4,-8,0
133567749,0.6571044921875,-0.0477294921875,-0.70819091796875,-0.25384521484375,7595,2432,-22,-5,-9,-1
133577731,0.65618896484375,-0.04815673828125,-0.70880126953125,-0.2542724609375,7637,2436,-19,-4,-10,-2
133587708,0.65533447265625,-0.048583984375,-0.70941162109375,-0.2547607421875,7684,2432,-26,-5,-10,-3
133597688,0.6544189453125,-0.049072265625,-0.7100830078125,-0.25518798828125,7749,2436,-42,-4,-10,-2
133607679,0.653564453125,-0.04974365234375,-0.710693359375,-0.2554931640625,7822,2432,-72,-5,-10,0
133617657,0.65277099609375,-0.0506591796875,-0.7113037109375,-0.25567626953125,7916,2430,-90,-5,-10,3
133627641,0.652099609375,-0.0518798828125,-0.7119140625,-0.2554931640625,8036,2410,-120,-5,-10,6
133637623,0.651611328125,-0.05352783203125,-0.71240234375,-0.2550048828125,8178,2379,-140,-5,-10,11
133647605,0.6513671875,-0.0555419921875,-0.71282958984375,-0.2540283203125,8360,2342,-157,-5,-8,15
133657589,0.65142822265625,-0.05804443359375,-0.71307373046875,-0.252685546875,8570,2277,-145,-5,-7,21
133667570,0.65179443359375,-0.06097412109375,-0.713134765625,-0.25079345703125,8787,2182,-128,-5,-6,26
133677554,0.65252685546875,-0.06451416015625,-0.7130126953125,-0.24835205078125,9024,2052,-107,-4,-4,33
133687537,0.65374755859375,-0.0687255859375,-0.71258544921875,-0.2451171875,9240,1880,-82,-4,-2,42
133697525,0.65557861328125,-0.07366943359375,-0.71185302734375,-0.24102783203125,9406,1658,-60,-3,1,52
133707505,0.65789794921875,-0.07952880859375,-0.71075439453125,-0.23590087890625,9531,1376,-34,-3,5,63
133717488,0.660888671875,-0.0860595703125,-0.709228515625,-0.22991943359375,9614,1053,35,-2,8,72
133727471,0.66436767578125,-0.09307861328125,-0.70721435546875,-0.2232666015625,9647,687,123,-1,12,77
133737461,0.6680908203125,-0.10015869140625,-0.704833984375,-0.21636962890625,9621,271,239,0,14,77
133747443,0.67205810546875,-0.1068115234375,-0.7021484375,-0.209716796875,9603,-123,378,0,17,72
133757431,0.676025390625,-0.11285400390625,-0.69921875,-0.20355224609375,9635,-483,491,1,20,66
133767415,0.67987060546875,-0.11846923828125,-0.6961669921875,-0.19793701171875,9709,-800,570,-1,21,60
133777396,0.68359375,-0.123779296875,-0.6929931640625,-0.19268798828125,9838,-1055,596,-2,22,57
133787372,0.68731689453125,-0.12939453125,-0.68975830078125,-0.1873779296875,10015,-1243,583,-3,23,61
133797356,0.6910400390625,-0.1358642578125,-0.68634033203125,-0.1815185546875,10181,-1395,575,-5,22,72
133807345,0.69500732421875,-0.14361572265625,-0.68255615234375,-0.174560546875,10307,-1525,590,-7,22,87
133817321,0.6990966796875,-0.15301513671875,-0.67840576171875,-0.16619873046875,10360,-1647,600,-9,21,107
133827303,0.70330810546875,-0.1641845703125,-0.67376708984375,-0.15631103515625,10402,-1768,615,-11,20,127
133837287,0.7073974609375,-0.177001953125,-0.66876220703125,-0.14508056640625,10458,-1920,587,-14,19,143
133847268,0.71124267578125,-0.19091796875,-0.663330078125,-0.133056640625,10497,-2087,528,-17,18,154
133857250,0.7147216796875,-0.2054443359375,-0.65753173828125,-0.12078857421875,10493,-2247,493,-20,17,159
133867240,0.7177734375,-0.22039794921875,-0.6514892578125,-0.10858154296875,10452,-2408,451,-24,16,160
133877222,0.7203369140625,-0.2354736328125,-0.645263671875,-0.09661865234375,10422,-2571,394,-27,16,161
133887206,0.72235107421875,-0.25079345703125,-0.63885498046875,-0.0848388671875,10376,-2751,343,-30,14,161
133897186,0.723876953125,-0.26629638671875,-0.6322021484375,-0.07330322265625,10334,-2937,269,-33,14,163
133907177,0.7249755859375,-0.281982421875,-0.6253662109375,-0.06195068359375,10254,-3155,183,-37,14,162
133917161,0.72552490234375,-0.2977294921875,-0.618408203125,-0.0509033203125,10108,-3379,111,-39,13,162
133927137,0.7257080078125,-0.3135986328125,-0.611083984375,-0.03985595703125,9949,-3604,56,-41,12,164
133937114,0.72540283203125,-0.32989501953125,-0.60345458984375,-0.028564453125,9827,-3835,1,-43,12,170
133947097,0.72479248046875,-0.34661865234375,-0.59521484375,-0.0167236328125,9722,-4078,-63,-45,12,178
133957082,0.7237548828125,-0.36376953125,-0.58642578125,-0.0045166015625,9661,-4320,-134,-46,12,184
133967068,0.7222900390625,-0.38092041015625,-0.57720947265625,0.00787353515625,9576,-4601,-219,-46,13,186
133977050,0.720458984375,-0.3978271484375,-0.56768798828125,0.02008056640625,9460,-4904,-273,-46,13,184
133987033,0.71832275390625,-0.41412353515625,-0.55810546875,0.03192138671875,9312,-5224,-333,-45,13,179
133997016,0.71588134765625,-0.42974853515625,-0.54864501953125,0.04327392578125,9128,-5550,-392,-44,12,172
134006998,0.71307373046875,-0.4447021484375,-0.53924560546875,0.05426025390625,8924,-5899,-468,-43,11,168
134016988,0.71002197265625,-0.459228515625,-0.52984619140625,0.06524658203125,8685,-6245,-513,-41,9,167
134026972,0.70660400390625,-0.4735107421875,-0.52020263671875,0.0767822265625,8405,-6583,-537,-38,6,171
134036948,0.70281982421875,-0.48785400390625,-0.50994873046875,0.08941650390625,8067,-6926,-550,-35,4,182
134046926,0.69854736328125,-0.50238037109375,-0.49884033203125,0.1036376953125,7685,-7238,-526,-31,0,195
134056909,0.69384765625,-0.51708984375,-0.48681640625,0.11932373046875,7329,-7541,-515,-27,-3,208
134066891,0.6885986328125,-0.53143310546875,-0.47418212890625,0.13616943359375,6981,-7843,-526,-22,-6,215
134076875,0.6829833984375,-0.545166015625,-0.4613037109375,0.1534423828125,6641,-8129,-535,-18,-10,215
134086858,0.67718505859375,-0.5577392578125,-0.4486083984375,0.170654296875,6288,-8375,-530,-14,-13,210
134096840,0.67120361328125,-0.56927490234375,-0.4361572265625,0.18768310546875,5955,-8580,-558,-10,-15,204
134106823,0.6650390625,-0.579833984375,-0.42388916015625,0.20458984375,5617,-8737,-582,-6,-18,202
134116804,0.65875244140625,-0.58953857421875,-0.41162109375,0.2215576171875,5301,-8849,-589,-1,-20,200
134126791,0.65228271484375,-0.5985107421875,-0.39910888671875,0.23870849609375,4956,-8916,-592,3,-22,201
134136768,0.6456298828125,-0.6068115234375,-0.38641357421875,0.25616455078125,4590,-8954,-589,6,-24,203
134146760,0.6387939453125,-0.614501953125,-0.37335205078125,0.27386474609375,4207,-8961,-596,10,-26,204
134156742,0.6317138671875,-0.6214599609375,-0.3599853515625,0.29180908203125,3786,-8932,-561,15,-27,205
134166718,0.62445068359375,-0.62774658203125,-0.3463134765625,0.3099365234375,3393,-8867,-549,18,-29,207
134176701,0.61700439453125,-0.63330078125,-0.33251953125,0.328125,3029,-8774,-519,21,-31,206
134186683,0.60943603515625,-0.63812255859375,-0.31866455078125,0.34613037109375,2689,-8663,-502,24,-33,203
134196669,0.60186767578125,-0.64215087890625,-0.30511474609375,0.36376953125,2388,-8524,-472,26,-34,198
134206650,0.5943603515625,-0.6453857421875,-0.29193115234375,0.38079833984375,2100,-8376,-453,28,-35,191
134216634,0.58709716796875,-0.6478271484375,-0.27935791015625,0.39691162109375,1847,-8218,-423,29,-35,180
134226617,0.58026123046875,-0.6495361328125,-0.267578125,0.412109375,1570,-8033,-364,30,-35,169
134236600,0.57379150390625,-0.6505126953125,-0.25634765625,0.426513671875,1332,-7856,-286,31,-35,159
134246583,0.5675048828125,-0.6510009765625,-0.24560546875,0.44024658203125,1155,-7670,-244,31,-34,154
134256566,0.56121826171875,-0.6512451171875,-0.23486328125,0.45355224609375,992,-7502,-191,32,-33,153
134266549,0.55487060546875,-0.65130615234375,-0.2239990234375,0.46661376953125,842,-7337,-139,32,-32,152
134276531,0.5484619140625,-0.65118408203125,-0.21307373046875,0.47930908203125,679,-7193,-65,32,-30,151
134286514,0.54205322265625,-0.65087890625,-0.20220947265625,0.49151611328125,481,-7028,19,32,-29,146
134296498,0.5360107421875,-0.65032958984375,-0.191650390625,0.5030517578125,290,-6872,114,32,-27,139
134306483,0.5301513671875,-0.6495361328125,-0.1815185546875,0.51385498046875,109,-6710,206,31,-25,133
134316465,0.5245361328125,-0.64862060546875,-0.17144775390625,0.524169921875,-96,-6524,297,31,-23,129
134326449,0.51873779296875,-0.647705078125,-0.16131591796875,0.53424072265625,-287,-6315,390,31,-21,131
134336427,0.51251220703125,-0.64678955078125,-0.15057373046875,0.5443115234375,-524,-6118,492,30,-19,135
134346420,0.5057373046875,-0.64599609375,-0.13922119140625,0.55450439453125,-802,-5876,600,30,-17,141
134356404,0.4984130859375,-0.645263671875,-0.12738037109375,0.5648193359375,-1091,-5634,720,29,-16,144
134366388,0.49078369140625,-0.6444091796875,-0.11529541015625,0.574951171875,-1359,-5401,823,28,-15,144
134376365,0.48321533203125,-0.6434326171875,-0.10345458984375,0.5845947265625,-1633,-5208,922,27,-14,139
134386347,0.47589111328125,-0.64239501953125,-0.09210205078125,0.5936279296875,-1855,-4995,1012,26,-12,132
134396331,0.4688720703125,-0.6412353515625,-0.08123779296875,0.60198974609375,-2073,-4776,1098,25,-11,126
134406313,0.46185302734375,-0.64013671875,-0.070556640625,0.60986328125,-2298,-4535,1188,24,-9,123
134416295,0.45477294921875,-0.63897705078125,-0.0599365234375,0.617431640625,-2491,-4293,1279,23,-7,121
134426278,0.44757080078125,-0.637939453125,-0.04937744140625,0.624755859375,-2684,-4091,1339,21,-6,121
134436260,0.44012451171875,-0.63690185546875,-0.038818359375,0.63177490234375,-2864,-3885,1397,20,-4,120
134446239,0.4326171875,-0.63592529296875,-0.0281982421875,0.638427734375,-3067,-3686,1446,19,-2,119
134456237,0.42498779296875,-0.63507080078125,-0.0177001953125,0.644775390625,-3272,-3491,1497,18,0,118
134466217,0.417236328125,-0.63427734375,-0.00726318359375,0.6507568359375,-3452,-3305,1540,17,2,116
134476200,0.4095458984375,-0.63360595703125,0.0030517578125,0.6563720703125,-3627,-3141,1565,15,4,113
134486181,0.4017333984375,-0.6329345703125,0.0133056640625,0.66168212890625,-3816,-2981,1596,15,6,113
134496174,0.39373779296875,-0.63238525390625,0.02362060546875,0.66668701171875,-4036,-2817,1634,14,8,113
134506156,0.3853759765625,-0.6318359375,0.03411865234375,0.671630859375,-4251,-2648,1652,13,9,115
134516133,0.37677001953125,-0.63134765625,0.04473876953125,0.67633056640625,-4451,-2477,1656,12,10,116
134526108,0.3680419921875,-0.63079833984375,0.0552978515625,0.68084716796875,-4668,-2301,1651,12,12,115
134536092,0.35943603515625,-0.63031005859375,0.065673828125,0.68499755859375,-4872,-2135,1649,11,12,112
134546075,0.35101318359375,-0.62982177734375,0.07568359375,0.688720703125,-5083,-1964,1648,11,13,107
134556059,0.34283447265625,-0.62933349609375,0.0853271484375,0.692138671875,-5276,-1804,1639,10,14,102
134566045,0.3349609375,-0.62896728515625,0.09442138671875,0.6951904296875,-5421,-1666,1612,8,14,97
134576022,0.32745361328125,-0.6285400390625,0.10302734375,0.6978759765625,-5551,-1539,1583,8,14,92
134586006,0.32012939453125,-0.62823486328125,0.11138916015625,0.70025634765625,-5645,-1413,1525,7,15,89
134595990,0.312744140625,-0.62799072265625,0.1195068359375,0.7025146484375,-5732,-1316,1449,6,15,88
134605978,0.30511474609375,-0.62774658203125,0.127685546875,0.70458984375,-5829,-1229,1354,5,16,91
134615957,0.29705810546875,-0.62750244140625,0.1361083984375,0.70672607421875,-5950,-1123,1284,4,17,95
134625938,0.2884521484375,-0.62713623046875,0.144775390625,0.70892333984375,-6083,-1008,1250,4,17,99
134635921,0.27935791015625,-0.62652587890625,0.1536865234375,0.711181640625,-6243,-874,1242,3,16,104
134645904,0.2698974609375,-0.625732421875,0.16278076171875,0.7135009765625,-6438,-713,1257,3,16,107
134655887,0.260009765625,-0.6246337890625,0.172119140625,0.71588134765625,-6664,-519,1262,2,15,110
134665872,0.25,-0.62335205078125,0.1815185546875,0.71832275390625,-6873,-278,1298,2,14,110
134675853,0.24017333984375,-0.62176513671875,0.19061279296875,0.72064208984375,-7052,10,1340,2,12,107
134685838,0.2308349609375,-0.62005615234375,0.19927978515625,0.72283935546875,-7201,340,1381,2,11,99
134695820,0.22247314453125,-0.618408203125,0.20703125,0.7247314453125,-7316,696,1431,2,10,87
134705803,0.21514892578125,-0.61688232421875,0.2137451171875,0.72625732421875,-7388,1062,1479,2,9,73
134715785,0.20904541015625,-0.6156005859375,0.219482421875,0.7274169921875,-7428,1427,1544,2,9,58
134725766,0.20404052734375,-0.6146240234375,0.22418212890625,0.72821044921875,-7443,1777,1596,2,9,45
134735756,0.2000732421875,-0.61383056640625,0.2281494140625,0.728759765625,-7434,2113,1629,2,8,34
134745738,0.19671630859375,-0.61322021484375,0.2315673828125,0.7291259765625,-7441,2414,1643,2,8,28
134755715,0.19342041015625,-0.6126708984375,0.23492431640625,0.72943115234375,-7510,2687,1654,2,9,28
134765698,0.18994140625,-0.61199951171875,0.23846435546875,0.729736328125,-7603,2901,1651,2,8,32
134775680,0.1859130859375,-0.61102294921875,0.242431640625,0.730224609375,-7691,3074,1657,3,7,38
134785663,0.181396484375,-0.6097412109375,0.246826171875,0.73095703125,-7813,3217,1669,3,6,44
134795649,0.17645263671875,-0.608154296875,0.2515869140625,0.73193359375,-7947,3332,1654,3,4,50
134805632,0.17108154296875,-0.60614013671875,0.2564697265625,0.733154296875,-8087,3429,1632,2,1,54
134815614,0.16595458984375,-0.60400390625,0.26116943359375,0.73443603515625,-8193,3455,1577,1,-2,52
134825590,0.161376953125,-0.60186767578125,0.2652587890625,0.73577880859375,-8291,3453,1504,0,-4,44
134835574,0.15771484375,-0.59991455078125,0.268310546875,0.73699951171875,-8372,3429,1451,-1,-7,33
134845555,0.15533447265625,-0.59814453125,0.270263671875,0.73822021484375,-8432,3361,1396,-2,-9,21
134855538,0.15399169921875,-0.5966796875,0.27117919921875,0.7393798828125,-8458,3263,1340,-3,-12,9
134865516,0.15362548828125,-0.59539794921875,0.2711181640625,0.740478515625,-8448,3139,1254,-4,-13,0
134875498,0.15386962890625,-0.5943603515625,0.27044677734375,0.74151611328125,-8381,2981,1169,-5,-15,-6
134885479,0.15447998046875,-0.5933837890625,0.26934814453125,0.7425537109375,-8290,2793,1072,-6,-16,-8
134895463,0.1551513671875,-0.592529296875,0.26806640625,0.74359130859375,-8133,2607,979,-7,-16,-10
134905446,0.1558837890625,-0.5916748046875,0.2667236328125,0.74462890625,-7987,2412,895,-7,-16,-9
134915426,0.1563720703125,-0.5908203125,0.26544189453125,0.74566650390625,-7818,2213,818,-8,-16,-6
134925418,0.15655517578125,-0.5899658203125,0.26434326171875,0.74664306640625,-7696,2034,782,-8,-14,-3
134935408,0.156494140625,-0.589111328125,0.263427734375,0.7476806640625,-7617,1875,758,-8,-13,0
134945384,0.15606689453125,-0.5882568359375,0.2626953125,0.74871826171875,-7578,1730,764,-8,-13,3
134955362,0.15557861328125,-0.58740234375,0.26214599609375,0.74969482421875,-7555,1604,801,-7,-12,4
134965345,0.15521240234375,-0.58660888671875,0.26153564453125,0.7506103515625,-7513,1498,853,-7,-11,3
134975327,0.15509033203125,-0.5859375,0.26080322265625,0.75140380859375,-7478,1423,906,-6,-10,0
134985310,0.1552734375,-0.58551025390625,0.25982666015625,0.75201416015625,-7473,1353,961,-6,-9,-4
134995293,0.15570068359375,-0.585205078125,0.25872802734375,0.7525634765625,-7477,1318,1000,-5,-8,-6
135005275,0.15618896484375,-0.58502197265625,0.25775146484375,0.7529296875,-7477,1291,1047,-5,-7,-6
135015257,0.15667724609375,-0.58477783203125,0.25677490234375,0.75335693359375,-7490,1285,1114,-4,-7,-5
135025237,0.15704345703125,-0.58453369140625,0.25604248046875,0.75372314453125,-7545,1299,1198,-3,-6,-4
135035229,0.15728759765625,-0.58416748046875,0.25543212890625,0.754150390625,-7619,1334,1294,-3,-6,-2
135045211,0.15753173828125,-0.58380126953125,0.25494384765625,0.75457763671875,-7692,1363,1404,-2,-6,-2
135055200,0.1578369140625,-0.58331298828125,0.25445556640625,0.7550048828125,-7757,1426,1508,-2,-6,-3
135065185,0.1583251953125,-0.58282470703125,0.25396728515625,0.75543212890625,-7808,1485,1604,-1,-6,-5
135075172,0.1591796875,-0.5823974609375,0.25341796875,0.75579833984375,-7832,1541,1686,0,-7,-7
135085152,0.1602783203125,-0.58197021484375,0.25274658203125,0.756103515625,-7823,1602,1747,1,-7,-11
135095122,0.16168212890625,-0.58154296875,0.25201416015625,0.75634765625,-7811,1668,1794,2,-7,-13
135105105,0.16339111328125,-0.58123779296875,0.25115966796875,0.75653076171875,-7778,1744,1824,3,-7,-16
135115088,0.165283203125,-0.5809326171875,0.25030517578125,0.756591796875,-7718,1800,1857,4,-6,-18
135125071,0.16766357421875,-0.580810546875,0.249267578125,0.756591796875,-7636,1860,1897,5,-6,-23
135135055,0.17034912109375,-0.5806884765625,0.24810791015625,0.75640869140625,-7522,1938,1932,5,-6,-27
135145037,0.17364501953125,-0.5806884765625,0.24658203125,0.75616455078125,-7384,1992,1977,7,-6,-33
135155020,0.17767333984375,-0.58087158203125,0.24462890625,0.7557373046875,-7212,2032,2007,7,-6,-42
135165005,0.18255615234375,-0.581298828125,0.24212646484375,0.7550048828125,-7029,2068,1985,8,-6,-51
135174990,0.1884765625,-0.58197021484375,0.23895263671875,0.75408935546875,-6848,2121,1992,9,-6,-62
135184976,0.19537353515625,-0.582763671875,0.23516845703125,0.75286865234375,-6718,2150,1989,9,-7,-72
135194951,0.203125,-0.583740234375,0.230712890625,0.75146484375,-6619,2169,2020,10,-8,-82
135204934,0.2117919921875,-0.584716796875,0.2257080078125,0.7498779296875,-6595,2174,2046,11,-9,-91
135214920,0.22137451171875,-0.58563232421875,0.2200927734375,0.748046875,-6561,2144,2084,12,-11,-99
135224904,0.23193359375,-0.5865478515625,0.21380615234375,0.7459716796875,-6510,2094,2121,13,-13,-110
135234886,0.2435302734375,-0.5872802734375,0.20684814453125,0.74365234375,-6498,2020,2158,14,-16,-119
135244872,0.25604248046875,-0.58770751953125,0.19921875,0.74114990234375,-6557,1940,2229,16,-20,-128
135254850,0.26922607421875,-0.5877685546875,0.19134521484375,0.738525390625,-6651,1862,2292,18,-23,-132
135264839,0.2828369140625,-0.58734130859375,0.18316650390625,0.73583984375,-6702,1756,2337,20,-27,-135
135274821,0.296875,-0.58648681640625,0.17486572265625,0.73297119140625,-6655,1641,2333,22,-30,-139
135284804,0.31158447265625,-0.58526611328125,0.16619873046875,0.7298583984375,-6492,1502,2298,24,-33,-145
135294788,0.32696533203125,-0.583740234375,0.15704345703125,0.72637939453125,-6252,1361,2240,26,-36,-153
135304766,0.34326171875,-0.58203125,0.1473388671875,0.7222900390625,-5989,1203,2162,28,-37,-162
135314758,0.36029052734375,-0.580078125,0.1370849609375,0.717529296875,-5741,1039,2088,30,-38,-170
135324740,0.3779296875,-0.5780029296875,0.12640380859375,0.7120361328125,-5514,868,2011,31,-37,-177
135334719,0.3961181640625,-0.57586669921875,0.1153564453125,0.705810546875,-5279,669,1958,32,-35,-184
135344701,0.41473388671875,-0.5736083984375,0.1038818359375,0.69866943359375,-5000,459,1896,33,-34,-191
135354685,0.43377685546875,-0.5712890625,0.09197998046875,0.690673828125,-4731,240,1844,34,-31,-197
135364668,0.4530029296875,-0.56884765625,0.07977294921875,0.6817626953125,-4498,26,1807,34,-30,-202
135374650,0.47235107421875,-0.5662841796875,0.06732177734375,0.67205810546875,-4298,-194,1785,34,-28,-206
135384631,0.49176025390625,-0.56353759765625,0.0546875,0.6614990234375,-4104,-433,1774,35,-25,-211
135394616,0.5113525390625,-0.56060791015625,0.04156494140625,0.64996337890625,-3898,-700,1760,34,-24,-218
135404599,0.5311279296875,-0.55755615234375,0.02789306640625,0.6373291015625,-3717,-953,1746,34,-22,-225
135414581,0.55096435546875,-0.55413818359375,0.0137939453125,0.623779296875,-3537,-1212,1760,33,-22,-230
135424562,0.57049560546875,-0.5504150390625,-0.00042724609375,0.60955810546875,-3410,-1450,1778,32,-21,-231
135434548,0.58929443359375,-0.5462646484375,-0.01470947265625,0.59503173828125,-3298,-1684,1825,31,-23,-228
135444530,0.6072998046875,-0.5416259765625,-0.02880859375,0.58050537109375,-3164,-1952,1870,30,-24,-223
135454512,0.62457275390625,-0.53656005859375,-0.04302978515625,0.5657958984375,-3002,-2235,1922,29,-27,-221
135464496,0.641357421875,-0.53094482421875,-0.0574951171875,0.55084228515625,-2859,-2497,1978,29,-29,-222
135474478,0.65777587890625,-0.5247802734375,-0.07244873046875,0.535400390625,-2637,-2762,2038,27,-32,-226
135484461,0.67388916015625,-0.51812744140625,-0.0882568359375,0.51922607421875,-2348,-3059,2097,25,-36,-231
135494444,0.68963623046875,-0.5108642578125,-0.104736328125,0.50244140625,-1996,-3394,2169,24,-39,-235
135504424,0.7049560546875,-0.5029296875,-0.12188720703125,0.48504638671875,-1586,-3756,2237,23,-43,-238
135514418,0.7196044921875,-0.49432373046875,-0.13958740234375,0.46722412109375,-1176,-4087,2304,22,-48,-239
135524400,0.73358154296875,-0.485107421875,-0.1578369140625,0.44903564453125,-736,-4368,2390,21,-52,-241
135534383,0.7467041015625,-0.47528076171875,-0.17645263671875,0.4305419921875,-287,-4604,2453,19,-56,-241
135544359,0.7589111328125,-0.46490478515625,-0.1954345703125,0.41192626953125,247,-4815,2513,17,-61,-239
135554345,0.76995849609375,-0.4542236328125,-0.21478271484375,0.39337158203125,837,-5036,2550,14,-65,-235
135564326,0.77960205078125,-0.44329833984375,-0.234130859375,0.37530517578125,1413,-5243,2600,12,-69,-225
135574308,0.78778076171875,-0.432373046875,-0.25311279296875,0.35833740234375,2014,-5450,2649,10,-73,-211
135584293,0.79449462890625,-0.4215087890625,-0.27166748046875,0.342529296875,2553,-5622,2693,8,-77,-197
135594275,0.79986572265625,-0.4107666015625,-0.28961181640625,0.32806396484375,3037,-5739,2733,7,-80,-183
135604258,0.80413818359375,-0.40008544921875,-0.30731201171875,0.31439208984375,3563,-5845,2786,6,-83,-174
135614237,0.80755615234375,-0.38934326171875,-0.32489013671875,0.3011474609375,4051,-5929,2830,5,-86,-170
135624230,0.8101806640625,-0.37860107421875,-0.34234619140625,0.28814697265625,4501,-5984,2884,3,-88,-167
135634213,0.8121337890625,-0.3677978515625,-0.359619140625,0.27532958984375,4954,-6043,2940,2,-89,-163
135644200,0.81341552734375,-0.3570556640625,-0.37652587890625,0.26287841796875,5383,-6109,2983,2,-89,-158
135654185,0.8140869140625,-0.34619140625,-0.39306640625,0.25067138671875,5864,-6198,3023,3,-90,-155
135664179,0.814453125,-0.3349609375,-0.40936279296875,0.23834228515625,6348,-6255,3095,5,-89,-157
135674159,0.814697265625,-0.3231201171875,-0.42547607421875,0.22552490234375,6840,-6260,3168,6,-88,-163
135684133,0.814697265625,-0.310546875,-0.4415283203125,0.21173095703125,7329,-6205,3192,7,-87,-171
135694112,0.81451416015625,-0.2974853515625,-0.4573974609375,0.197021484375,7780,-6147,3189,7,-86,-178
135704094,0.81396484375,-0.28424072265625,-0.4727783203125,0.18212890625,8189,-6059,3167,7,-83,-177
135714076,0.81280517578125,-0.27142333984375,-0.48724365234375,0.1680908203125,8514,-5947,3136,7,-81,-164
135724060,0.81103515625,-0.25970458984375,-0.50042724609375,0.15594482421875,8843,-5835,3109,8,-79,-143
135734045,0.8087158203125,-0.24908447265625,-0.512451171875,0.14581298828125,9211,-5743,3075,10,-76,-123
135744025,0.80615234375,-0.2392578125,-0.52362060546875,0.136962890625,9537,-5652,3032,10,-73,-113
135754008,0.803466796875,-0.2296142578125,-0.53411865234375,0.128173828125,9789,-5536,3009,10,-70,-114
135763990,0.8009033203125,-0.219482421875,-0.5443115234375,0.1185302734375,9935,-5363,2986,9,-67,-123
135773980,0.7984619140625,-0.2088623046875,-0.55426025390625,0.1077880859375,10029,-5182,2962,7,-64,-133
135783958,0.79595947265625,-0.197998046875,-0.5638427734375,0.096435546875,10164,-4998,2950,6,-62,-135
135793940,0.7933349609375,-0.1875,-0.57293701171875,0.08526611328125,10392,-4812,2901,5,-59,-130
135803923,0.79052734375,-0.17779541015625,-0.58123779296875,0.07489013671875,10594,-4641,2873,4,-56,-119
135813905,0.78765869140625,-0.16912841796875,-0.5887451171875,0.0657958984375,10733,-4481,2828,3,-52,-105
135823888,0.7847900390625,-0.16168212890625,-0.595458984375,0.0579833984375,10787,-4314,2751,2,-49,-91
135833872,0.78204345703125,-0.15533447265625,-0.60137939453125,0.05120849609375,10737,-4144,2680,1,-44,-79
135843848,0.7794189453125,-0.14971923828125,-0.60662841796875,0.045166015625,10613,-3950,2632,0,-41,-71
135853834,0.77703857421875,-0.14459228515625,-0.611328125,0.0394287109375,10511,-3763,2591,-1,-37,-68
135863813,0.7747802734375,-0.13958740234375,-0.61566162109375,0.03363037109375,10421,-3560,2542,-2,-34,-68
135873795,0.7728271484375,-0.1343994140625,-0.61962890625,0.02728271484375,10284,-3349,2510,-3,-30,-74
135883779,0.77105712890625,-0.12884521484375,-0.623291015625,0.0201416015625,10132,-3136,2483,-5,-27,-80
135893767,0.76947021484375,-0.1229248046875,-0.62664794921875,0.01220703125,9946,-2928,2455,-6,-24,-87
135903750,0.7679443359375,-0.116943359375,-0.62969970703125,0.00384521484375,9736,-2721,2427,-8,-21,-89
135913733,0.7664794921875,-0.11114501953125,-0.632568359375,-0.0045166015625,9507,-2508,2381,-9,-20,-86
135923711,0.7650146484375,-0.10595703125,-0.6351318359375,-0.01239013671875,9314,-2302,2319,-10,-20,-78
135933694,0.76336669921875,-0.10150146484375,-0.63763427734375,-0.01947021484375,9232,-2109,2239,-11,-20,-70
135943677,0.76165771484375,-0.09771728515625,-0.64007568359375,-0.02606201171875,9206,-1960,2123,-13,-20,-64
135953658,0.759765625,-0.09429931640625,-0.64251708984375,-0.03240966796875,9258,-1853,1994,-14,-21,-62
135963641,0.75775146484375,-0.0909423828125,-0.64501953125,-0.03900146484375,9370,-1775,1857,-15,-21,-65
135973623,0.75555419921875,-0.08740234375,-0.6475830078125,-0.04608154296875,9483,-1723,1718,-17,-22,-70
135983607,0.753173828125,-0.083984375,-0.65020751953125,-0.05340576171875,9612,-1694,1607,-19,-23,-71
135993591,0.75067138671875,-0.080810546875,-0.65289306640625,-0.0606689453125,9790,-1682,1508,-20,-24,-69
136003573,0.748046875,-0.07818603515625,-0.655517578125,-0.0675048828125,9960,-1682,1437,-21,-25,-63
136013557,0.74542236328125,-0.07647705078125,-0.6580810546875,-0.0736083984375,10104,-1700,1374,-22,-25,-53
136023537,0.742919921875,-0.07586669921875,-0.660400390625,-0.07861328125,10222,-1704,1322,-24,-25,-40
136033519,0.74053955078125,-0.07672119140625,-0.66253662109375,-0.0821533203125,10281,-1715,1264,-24,-24,-22
136043504,0.73846435546875,-0.07916259765625,-0.664306640625,-0.08404541015625,10257,-1725,1209,-25,-23,-3
136053484,0.7366943359375,-0.0830078125,-0.665771484375,-0.08441162109375,10186,-1723,1170,-25,-21,14
136063466,0.73529052734375,-0.0880126953125,-0.66680908203125,-0.08349609375,10100,-1717,1163,-25,-18,28
136073447,0.7342529296875,-0.09375,-0.66741943359375,-0.08184814453125,9993,-1719,1186,-26,-16,35
136083427,0.7333984375,-0.09942626953125,-0.667724609375,-0.08001708984375,9853,-1726,1210,-25,-13,35
136093421,0.7327880859375,-0.104736328125,-0.667724609375,-0.07861328125,9668,-1725,1241,-25,-10,30
136103404,0.73236083984375,-0.1092529296875,-0.66754150390625,-0.07794189453125,9464,-1711,1263,-24,-7,21
136115990,0.73211669921875,-0.11297607421875,-0.667236328125,-0.078125,9265,-1689,1276,-24,-3,12
136123359,0.73199462890625,-0.1158447265625,-0.666748046875,-0.0791015625,9083,-1666,1297,-24,-1,4
136133347,0.7320556640625,-0.11810302734375,-0.66607666015625,-0.08056640625,8930,-1627,1289,-22,2,-2
136143323,0.7322998046875,-0.12005615234375,-0.665283203125,-0.08233642578125,8806,-1569,1299,-21,4,-3
136153308,0.73272705078125,-0.12188720703125,-0.66424560546875,-0.08404541015625,8700,-1511,1291,-21,7,-2
136163296,0.7332763671875,-0.12384033203125,-0.6630859375,-0.08544921875,8624,-1456,1288,-20,8,1
136173273,0.73394775390625,-0.1259765625,-0.6617431640625,-0.08648681640625,8563,-1403,1275,-19,9,5
136183256,0.73480224609375,-0.12823486328125,-0.66033935546875,-0.0872802734375,8504,-1357,1250,-18,10,7
136193236,0.735595703125,-0.13037109375,-0.658935546875,-0.08795166015625,8414,-1300,1234,-17,10,8
136203228,0.73651123046875,-0.1324462890625,-0.65740966796875,-0.0885009765625,8338,-1259,1231,-16,11,7
136213214,0.7374267578125,-0.13427734375,-0.65594482421875,-0.08917236328125,8270,-1220,1226,-15,11,5
136223200,0.73822021484375,-0.13580322265625,-0.65460205078125,-0.0899658203125,8222,-1174,1204,-14,11,3
136233185,0.739013671875,-0.1370849609375,-0.6533203125,-0.09088134765625,8191,-1141,1179,-13,11,0
136243169,0.73974609375,-0.13800048828125,-0.652099609375,-0.0919189453125,8160,-1091,1167,-12,10,-1
136253151,0.740478515625,-0.1387939453125,-0.6510009765625,-0.0931396484375,8121,-1049,1141,-11,10,-3
136263121,0.7410888671875,-0.13934326171875,-0.64996337890625,-0.0943603515625,8064,-999,1140,-10,9,-5
136273104,0.74169921875,-0.1397705078125,-0.64898681640625,-0.09564208984375,8023,-958,1140,-10,9,-5
136283086,0.74224853515625,-0.14007568359375,-0.6480712890625,-0.096923828125,7975,-915,1146,-9,8,-5
136293071,0.7427978515625,-0.140380859375,-0.64727783203125,-0.09814453125,7920,-884,1149,-9,7,-6
136303053,0.7432861328125,-0.140625,-0.646484375,-0.09930419921875,7857,-847,1164,-8,7,-6
136313035,0.74365234375,-0.14080810546875,-0.64581298828125,-0.1004638671875,7822,-827,1166,-8,6,-6
136323015,0.74395751953125,-0.14105224609375,-0.64520263671875,-0.10150146484375,7795,-793,1162,-7,5,-5
136333000,0.7442626953125,-0.1412353515625,-0.64471435546875,-0.10247802734375,7771,-757,1154,-7,4,-5
136342990,0.74444580078125,-0.1414794921875,-0.644287109375,-0.10333251953125,7762,-729,1152,-7,3,-4
136352972,0.74462890625,-0.14178466796875,-0.6439208984375,-0.1041259765625,7763,-695,1129,-7,3,-3
136362948,0.7447509765625,-0.14208984375,-0.6435546875,-0.10479736328125,7774,-659,1100,-7,3,-2
136372932,0.744873046875,-0.1424560546875,-0.64324951171875,-0.10552978515625,7785,-638,1050,-6,3,-2
136382915,0.74493408203125,-0.142822265625,-0.64300537109375,-0.106201171875,7807,-610,991,-6,2,-2
136392898,0.744873046875,-0.1431884765625,-0.64288330078125,-0.10687255859375,7854,-593,932,-6,1,-3
136402880,0.7447509765625,-0.14349365234375,-0.64276123046875,-0.10760498046875,7906,-598,881,-7,1,-4
136412863,0.74456787109375,-0.143798828125,-0.642822265625,-0.1083984375,7940,-615,846,-6,0,-4
136422848,0.74432373046875,-0.14410400390625,-0.64288330078125,-0.109130859375,7963,-641,809,-6,-1,-4
136432826,0.7440185546875,-0.1444091796875,-0.64306640625,-0.10980224609375,7975,-666,786,-6,-2,-4
136442811,0.74365234375,-0.14483642578125,-0.64337158203125,-0.11029052734375,7979,-692,764,-6,-3,-2
136452793,0.7431640625,-0.14532470703125,-0.6436767578125,-0.1107177734375,7985,-705,748,-5,-4,-2
136462782,0.74267578125,-0.1458740234375,-0.64410400390625,-0.1109619140625,7982,-723,734,-5,-5,0
136472767,0.74212646484375,-0.146484375,-0.64459228515625,-0.111083984375,7972,-747,708,-5,-6,0
136482749,0.7415771484375,-0.14703369140625,-0.64508056640625,-0.11114501953125,7949,-749,691,-4,-6,1
136492733,0.740966796875,-0.1475830078125,-0.6456298828125,-0.11114501953125,7930,-781,684,-4,-7,0
136502709,0.7403564453125,-0.1480712890625,-0.646240234375,-0.111083984375,7928,-803,675,-3,-7,0
136512697,0.73974609375,-0.14849853515625,-0.6468505859375,-0.111083984375,7914,-824,690,-3,-6,-1
136522673,0.73919677734375,-0.14874267578125,-0.64739990234375,-0.11114501953125,7922,-844,709,-2,-6,-2
136532655,0.7386474609375,-0.1488037109375,-0.64801025390625,-0.111328125,7941,-864,720,-2,-6,-4
136542639,0.73809814453125,-0.14862060546875,-0.6485595703125,-0.1116943359375,7976,-877,731,-1,-5,-6
136552621,0.73760986328125,-0.14825439453125,-0.64910888671875,-0.11224365234375,8029,-882,737,-1,-5,-9
136562603,0.73712158203125,-0.14764404296875,-0.64971923828125,-0.11297607421875,8081,-875,747,-1,-4,-11
136572590,0.7366943359375,-0.1468505859375,-0.65020751953125,-0.1138916015625,8117,-863,757,0,-3,-12
136582572,0.736328125,-0.14593505859375,-0.650634765625,-0.1148681640625,8143,-852,766,0,-2,-13
136592552,0.736083984375,-0.14508056640625,-0.65093994140625,-0.11572265625,8181,-818,775,0,-1,-12
136602537,0.73590087890625,-0.14434814453125,-0.65118408203125,-0.11651611328125,8206,-792,792,0,-1,-10
136612523,0.73583984375,-0.14385986328125,-0.65130615234375,-0.1170654296875,8222,-764,806,0,0,-7
136622506,0.73583984375,-0.14349365234375,-0.6512451171875,-0.117431640625,8231,-735,827,0,1,-4
136632488,0.7359619140625,-0.143310546875,-0.651123046875,-0.11761474609375,8238,-706,844,0,2,-3
136642472,0.73614501953125,-0.1431884765625,-0.65093994140625,-0.11767578125,8240,-677,870,0,2,-2
136652454,0.73638916015625,-0.14306640625,-0.65069580078125,-0.11785888671875,8238,-646,885,0,3,-2
136662443,0.73663330078125,-0.1429443359375,-0.650390625,-0.11810302734375,8219,-612,924,-1,3,-2
136672425,0.73687744140625,-0.142822265625,-0.65008544921875,-0.118408203125,8194,-573,940,-2,3,-3
136682408,0.73712158203125,-0.14263916015625,-0.64971923828125,-0.1187744140625,8170,-528,953,-2,3,-3
136692391,0.7374267578125,-0.14251708984375,-0.6494140625,-0.11920166015625,8148,-488,985,-2,3,-3
136702367,0.73760986328125,-0.142333984375,-0.64910888671875,-0.1197509765625,8129,-448,1005,-3,3,-4
136712347,0.73779296875,-0.1422119140625,-0.6488037109375,-0.1204833984375,8093,-403,1020,-4,2,-5
136722330,0.7379150390625,-0.14202880859375,-0.6485595703125,-0.12139892578125,8055,-367,1037,-4,2,-6
136732312,0.73797607421875,-0.1419677734375,-0.6483154296875,-0.12225341796875,7994,-337,1053,-5,2,-5
136742296,0.73797607421875,-0.14208984375,-0.6480712890625,-0.12298583984375,7939,-313,1067,-6,1,-2
136752287,0.73809814453125,-0.142578125,-0.6478271484375,-0.12347412109375,7870,-296,1094,-6,0,1
136762265,0.73809814453125,-0.14337158203125,-0.6475830078125,-0.1236572265625,7819,-283,1114,-7,0,4
