subject,Ian Lake
arm,left
label,3
hz,100.17348593632924
time,4.95141

timestamp_us,q0,q1,q2,q3,ax,ay,az,gx,gy,gz
44949893,-0.17340087890625,0.17352294921875,0.6767578125,-0.69415283203125,-357,-8089,-13,4,3,1
44959877,-0.17340087890625,0.17401123046875,0.67626953125,-0.6944580078125,-343,-8050,-20,4,2,2
44969857,-0.17340087890625,0.17449951171875,0.67584228515625,-0.69476318359375,-318,-8003,-15,4,2,3
44979845,-0.17333984375,0.17498779296875,0.67547607421875,-0.695068359375,-307,-7976,-18,3,2,3
44989826,-0.17327880859375,0.1754150390625,0.67510986328125,-0.69525146484375,-299,-7963,-21,3,2,2
44999809,-0.17327880859375,0.17572021484375,0.67486572265625,-0.6954345703125,-278,-7966,-9,2,1,1
45009792,-0.17327880859375,0.176025390625,0.67462158203125,-0.69561767578125,-257,-8026,-12,2,1,1
45019778,-0.1732177734375,0.1763916015625,0.67437744140625,-0.69573974609375,-240,-8117,-26,2,1,2
45029762,-0.173095703125,0.17681884765625,0.6741943359375,-0.69586181640625,-217,-8193,-44,2,1,3
45039746,-0.1728515625,0.17718505859375,0.67388916015625,-0.69610595703125,-201,-8281,-50,3,1,3
45049728,-0.1727294921875,0.177490234375,0.673583984375,-0.69635009765625,-169,-8363,-34,3,0,3
45059707,-0.1727294921875,0.1776123046875,0.67333984375,-0.69659423828125,-111,-8414,-29,4,0,1
45069693,-0.1729736328125,0.17742919921875,0.67303466796875,-0.69683837890625,-56,-8462,-7,4,0,-2
45079665,-0.1734619140625,0.17706298828125,0.6727294921875,-0.6971435546875,1,-8506,29,5,0,-5
45089649,-0.17425537109375,0.1763916015625,0.6724853515625,-0.69732666015625,76,-8549,92,5,0,-7
45099631,-0.17510986328125,0.175537109375,0.6722412109375,-0.69757080078125,148,-8583,167,4,0,-8
45109613,-0.17620849609375,0.17462158203125,0.6719970703125,-0.69781494140625,245,-8602,260,5,0,-9
45119597,-0.17724609375,0.17364501953125,0.67169189453125,-0.69805908203125,324,-8634,351,4,0,-9
45129581,-0.17822265625,0.172607421875,0.67144775390625,-0.6982421875,434,-8676,419,4,0,-8
45139565,-0.1793212890625,0.17156982421875,0.6712646484375,-0.69842529296875,574,-8731,462,3,-1,-9
45149545,-0.18060302734375,0.1702880859375,0.671142578125,-0.69854736328125,704,-8795,505,3,-1,-11
45159528,-0.18218994140625,0.16864013671875,0.671142578125,-0.69854736328125,838,-8855,539,4,-1,-15
45169510,-0.1842041015625,0.16656494140625,0.67120361328125,-0.698486328125,982,-8880,607,4,-1,-21
45179497,-0.186767578125,0.1639404296875,0.6712646484375,-0.69830322265625,1097,-8877,695,4,-1,-27
45189478,-0.18994140625,0.1607666015625,0.67132568359375,-0.6981201171875,1227,-8881,821,5,-1,-33
45199459,-0.19354248046875,0.1571044921875,0.6715087890625,-0.69781494140625,1328,-8915,938,5,-1,-39
45209443,-0.19781494140625,0.15283203125,0.67169189453125,-0.69744873046875,1405,-9014,1031,6,-1,-46
45219424,-0.20257568359375,0.14794921875,0.671875,-0.6968994140625,1475,-9168,1096,7,-2,-53
45229415,-0.2076416015625,0.14263916015625,0.6719970703125,-0.6964111328125,1542,-9323,1133,8,-3,-57
45239398,-0.212890625,0.13690185546875,0.67205810546875,-0.6959228515625,1636,-9504,1153,10,-4,-60
45249374,-0.2181396484375,0.13079833984375,0.67193603515625,-0.695556640625,1750,-9684,1169,13,-6,-61
45259356,-0.223388671875,0.1243896484375,0.671630859375,-0.69537353515625,1876,-9889,1186,16,-8,-62
45269344,-0.228515625,0.117431640625,0.67120361328125,-0.6953125,1998,-10116,1190,19,-11,-65
45279323,-0.23394775390625,0.10986328125,0.67059326171875,-0.69537353515625,2110,-10314,1178,22,-14,-72
45289308,-0.2398681640625,0.1011962890625,0.669921875,-0.6953125,2213,-10483,1172,25,-16,-82
45299288,-0.24664306640625,0.09136962890625,0.66912841796875,-0.695068359375,2349,-10582,1183,27,-19,-94
45309271,-0.25421142578125,0.080322265625,0.668212890625,-0.69451904296875,2499,-10617,1197,30,-20,-106
45319257,-0.262451171875,0.06817626953125,0.66717529296875,-0.69378662109375,2664,-10595,1223,32,-22,-116
45329237,-0.27117919921875,0.05517578125,0.666015625,-0.6927490234375,2852,-10517,1258,33,-24,-123
45339227,-0.28009033203125,0.04168701171875,0.66461181640625,-0.69146728515625,3054,-10387,1263,34,-25,-127
45349209,-0.2889404296875,0.02783203125,0.66302490234375,-0.69000244140625,3281,-10261,1255,35,-27,-128
45359189,-0.29766845703125,0.0137939453125,0.66131591796875,-0.68841552734375,3522,-10162,1239,36,-28,-128
45369183,-0.30596923828125,-0.000244140625,0.65948486328125,-0.6866455078125,3781,-10076,1220,37,-30,-127
45379168,-0.31402587890625,-0.01434326171875,0.657470703125,-0.684814453125,4045,-9953,1212,37,-31,-126
45389140,-0.32183837890625,-0.0284423828125,0.65533447265625,-0.68280029296875,4309,-9855,1201,37,-32,-125
45399120,-0.3294677734375,-0.0426025390625,0.65313720703125,-0.68048095703125,4569,-9748,1177,36,-33,-127
45409102,-0.3372802734375,-0.05706787109375,0.65081787109375,-0.6778564453125,4834,-9576,1184,36,-33,-130
45419084,-0.3453369140625,-0.07183837890625,0.6483154296875,-0.67474365234375,5076,-9360,1198,35,-33,-136
45429066,-0.35394287109375,-0.0870361328125,0.64569091796875,-0.6710205078125,5277,-9111,1216,33,-33,-143
45439049,-0.3631591796875,-0.10284423828125,0.64288330078125,-0.66656494140625,5467,-8903,1220,31,-33,-153
45449033,-0.37286376953125,-0.11895751953125,0.63983154296875,-0.66143798828125,5686,-8689,1211,30,-32,-159
45459017,-0.3829345703125,-0.13531494140625,0.6365966796875,-0.6556396484375,5895,-8418,1197,28,-31,-164
45468998,-0.3931884765625,-0.1517333984375,0.63311767578125,-0.6492919921875,6080,-8111,1183,26,-30,-167
45478988,-0.4033203125,-0.16796875,0.62945556640625,-0.642578125,6233,-7869,1152,24,-30,-168
45488970,-0.413330078125,-0.1839599609375,0.625732421875,-0.635498046875,6412,-7694,1115,23,-29,-167
45498947,-0.42303466796875,-0.19952392578125,0.621826171875,-0.628173828125,6579,-7480,1088,21,-28,-165
45508930,-0.43255615234375,-0.21466064453125,0.61785888671875,-0.62060546875,6751,-7223,1034,20,-27,-163
45518912,-0.44189453125,-0.22955322265625,0.61370849609375,-0.61279296875,6888,-6979,994,19,-26,-162
45528895,-0.45111083984375,-0.24407958984375,0.609375,-0.604736328125,7018,-6740,941,17,-25,-162
45538878,-0.4603271484375,-0.25830078125,0.6048583984375,-0.5963134765625,7153,-6449,899,16,-23,-163
45548859,-0.46966552734375,-0.27239990234375,0.60003662109375,-0.58758544921875,7247,-6115,885,14,-22,-164
45558841,-0.47930908203125,-0.28643798828125,0.59478759765625,-0.57830810546875,7300,-5812,866,12,-20,-170
45568826,-0.4892578125,-0.30047607421875,0.58917236328125,-0.56854248046875,7362,-5519,832,11,-18,-175
45578808,-0.49951171875,-0.3145751953125,0.5831298828125,-0.55816650390625,7434,-5193,801,10,-17,-179
45588790,-0.50994873046875,-0.32855224609375,0.57666015625,-0.54730224609375,7488,-4849,778,8,-14,-183
45598778,-0.5203857421875,-0.34228515625,0.56988525390625,-0.53607177734375,7545,-4560,735,6,-13,-183
45608764,-0.53076171875,-0.35552978515625,0.5628662109375,-0.5245361328125,7602,-4298,679,4,-11,-184
45618746,-0.54083251953125,-0.3681640625,0.5557861328125,-0.512939453125,7660,-4037,597,3,-10,-179
45628728,-0.5504150390625,-0.380126953125,0.548828125,-0.50140380859375,7729,-3797,525,1,-8,-173
45638705,-0.5594482421875,-0.3912353515625,0.54193115234375,-0.49017333984375,7797,-3557,446,0,-7,-166
45648688,-0.568115234375,-0.4017333984375,0.53515625,-0.47906494140625,7835,-3342,382,-1,-6,-162
45658670,-0.5765380859375,-0.41168212890625,0.52825927734375,-0.46807861328125,7904,-3134,310,-2,-4,-160
45668648,-0.58489990234375,-0.4212646484375,0.5211181640625,-0.45709228515625,7975,-2878,272,-3,-2,-159
45678636,-0.59320068359375,-0.43060302734375,0.513671875,-0.4459228515625,8067,-2682,222,-4,1,-160
45688615,-0.6015625,-0.4395751953125,0.50592041015625,-0.43475341796875,8175,-2487,164,-4,4,-161
45698599,-0.60986328125,-0.44830322265625,0.497802734375,-0.42352294921875,8264,-2293,122,-5,7,-162
45708582,-0.6181640625,-0.4566650390625,0.48931884765625,-0.4122314453125,8327,-2100,78,-5,9,-162
45718564,-0.6263427734375,-0.4647216796875,0.48052978515625,-0.4010009765625,8364,-1910,63,-5,12,-162
45728546,-0.63446044921875,-0.4725341796875,0.471435546875,-0.3897705078125,8395,-1731,38,-5,14,-163
45738536,-0.64251708984375,-0.48028564453125,0.46197509765625,-0.37841796875,8370,-1556,23,-5,15,-165
45748510,-0.650634765625,-0.488037109375,0.451904296875,-0.36663818359375,8282,-1380,35,-4,16,-171
45758495,-0.65887451171875,-0.49615478515625,0.44091796875,-0.35400390625,8114,-1194,42,-3,17,-183
45768476,-0.66741943359375,-0.5048828125,0.42889404296875,-0.34014892578125,7908,-1001,74,-2,17,-197
45778460,-0.67620849609375,-0.5142822265625,0.41571044921875,-0.32489013671875,7636,-757,154,-1,16,-212
45788447,-0.68499755859375,-0.52410888671875,0.40130615234375,-0.308349609375,7320,-438,256,0,15,-224
45798425,-0.69378662109375,-0.5343017578125,0.38592529296875,-0.29046630859375,6905,-63,401,0,12,-235
45808416,-0.7022705078125,-0.54461669921875,0.36962890625,-0.27142333984375,6441,352,555,1,10,-242
45818399,-0.71026611328125,-0.5548095703125,0.3529052734375,-0.25146484375,5953,750,713,1,7,-245
45828375,-0.71759033203125,-0.564697265625,0.33612060546875,-0.23101806640625,5458,1135,857,1,3,-244
45838361,-0.72406005859375,-0.57403564453125,0.3194580078125,-0.21038818359375,4935,1509,1001,1,-1,-239
45848338,-0.7296142578125,-0.58282470703125,0.3033447265625,-0.18988037109375,4374,1856,1140,2,-5,-230
45858322,-0.73431396484375,-0.5909423828125,0.287841796875,-0.16973876953125,3816,2194,1266,3,-9,-220
45868304,-0.738037109375,-0.598388671875,0.2733154296875,-0.150146484375,3255,2487,1390,4,-13,-207
45878287,-0.740966796875,-0.60516357421875,0.25994873046875,-0.131591796875,2731,2696,1473,5,-17,-191
45888270,-0.742919921875,-0.6112060546875,0.24798583984375,-0.1141357421875,2244,2897,1538,7,-20,-173
45898253,-0.74420166015625,-0.61669921875,0.23736572265625,-0.09796142578125,1806,3067,1591,8,-24,-156
45908231,-0.744873046875,-0.62152099609375,0.22821044921875,-0.0830078125,1401,3245,1659,9,-26,-139
45918225,-0.7449951171875,-0.62591552734375,0.2203369140625,-0.06927490234375,1039,3408,1703,10,-29,-124
45928207,-0.7447509765625,-0.62982177734375,0.21343994140625,-0.0565185546875,686,3577,1730,11,-30,-111
45938188,-0.74420166015625,-0.6334228515625,0.2073974609375,-0.0445556640625,366,3745,1767,11,-31,-100
45948183,-0.7435302734375,-0.6365966796875,0.20208740234375,-0.0333251953125,75,3944,1819,11,-32,-92
45958168,-0.74273681640625,-0.6395263671875,0.19732666015625,-0.02264404296875,-188,4184,1847,10,-32,-85
45968148,-0.74188232421875,-0.64215087890625,0.19287109375,-0.01239013671875,-436,4480,1880,9,-32,-79
45978119,-0.74114990234375,-0.64434814453125,0.18865966796875,-0.0025634765625,-677,4787,1905,7,-31,-73
45988101,-0.740478515625,-0.64617919921875,0.18475341796875,0.00665283203125,-901,5045,1910,5,-29,-67
45998084,-0.739990234375,-0.6475830078125,0.1812744140625,0.01519775390625,-1097,5255,1911,2,-27,-59
46008063,-0.73974609375,-0.64849853515625,0.17822265625,0.0228271484375,-1241,5410,1935,0,-25,-50
46018047,-0.73968505859375,-0.64898681640625,0.17584228515625,0.02923583984375,-1365,5493,1945,-2,-22,-38
46028028,-0.7398681640625,-0.64898681640625,0.17413330078125,0.03424072265625,-1474,5544,1933,-4,-18,-25
46038010,-0.74017333984375,-0.648681640625,0.17315673828125,0.03778076171875,-1573,5551,1903,-5,-14,-11
46047994,-0.74066162109375,-0.64801025390625,0.17303466796875,0.03973388671875,-1652,5517,1857,-5,-11,3
46057978,-0.74127197265625,-0.64715576171875,0.1737060546875,0.0399169921875,-1700,5444,1781,-4,-6,19
46067954,-0.74188232421875,-0.6461181640625,0.1754150390625,0.038330078125,-1713,5317,1694,-3,-3,35
46077941,-0.74249267578125,-0.6448974609375,0.17803955078125,0.03485107421875,-1677,5174,1595,-2,1,51
46087924,-0.7430419921875,-0.64349365234375,0.181640625,0.0296630859375,-1614,4990,1501,1,5,66
46097906,-0.743408203125,-0.64202880859375,0.18621826171875,0.02264404296875,-1481,4778,1409,3,8,81
46107889,-0.74359130859375,-0.64044189453125,0.19183349609375,0.01397705078125,-1338,4566,1279,7,10,96
46117872,-0.743408203125,-0.6387939453125,0.19842529296875,0.00372314453125,-1157,4345,1148,10,12,111
46127853,-0.7427978515625,-0.63702392578125,0.2059326171875,-0.00811767578125,-958,4148,994,13,14,124
46137841,-0.7418212890625,-0.63507080078125,0.21453857421875,-0.021484375,-731,3993,859,16,15,138
46147823,-0.74029541015625,-0.6328125,0.22406005859375,-0.03619384765625,-471,3880,746,19,15,151
46157807,-0.73828125,-0.63031005859375,0.23455810546875,-0.0521240234375,-180,3827,650,21,15,163
46167788,-0.73577880859375,-0.6273193359375,0.2457275390625,-0.0689697265625,117,3798,578,22,15,172
46177769,-0.7327880859375,-0.62396240234375,0.25750732421875,-0.08648681640625,422,3778,489,24,14,179
46187759,-0.72918701171875,-0.62017822265625,0.2698974609375,-0.10455322265625,744,3738,400,24,12,187
46197743,-0.72509765625,-0.61572265625,0.28289794921875,-0.12310791015625,1073,3660,332,23,11,194
46207726,-0.72039794921875,-0.6107177734375,0.2965087890625,-0.14202880859375,1450,3555,241,22,8,199
46217703,-0.71514892578125,-0.6051025390625,0.31060791015625,-0.1611328125,1858,3437,177,21,6,203
46227686,-0.70941162109375,-0.598876953125,0.3250732421875,-0.18017578125,2295,3333,118,19,3,206
46237666,-0.70330810546875,-0.591796875,0.33990478515625,-0.1990966796875,2753,3219,94,15,1,208
46247651,-0.6968994140625,-0.5841064453125,0.354736328125,-0.2176513671875,3215,3100,56,12,-1,207
46257631,-0.690185546875,-0.575927734375,0.3695068359375,-0.23553466796875,3679,2916,-7,9,-3,204
46267612,-0.68310546875,-0.567138671875,0.3843994140625,-0.25299072265625,4171,2665,-83,6,-5,204
46277595,-0.67559814453125,-0.55767822265625,0.3994140625,-0.27032470703125,4662,2328,-153,3,-6,205
46287579,-0.6676025390625,-0.547607421875,0.41461181640625,-0.28741455078125,5146,1965,-240,1,-8,206
46297559,-0.65911865234375,-0.537109375,0.4296875,-0.30413818359375,5627,1607,-293,0,-9,204
46307542,-0.650390625,-0.52618408203125,0.4444580078125,-0.32037353515625,6099,1212,-329,-1,-10,201
46317522,-0.6412353515625,-0.5150146484375,0.45892333984375,-0.33612060546875,6559,825,-372,-2,-10,199
46327506,-0.6318359375,-0.5035400390625,0.47308349609375,-0.3514404296875,6995,414,-414,-3,-11,196
46337488,-0.621826171875,-0.49176025390625,0.487060546875,-0.36651611328125,7436,-33,-487,-2,-12,197
46347470,-0.611083984375,-0.4794921875,0.50103759765625,-0.38165283203125,7809,-387,-512,-2,-13,202
46357454,-0.599853515625,-0.46685791015625,0.5147705078125,-0.39666748046875,8116,-692,-480,-1,-14,204
46367443,-0.5882568359375,-0.4539794921875,0.52801513671875,-0.41119384765625,8409,-953,-422,-1,-15,201
46377423,-0.57684326171875,-0.44134521484375,0.5404052734375,-0.4248046875,8639,-1166,-304,-2,-15,193
46387407,-0.56585693359375,-0.4290771484375,0.5518798828125,-0.437255859375,8888,-1474,-266,-3,-15,180
46397390,-0.5550537109375,-0.417236328125,0.56256103515625,-0.44873046875,9152,-1724,-263,-4,-14,172
46407365,-0.54425048828125,-0.40533447265625,0.57281494140625,-0.45977783203125,9373,-1975,-208,-4,-14,172
46417349,-0.533203125,-0.39300537109375,0.5828857421875,-0.470703125,9539,-2185,-150,-6,-14,175
46427331,-0.522216796875,-0.38043212890625,0.592529296875,-0.481201171875,9613,-2198,-12,-8,-13,174
46437312,-0.51202392578125,-0.3682861328125,0.60125732421875,-0.49066162109375,9598,-2245,144,-10,-11,161
46447296,-0.50323486328125,-0.35699462890625,0.60888671875,-0.4986572265625,9576,-2333,257,-13,-8,141
46457287,-0.495849609375,-0.34674072265625,0.61541748046875,-0.50518798828125,9578,-2517,300,-16,-4,122
46467261,-0.4892578125,-0.3367919921875,0.621337890625,-0.510986328125,9625,-2917,277,-18,-1,115
46477250,-0.48236083984375,-0.32598876953125,0.62744140625,-0.51708984375,9719,-3461,195,-20,2,124
46487234,-0.47412109375,-0.3134765625,0.6341552734375,-0.52423095703125,9735,-3968,91,-20,4,145
46497216,-0.46441650390625,-0.29913330078125,0.641357421875,-0.532470703125,9639,-4297,43,-19,5,167
46507200,-0.4539794921875,-0.2838134765625,0.64849853515625,-0.5411376953125,9407,-4386,123,-19,6,174
46517189,-0.44451904296875,-0.26922607421875,0.654541015625,-0.549072265625,9067,-4319,285,-19,9,157
46527171,-0.437255859375,-0.256591796875,0.6591796875,-0.555419921875,8683,-4500,423,-19,13,125
46537154,-0.43194580078125,-0.24566650390625,0.6627197265625,-0.56024169921875,8470,-5001,372,-20,17,98
46547124,-0.427001953125,-0.2352294921875,0.66595458984375,-0.56463623046875,8402,-5594,247,-18,18,97
46557107,-0.4205322265625,-0.22332763671875,0.6695556640625,-0.570068359375,8339,-6331,48,-15,18,120
46567090,-0.411376953125,-0.20904541015625,0.6737060546875,-0.57720947265625,8201,-6938,-125,-11,16,152
46577073,-0.40020751953125,-0.19305419921875,0.67803955078125,-0.5855712890625,7949,-7219,-206,-7,15,173
46587057,-0.388671875,-0.17706298828125,0.6817626953125,-0.593994140625,7610,-7137,-138,-4,14,171
46597045,-0.37860107421875,-0.16290283203125,0.68438720703125,-0.60150146484375,7167,-6707,37,-2,14,147
46607019,-0.3714599609375,-0.15179443359375,0.685791015625,-0.60723876953125,6678,-6268,255,-2,16,108
46617004,-0.3671875,-0.1435546875,0.6864013671875,-0.611083984375,6271,-6117,351,-4,19,72
46626989,-0.364501953125,-0.13665771484375,0.686767578125,-0.6138916015625,6033,-6166,354,-6,20,58
46636974,-0.361083984375,-0.129150390625,0.6875,-0.61669921875,5951,-6437,232,-7,19,72
46646952,-0.3551025390625,-0.1190185546875,0.6888427734375,-0.62066650390625,5929,-6788,77,-7,17,108
46656934,-0.3458251953125,-0.1058349609375,0.6907958984375,-0.62615966796875,5851,-7093,-23,-7,15,146
46666917,-0.33441162109375,-0.0906982421875,0.69281005859375,-0.6324462890625,5696,-7233,-71,-6,13,165
46676900,-0.32269287109375,-0.075439453125,0.694580078125,-0.6385498046875,5487,-7287,-68,-7,12,162
46686881,-0.31231689453125,-0.0616455078125,0.69598388671875,-0.6436767578125,5305,-7424,-75,-8,13,142
46696864,-0.3037109375,-0.04974365234375,0.69720458984375,-0.6474609375,5250,-7833,-119,-10,13,118
46706847,-0.2962646484375,-0.0391845703125,0.6983642578125,-0.650390625,5378,-8397,-207,-12,12,106
46716831,-0.28887939453125,-0.02880859375,0.6995849609375,-0.6529541015625,5626,-9055,-288,-12,12,109
46726813,-0.2806396484375,-0.0177001953125,0.70068359375,-0.65570068359375,5911,-9745,-324,-12,11,121
46736795,-0.27166748046875,-0.005859375,0.70159912109375,-0.65875244140625,6192,-10399,-320,-12,11,130
46746779,-0.2626953125,0.0059814453125,0.70220947265625,-0.6617431640625,6450,-11006,-289,-11,11,128
46756767,-0.25469970703125,0.01678466796875,0.7025146484375,-0.664306640625,6715,-11609,-246,-9,13,116
46766749,-0.24853515625,0.02593994140625,0.70257568359375,-0.66632080078125,7001,-12128,-227,-8,14,96
46776733,-0.24444580078125,0.032958984375,0.70245361328125,-0.6676025390625,7251,-12474,-213,-6,15,72
46786709,-0.24267578125,0.03765869140625,0.70220947265625,-0.66827392578125,7436,-12664,-169,-4,16,45
46796691,-0.24346923828125,0.039794921875,0.70184326171875,-0.66827392578125,7514,-12652,-72,-2,17,15
46806677,-0.246826171875,0.039306640625,0.70135498046875,-0.66754150390625,7512,-12477,56,0,17,-16
46816656,-0.25262451171875,0.0362548828125,0.70086669921875,-0.66607666015625,7433,-12155,247,0,18,-46
46826639,-0.260498046875,0.0311279296875,0.70037841796875,-0.663818359375,7336,-11658,456,-1,17,-70
46836619,-0.269775390625,0.02447509765625,0.69989013671875,-0.66094970703125,7218,-11094,670,-1,17,-86
46846601,-0.2796630859375,0.01702880859375,0.6993408203125,-0.6575927734375,7120,-10532,856,-3,16,-93
46856581,-0.289306640625,0.009521484375,0.6988525390625,-0.65411376953125,7051,-10043,999,-4,14,-90
46866566,-0.29803466796875,0.00262451171875,0.6983642578125,-0.65069580078125,6997,-9697,1104,-5,12,-82
46876549,-0.3057861328125,-0.00360107421875,0.697998046875,-0.6475830078125,6959,-9532,1136,-5,9,-73
46886536,-0.31256103515625,-0.00946044921875,0.6976318359375,-0.64459228515625,6958,-9517,1108,-4,6,-68
46896515,-0.31884765625,-0.015380859375,0.69732666015625,-0.64178466796875,7002,-9638,1050,-2,3,-68
46906502,-0.32513427734375,-0.02197265625,0.69683837890625,-0.638916015625,7077,-9814,985,1,0,-75
46916484,-0.3319091796875,-0.0296630859375,0.69622802734375,-0.63580322265625,7155,-10033,881,4,-2,-87
46926464,-0.33929443359375,-0.038818359375,0.69549560546875,-0.6322021484375,7274,-10279,757,7,-5,-101
46936448,-0.347412109375,-0.04937744140625,0.69439697265625,-0.62823486328125,7421,-10461,610,10,-8,-115
46946429,-0.35614013671875,-0.06134033203125,0.693115234375,-0.62371826171875,7586,-10552,462,13,-10,-127
46956419,-0.36541748046875,-0.0743408203125,0.69140625,-0.6187744140625,7742,-10598,334,15,-11,-139
46966401,-0.3753662109375,-0.08856201171875,0.6893310546875,-0.61328125,7898,-10569,219,17,-12,-152
46976384,-0.38604736328125,-0.10394287109375,0.68682861328125,-0.60699462890625,8061,-10426,127,18,-13,-166
46986360,-0.39764404296875,-0.1204833984375,0.68377685546875,-0.599853515625,8204,-10211,57,19,-13,-180
46996344,-0.40985107421875,-0.13787841796875,0.68017578125,-0.5919189453125,8334,-9955,-20,19,-12,-192
47006326,-0.4224853515625,-0.15576171875,0.676025390625,-0.58331298828125,8442,-9688,-81,19,-10,-199
47016309,-0.43499755859375,-0.173583984375,0.6715087890625,-0.57427978515625,8547,-9410,-159,19,-10,-201
47026292,-0.4471435546875,-0.19097900390625,0.66656494140625,-0.5650634765625,8674,-9135,-212,19,-8,-197
47036272,-0.45867919921875,-0.2076416015625,0.661376953125,-0.55596923828125,8809,-8880,-248,19,-7,-191
47046258,-0.46954345703125,-0.22344970703125,0.65606689453125,-0.54705810546875,8949,-8651,-306,18,-6,-184
47056235,-0.47979736328125,-0.2384033203125,0.6505126953125,-0.538330078125,9092,-8422,-340,19,-4,-178
47066228,-0.48968505859375,-0.25274658203125,0.644775390625,-0.52978515625,9194,-8197,-372,18,-2,-174
47076217,-0.4993896484375,-0.26666259765625,0.63873291015625,-0.5211181640625,9235,-7879,-372,18,0,-174
47086200,-0.50933837890625,-0.2806396484375,0.63201904296875,-0.51220703125,9211,-7543,-353,18,3,-180
47096185,-0.51971435546875,-0.29498291015625,0.62469482421875,-0.502685546875,9122,-7153,-320,19,5,-188
47106168,-0.53057861328125,-0.3095703125,0.61651611328125,-0.4925537109375,9001,-6707,-270,18,8,-196
47116149,-0.541748046875,-0.3243408203125,0.60760498046875,-0.48187255859375,8857,-6266,-198,18,11,-202
47126119,-0.55291748046875,-0.33880615234375,0.59808349609375,-0.470947265625,8690,-5767,-157,18,13,-201
47136102,-0.56378173828125,-0.352783203125,0.5882568359375,-0.46014404296875,8470,-5227,-118,18,16,-197
47146084,-0.57415771484375,-0.36590576171875,0.5782470703125,-0.4495849609375,8225,-4702,-94,18,18,-188
47156067,-0.58392333984375,-0.37811279296875,0.5682373046875,-0.43951416015625,7975,-4195,-72,17,20,-178
47166051,-0.59295654296875,-0.38922119140625,0.55853271484375,-0.4300537109375,7747,-3763,-84,16,21,-167
47176035,-0.60150146484375,-0.3995361328125,0.54901123046875,-0.42095947265625,7513,-3361,-89,15,22,-160
47186019,-0.60968017578125,-0.4093017578125,0.53948974609375,-0.4119873046875,7251,-3005,-90,14,23,-157
47196005,-0.6177978515625,-0.4188232421875,0.52984619140625,-0.40277099609375,7013,-2705,-99,11,23,-159
47205989,-0.62603759765625,-0.42828369140625,0.5198974609375,-0.3929443359375,6788,-2356,-72,9,23,-163
47215976,-0.634521484375,-0.437744140625,0.50958251953125,-0.38232421875,6553,-2064,-48,7,23,-169
47225952,-0.64312744140625,-0.4471435546875,0.4989013671875,-0.3709716796875,6311,-1797,-5,4,23,-174
47235932,-0.65179443359375,-0.45654296875,0.4879150390625,-0.35882568359375,6090,-1529,36,1,21,-179
47245917,-0.66046142578125,-0.4658203125,0.47674560546875,-0.34588623046875,5834,-1274,95,-2,19,-184
47255896,-0.66912841796875,-0.47503662109375,0.46514892578125,-0.33203125,5530,-1036,146,-5,18,-189
47265879,-0.67779541015625,-0.4842529296875,0.4532470703125,-0.31732177734375,5233,-813,211,-8,16,-195
47275863,-0.68634033203125,-0.49334716796875,0.4410400390625,-0.3017578125,4931,-613,269,-10,14,-199
47285846,-0.694580078125,-0.502197265625,0.4287109375,-0.28558349609375,4611,-424,345,-11,11,-201
47295828,-0.702392578125,-0.5107421875,0.4163818359375,-0.2691650390625,4276,-218,432,-12,9,-199
47305809,-0.709716796875,-0.5189208984375,0.404052734375,-0.2525634765625,3933,4,542,-12,6,-196
47315793,-0.71649169921875,-0.52667236328125,0.39190673828125,-0.23602294921875,3550,226,661,-12,4,-191
47325778,-0.72283935546875,-0.5340576171875,0.37969970703125,-0.219482421875,3157,460,787,-12,3,-188
47335765,-0.72869873046875,-0.54107666015625,0.3675537109375,-0.203125,2729,736,916,-11,3,-183
47345747,-0.73406982421875,-0.54766845703125,0.35540771484375,-0.18695068359375,2278,1011,1061,-11,2,-177
47355730,-0.73895263671875,-0.55377197265625,0.34344482421875,-0.17132568359375,1813,1292,1194,-10,3,-168
47365706,-0.74334716796875,-0.55926513671875,0.3319091796875,-0.15667724609375,1365,1566,1316,-9,4,-155
47375688,-0.74713134765625,-0.56402587890625,0.32110595703125,-0.1435546875,970,1799,1443,-7,5,-137
47385669,-0.7503662109375,-0.56793212890625,0.31134033203125,-0.13238525390625,644,1992,1564,-5,8,-117
47395654,-0.75311279296875,-0.571044921875,0.30255126953125,-0.12347412109375,358,2149,1670,-2,12,-95
47405641,-0.75543212890625,-0.57354736328125,0.2945556640625,-0.11669921875,135,2261,1768,1,17,-76
47415621,-0.7574462890625,-0.5755615234375,0.28717041015625,-0.11212158203125,-70,2345,1838,4,23,-58
47425603,-0.75909423828125,-0.57720947265625,0.28033447265625,-0.1097412109375,-272,2454,1886,8,29,-40
47435585,-0.7603759765625,-0.57855224609375,0.274169921875,-0.109619140625,-492,2619,1889,12,36,-21
47445565,-0.76123046875,-0.57958984375,0.2686767578125,-0.111572265625,-757,2814,1867,16,40,-1
47455552,-0.76171875,-0.58038330078125,0.26409912109375,-0.115478515625,-1048,3032,1802,18,43,18
47465536,-0.76171875,-0.5806884765625,0.26055908203125,-0.121337890625,-1329,3158,1733,21,45,37
47475517,-0.76129150390625,-0.58062744140625,0.25830078125,-0.12908935546875,-1570,3266,1642,23,44,57
47485499,-0.76019287109375,-0.58013916015625,0.2576904296875,-0.13873291015625,-1723,3351,1549,25,43,79
47495482,-0.7584228515625,-0.57904052734375,0.2587890625,-0.15032958984375,-1781,3395,1457,26,40,101
47505467,-0.7559814453125,-0.57745361328125,0.26153564453125,-0.16357421875,-1812,3452,1362,27,38,120
47515450,-0.75286865234375,-0.57525634765625,0.2657470703125,-0.17816162109375,-1781,3529,1294,27,34,136
47525432,-0.7491455078125,-0.5726318359375,0.27117919921875,-0.1934814453125,-1708,3580,1241,26,29,147
47535424,-0.7449951171875,-0.5693359375,0.27764892578125,-0.209228515625,-1574,3570,1226,24,25,156
47545408,-0.740478515625,-0.56549072265625,0.28509521484375,-0.22528076171875,-1386,3563,1186,20,20,163
47555389,-0.73553466796875,-0.56097412109375,0.29345703125,-0.241455078125,-1144,3546,1159,17,16,170
47565365,-0.73016357421875,-0.5556640625,0.3028564453125,-0.25775146484375,-871,3474,1141,12,11,177
47575349,-0.72442626953125,-0.5494384765625,0.3133544921875,-0.27423095703125,-558,3321,1135,6,6,185
47585330,-0.71820068359375,-0.542236328125,0.324951171875,-0.291015625,-203,3119,1126,1,2,194
47595311,-0.71124267578125,-0.533935546875,0.33782958984375,-0.30816650390625,204,2873,1102,-5,-3,204
47605288,-0.70361328125,-0.5245361328125,0.3519287109375,-0.3255615234375,655,2574,1027,-10,-6,213
47615270,-0.6953125,-0.51409912109375,0.36700439453125,-0.34295654296875,1152,2228,966,-16,-11,220
47625253,-0.68646240234375,-0.50274658203125,0.38262939453125,-0.360107421875,1729,1802,911,-21,-13,221
47635233,-0.67718505859375,-0.490478515625,0.398681640625,-0.37677001953125,2395,1327,813,-27,-15,221
47645224,-0.66741943359375,-0.4774169921875,0.4150390625,-0.39300537109375,3138,733,703,-31,-16,221
47655206,-0.6568603515625,-0.46331787109375,0.431884765625,-0.4091796875,3925,17,550,-35,-17,226
47665187,-0.645263671875,-0.4481201171875,0.44915771484375,-0.42559814453125,4695,-716,386,-37,-17,234
47675178,-0.63250732421875,-0.43194580078125,0.466796875,-0.44219970703125,5445,-1456,211,-37,-17,241
47685168,-0.618896484375,-0.41510009765625,0.484130859375,-0.4586181640625,6100,-2039,62,-37,-16,243
47695138,-0.6051025390625,-0.398193359375,0.50054931640625,-0.47412109375,6667,-2628,-29,-36,-15,234
47705113,-0.591552734375,-0.381591796875,0.5157470703125,-0.4884033203125,7271,-3329,-100,-35,-12,219
47715096,-0.57830810546875,-0.3653564453125,0.52960205078125,-0.5015869140625,7813,-3861,-113,-34,-10,208
47725080,-0.56536865234375,-0.34942626953125,0.5423583984375,-0.51397705078125,8265,-4348,-142,-31,-7,201
47735062,-0.552490234375,-0.3336181640625,0.55413818359375,-0.52581787109375,8563,-4603,-105,-30,-5,197
47745045,-0.5401611328125,-0.31829833984375,0.56463623046875,-0.53680419921875,8742,-4828,-14,-28,-2,187
47755034,-0.52838134765625,-0.30340576171875,0.57421875,-0.546875,8899,-5098,57,-28,0,176
47765012,-0.51739501953125,-0.28912353515625,0.582763671875,-0.5560302734375,9004,-5206,188,-27,2,165
47774993,-0.50726318359375,-0.27545166015625,0.59033203125,-0.56427001953125,9041,-5315,310,-27,5,155
47784984,-0.497802734375,-0.26226806640625,0.59710693359375,-0.57177734375,9020,-5368,434,-27,7,146
47794959,-0.4891357421875,-0.24951171875,0.6031494140625,-0.57855224609375,8937,-5444,592,-27,9,138
47804942,-0.48065185546875,-0.23663330078125,0.60888671875,-0.5850830078125,8891,-5787,682,-28,11,136
47814926,-0.47161865234375,-0.2230224609375,0.6146240234375,-0.59173583984375,8859,-6067,745,-29,12,145
47824908,-0.46142578125,-0.20843505859375,0.6204833984375,-0.59893798828125,8770,-6267,795,-29,11,161
47834894,-0.4501953125,-0.19287109375,0.62640380859375,-0.6064453125,8614,-6435,838,-29,10,170
47844875,-0.43890380859375,-0.177490234375,0.63189697265625,-0.6136474609375,8399,-6341,936,-29,10,166
47854857,-0.428955078125,-0.16339111328125,0.63671875,-0.61962890625,8100,-6254,1051,-30,11,146
47864842,-0.42108154296875,-0.15106201171875,0.6407470703125,-0.62396240234375,7812,-6260,1177,-32,13,118
47874823,-0.41522216796875,-0.14044189453125,0.6441650390625,-0.6268310546875,7575,-6290,1287,-34,14,96
47884806,-0.41009521484375,-0.1304931640625,0.6474609375,-0.62896728515625,7427,-6551,1277,-35,15,90
47894790,-0.404052734375,-0.1195068359375,0.651123046875,-0.63128662109375,7325,-6880,1239,-37,14,105
47904768,-0.39593505859375,-0.106689453125,0.655029296875,-0.63470458984375,7159,-7055,1250,-37,13,131
47914760,-0.38580322265625,-0.09210205078125,0.6590576171875,-0.6390380859375,6888,-7044,1265,-37,11,154
47924743,-0.3748779296875,-0.076904296875,0.66290283203125,-0.64349365234375,6529,-6789,1347,-38,10,157
47934719,-0.364990234375,-0.062744140625,0.66632080078125,-0.647216796875,6074,-6485,1458,-39,11,140
47944704,-0.35723876953125,-0.05047607421875,0.66925048828125,-0.64959716796875,5620,-6368,1561,-40,13,111
47954687,-0.35174560546875,-0.04022216796875,0.671875,-0.65057373046875,5280,-6494,1573,-41,15,84
47964670,-0.347412109375,-0.03106689453125,0.6744384765625,-0.6507568359375,5088,-6910,1479,-41,16,72
47974652,-0.3426513671875,-0.0216064453125,0.67706298828125,-0.65093994140625,5063,-7438,1326,-39,16,82
47984636,-0.3360595703125,-0.01055908203125,0.67962646484375,-0.6519775390625,5074,-7928,1159,-37,14,106
47994620,-0.32708740234375,0.00250244140625,0.681884765625,-0.65423583984375,5057,-8340,1034,-35,14,134
48004601,-0.31658935546875,0.01708984375,0.68377685546875,-0.6572265625,4984,-8638,1012,-32,14,150
48014583,-0.3057861328125,0.03204345703125,0.68499755859375,-0.66046142578125,4852,-9038,1097,-31,16,151
48024566,-0.29547119140625,0.04681396484375,0.68585205078125,-0.6634521484375,4738,-9751,1190,-30,18,144
48034548,-0.285888671875,0.0611572265625,0.686279296875,-0.666015625,4734,-10737,1216,-29,21,137
48047989,-0.276611328125,0.07550048828125,0.68646240234375,-0.66827392578125,4853,-11776,1175,-28,25,138
48054513,-0.26727294921875,0.090087890625,0.6861572265625,-0.6705322265625,5033,-12778,1051,-26,27,145
48064497,-0.25750732421875,0.105224609375,0.68536376953125,-0.67303466796875,5182,-13709,861,-21,28,152
48074479,-0.24774169921875,0.1201171875,0.68402099609375,-0.675537109375,5217,-14419,613,-15,28,150
48084462,-0.23919677734375,0.13348388671875,0.68231201171875,-0.67779541015625,5129,-14923,358,-9,27,132
48094445,-0.23321533203125,0.14385986328125,0.6805419921875,-0.6795654296875,4896,-15179,200,-3,26,95
48104427,-0.2310791015625,0.14996337890625,0.67901611328125,-0.68048095703125,4549,-15235,148,2,23,43
48114416,-0.23345947265625,0.15106201171875,0.67816162109375,-0.6802978515625,4161,-15068,216,7,20,-15
48124394,-0.2403564453125,0.14715576171875,0.67803955078125,-0.67889404296875,3839,-14679,384,9,18,-71
48134370,-0.25103759765625,0.13909912109375,0.67840576171875,-0.67633056640625,3659,-14045,656,9,15,-116
48144354,-0.26422119140625,0.1280517578125,0.67919921875,-0.67266845703125,3577,-13258,938,9,13,-145
48154337,-0.2784423828125,0.11541748046875,0.6800537109375,-0.66839599609375,3590,-12409,1213,8,10,-156
48164320,-0.29229736328125,0.1025390625,0.68072509765625,-0.663818359375,3684,-11608,1429,6,7,-152
48174304,-0.3046875,0.09051513671875,0.6812744140625,-0.659423828125,3811,-10930,1585,6,3,-136
48184287,-0.31488037109375,0.0799560546875,0.68157958984375,-0.65570068359375,3956,-10393,1679,5,-1,-113
48194264,-0.32281494140625,0.0711669921875,0.68170166015625,-0.6527099609375,4089,-10042,1725,5,-5,-90
48204250,-0.32867431640625,0.06365966796875,0.681640625,-0.65057373046875,4211,-9901,1748,7,-9,-72
48214236,-0.3331298828125,0.0570068359375,0.68157958984375,-0.6490478515625,4343,-9918,1726,8,-13,-61
48224219,-0.3367919921875,0.05023193359375,0.6815185546875,-0.64776611328125,4523,-10067,1671,10,-17,-59
48234201,-0.34033203125,0.0428466796875,0.681396484375,-0.64654541015625,4724,-10318,1585,14,-21,-64
48244189,-0.34423828125,0.03436279296875,0.68133544921875,-0.64508056640625,4955,-10588,1474,17,-25,-74
48254172,-0.34881591796875,0.0242919921875,0.68115234375,-0.64324951171875,5193,-10886,1345,20,-28,-89
48264154,-0.35430908203125,0.01251220703125,0.680908203125,-0.640869140625,5429,-11165,1191,24,-31,-107
48274133,-0.36083984375,-0.00115966796875,0.680419921875,-0.6378173828125,5692,-11394,1037,28,-34,-126
48284109,-0.3685302734375,-0.0167236328125,0.6795654296875,-0.63409423828125,5971,-11440,919,31,-37,-144
48294090,-0.3770751953125,-0.033935546875,0.6783447265625,-0.62969970703125,6246,-11338,818,34,-39,-159
48304074,-0.386474609375,-0.052490234375,0.6766357421875,-0.62457275390625,6517,-11119,735,37,-40,-172
48314057,-0.39630126953125,-0.072021484375,0.67437744140625,-0.618896484375,6765,-10782,671,39,-40,-182
48324045,-0.40631103515625,-0.092041015625,0.671630859375,-0.6126708984375,7048,-10366,614,40,-41,-185
48334022,-0.41607666015625,-0.11212158203125,0.66845703125,-0.606201171875,7320,-9895,556,41,-40,-184
48344006,-0.4254150390625,-0.13189697265625,0.66497802734375,-0.59954833984375,7567,-9440,507,40,-40,-181
48353990,-0.43426513671875,-0.15106201171875,0.6612548828125,-0.5927734375,7799,-9003,452,40,-39,-176
48363976,-0.44268798828125,-0.16973876953125,0.6573486328125,-0.5858154296875,8020,-8568,411,38,-39,-173
48373953,-0.450927734375,-0.1881103515625,0.65325927734375,-0.57843017578125,8237,-8110,379,36,-37,-173
48383938,-0.45941162109375,-0.20635986328125,0.64874267578125,-0.57049560546875,8412,-7641,333,33,-35,-178
48393922,-0.468505859375,-0.22491455078125,0.64385986328125,-0.56158447265625,8543,-7118,305,30,-33,-187
48403905,-0.47833251953125,-0.2437744140625,0.63836669921875,-0.5516357421875,8639,-6596,293,27,-31,-197
48413887,-0.48883056640625,-0.2628173828125,0.63226318359375,-0.54058837890625,8691,-6060,270,23,-28,-207
48423872,-0.4998779296875,-0.28192138671875,0.6256103515625,-0.52850341796875,8701,-5515,258,19,-25,-215
48433854,-0.5113525390625,-0.30078125,0.61834716796875,-0.5155029296875,8688,-4952,262,15,-22,-219
48443837,-0.5230712890625,-0.31915283203125,0.61053466796875,-0.50177001953125,8631,-4450,233,10,-18,-222
48453819,-0.53485107421875,-0.33685302734375,0.6024169921875,-0.4874267578125,8549,-4004,173,6,-15,-223
48463801,-0.54656982421875,-0.3538818359375,0.5938720703125,-0.47265625,8489,-3599,91,2,-12,-223
48473783,-0.55816650390625,-0.3701171875,0.58502197265625,-0.4573974609375,8428,-3212,-23,-2,-9,-222
48483760,-0.5697021484375,-0.38568115234375,0.57586669921875,-0.4417724609375,8296,-2850,-142,-5,-5,-223
48493750,-0.58123779296875,-0.40057373046875,0.56622314453125,-0.42559814453125,8160,-2556,-257,-9,-2,-225
48503738,-0.5927734375,-0.41485595703125,0.55621337890625,-0.40899658203125,8011,-2316,-376,-13,1,-227
48513711,-0.60418701171875,-0.42852783203125,0.54571533203125,-0.39190673828125,7845,-2098,-503,-17,3,-228
48523692,-0.615478515625,-0.4415283203125,0.534912109375,-0.37445068359375,7660,-1940,-616,-20,6,-228
48533676,-0.62646484375,-0.4537353515625,0.5238037109375,-0.35687255859375,7483,-1833,-741,-23,8,-227
48543658,-0.636962890625,-0.465087890625,0.51263427734375,-0.33953857421875,7313,-1758,-830,-24,10,-221
48553642,-0.64691162109375,-0.47564697265625,0.50140380859375,-0.3223876953125,7110,-1726,-911,-25,11,-217
48563630,-0.6563720703125,-0.485595703125,0.49005126953125,-0.305419921875,6903,-1695,-963,-25,12,-215
48573608,-0.66546630859375,-0.4952392578125,0.478271484375,-0.2884521484375,6677,-1661,-1004,-25,13,-215
48583591,-0.6741943359375,-0.50482177734375,0.46600341796875,-0.27117919921875,6423,-1584,-982,-23,13,-219
48593573,-0.6826171875,-0.5145263671875,0.452880859375,-0.25347900390625,6118,-1446,-900,-21,14,-224
48603556,-0.69073486328125,-0.52447509765625,0.4388427734375,-0.23516845703125,5799,-1270,-784,-19,14,-231
48613538,-0.698486328125,-0.534423828125,0.42401123046875,-0.21624755859375,5501,-1048,-647,-17,13,-235
48623522,-0.70562744140625,-0.5443115234375,0.40863037109375,-0.19720458984375,5209,-809,-493,-14,13,-235
48633503,-0.71209716796875,-0.55389404296875,0.3929443359375,-0.17822265625,4906,-501,-311,-11,13,-232
48643486,-0.7177734375,-0.56304931640625,0.377197265625,-0.15966796875,4596,-178,-140,-8,12,-225
48653469,-0.72271728515625,-0.5718994140625,0.3614501953125,-0.1416015625,4273,139,42,-5,12,-220
48663452,-0.72686767578125,-0.580322265625,0.3458251953125,-0.1239013671875,3929,470,213,-2,11,-213
48673443,-0.73028564453125,-0.58843994140625,0.33026123046875,-0.10675048828125,3585,802,393,1,11,-207
48683425,-0.73309326171875,-0.59625244140625,0.31475830078125,-0.08990478515625,3220,1134,574,4,10,-202
48693407,-0.73529052734375,-0.603759765625,0.29925537109375,-0.07330322265625,2853,1469,749,6,10,-198
48703389,-0.73687744140625,-0.61102294921875,0.28375244140625,-0.05694580078125,2482,1814,907,8,9,-195
48713366,-0.73785400390625,-0.6180419921875,0.26824951171875,-0.04071044921875,2107,2173,1036,10,9,-191
48723349,-0.7384033203125,-0.624755859375,0.2528076171875,-0.0245361328125,1706,2520,1146,11,8,-188
48733331,-0.738525390625,-0.63104248046875,0.2374267578125,-0.00860595703125,1318,2883,1248,11,8,-184
48743314,-0.73822021484375,-0.6368408203125,0.22235107421875,0.00689697265625,916,3234,1344,11,7,-176
48753298,-0.7376708984375,-0.64202880859375,0.2078857421875,0.02166748046875,523,3583,1426,10,7,-166
48763287,-0.73699951171875,-0.646484375,0.19427490234375,0.03546142578125,126,3917,1499,8,7,-153
48773266,-0.73626708984375,-0.650146484375,0.18157958984375,0.048095703125,-249,4226,1599,6,7,-137
48783250,-0.7357177734375,-0.6529541015625,0.170166015625,0.05908203125,-573,4497,1683,4,9,-119
48793236,-0.7353515625,-0.655029296875,0.15997314453125,0.06829833984375,-855,4710,1759,1,11,-99
48803218,-0.73529052734375,-0.65643310546875,0.15093994140625,0.07562255859375,-1119,4818,1821,-1,15,-81
48813200,-0.7354736328125,-0.6573486328125,0.1429443359375,0.0809326171875,-1373,4873,1854,-2,19,-62
48823186,-0.7359619140625,-0.65789794921875,0.135986328125,0.0841064453125,-1639,4868,1848,-3,25,-41
48833170,-0.7366943359375,-0.65814208984375,0.13037109375,0.08477783203125,-1886,4805,1787,-2,31,-17
48843154,-0.73760986328125,-0.658203125,0.1263427734375,0.08258056640625,-2142,4706,1708,-1,36,11
48853125,-0.73858642578125,-0.6580810546875,0.124267578125,0.0775146484375,-2404,4586,1575,1,40,40
48863105,-0.73956298828125,-0.65789794921875,0.12432861328125,0.0694580078125,-2630,4429,1419,5,42,71
48873087,-0.74041748046875,-0.6575927734375,0.1265869140625,0.05859375,-2823,4274,1267,9,43,100
48883071,-0.74090576171875,-0.6572265625,0.1309814453125,0.04541015625,-2956,4156,1139,13,43,124
48893058,-0.740966796875,-0.65673828125,0.136962890625,0.030517578125,-3021,4104,1031,16,41,142
48903045,-0.7406005859375,-0.65618896484375,0.14422607421875,0.0146484375,-3010,4081,910,19,38,153
48913026,-0.73974609375,-0.65545654296875,0.15240478515625,-0.00177001953125,-2929,4063,786,21,35,161
48923007,-0.73846435546875,-0.6544189453125,0.1614990234375,-0.01873779296875,-2804,4031,693,21,31,168
48932990,-0.73681640625,-0.6529541015625,0.1717529296875,-0.03619384765625,-2606,3990,582,21,27,178
48942977,-0.7347412109375,-0.65087890625,0.18341064453125,-0.0543212890625,-2374,3969,491,19,22,190
48952954,-0.7322998046875,-0.64801025390625,0.1964111328125,-0.07318115234375,-2121,3938,427,17,17,202
48962938,-0.72930908203125,-0.644287109375,0.21075439453125,-0.09271240234375,-1819,3873,370,15,13,214
48972920,-0.72589111328125,-0.63958740234375,0.22662353515625,-0.11309814453125,-1477,3775,323,11,8,229
48982903,-0.7218017578125,-0.6336669921875,0.24395751953125,-0.13433837890625,-1073,3628,290,8,4,243
48992883,-0.717041015625,-0.62640380859375,0.26275634765625,-0.156494140625,-642,3433,265,4,0,258
49002872,-0.71148681640625,-0.6177978515625,0.28277587890625,-0.1793212890625,-181,3210,245,0,-3,269
49012847,-0.7052001953125,-0.60791015625,0.30364990234375,-0.20245361328125,285,2967,239,-4,-6,276
49022828,-0.6982421875,-0.596923828125,0.32476806640625,-0.22528076171875,770,2707,193,-9,-9,277
49032809,-0.690673828125,-0.58489990234375,0.345947265625,-0.24749755859375,1340,2378,159,-13,-11,274
49042792,-0.68255615234375,-0.572021484375,0.366943359375,-0.26910400390625,1980,1993,109,-18,-12,270
49052778,-0.67388916015625,-0.5582275390625,0.38763427734375,-0.2899169921875,2673,1598,28,-21,-13,266
49062764,-0.66473388671875,-0.543701171875,0.4080810546875,-0.30999755859375,3395,1164,-47,-25,-14,262
49072746,-0.65509033203125,-0.5284423828125,0.427978515625,-0.329345703125,4129,705,-116,-28,-13,257
49082730,-0.64508056640625,-0.51263427734375,0.447265625,-0.34796142578125,4855,242,-198,-29,-12,252
49092707,-0.6346435546875,-0.49639892578125,0.46588134765625,-0.3658447265625,5568,-227,-282,-31,-12,247
49102689,-0.6239013671875,-0.479736328125,0.483642578125,-0.38299560546875,6241,-756,-322,-31,-10,240
49112671,-0.61285400390625,-0.462890625,0.50054931640625,-0.3995361328125,6851,-1289,-377,-30,-8,235
49122654,-0.60150146484375,-0.44598388671875,0.5164794921875,-0.41546630859375,7344,-1700,-383,-28,-6,229
49132638,-0.59014892578125,-0.42926025390625,0.5311279296875,-0.43060302734375,7688,-2053,-327,-26,-5,221
49142619,-0.578857421875,-0.41290283203125,0.54449462890625,-0.4449462890625,8030,-2460,-255,-23,-3,211
49152601,-0.5675048828125,-0.39678955078125,0.55694580078125,-0.458740234375,8428,-2839,-176,-21,-2,206
49162584,-0.55584716796875,-0.380615234375,0.568603515625,-0.47210693359375,8816,-3233,-84,-19,-1,204
49172566,-0.5438232421875,-0.3642578125,0.5797119140625,-0.4853515625,9147,-3600,-26,-18,-1,205
49182555,-0.5316162109375,-0.347900390625,0.59014892578125,-0.49810791015625,9324,-3751,97,-16,0,204
49192536,-0.51971435546875,-0.3319091796875,0.59954833984375,-0.51019287109375,9330,-3882,279,-16,0,196
49202518,-0.50823974609375,-0.3165283203125,0.60809326171875,-0.52130126953125,9310,-4004,412,-16,1,185
49212500,-0.49749755859375,-0.302001953125,0.61566162109375,-0.53125,9246,-3977,578,-17,1,173
49222481,-0.4876708984375,-0.288330078125,0.6224365234375,-0.5400390625,9143,-4082,742,-18,2,159
49232462,-0.478515625,-0.27520751953125,0.628662109375,-0.54779052734375,9071,-4298,858,-21,2,148
49242446,-0.4697265625,-0.26239013671875,0.63458251953125,-0.55487060546875,9009,-4596,936,-23,3,142
49252427,-0.46063232421875,-0.24920654296875,0.64056396484375,-0.5616455078125,9003,-5126,882,-24,2,146
49262419,-0.4503173828125,-0.23492431640625,0.64691162109375,-0.56884765625,9032,-5582,823,-25,2,161
49272401,-0.4388427734375,-0.21954345703125,0.6533203125,-0.5765380859375,8938,-5838,813,-25,1,175
49282383,-0.42694091796875,-0.20379638671875,0.6595458984375,-0.58416748046875,8780,-6101,794,-25,1,177
49292363,-0.4154052734375,-0.1885986328125,0.665283203125,-0.59100341796875,8566,-6249,795,-26,1,165
49302345,-0.4053955078125,-0.1748046875,0.6702880859375,-0.5965576171875,8342,-6584,812,-27,2,143
49312330,-0.396484375,-0.16241455078125,0.67486572265625,-0.60089111328125,8234,-7258,639,-28,2,124
49322311,-0.38800048828125,-0.15069580078125,0.67919921875,-0.6044921875,8220,-7922,448,-27,2,118
49332293,-0.3790283203125,-0.13873291015625,0.6834716796875,-0.6082763671875,8170,-8566,285,-25,1,125
49342278,-0.368896484375,-0.12603759765625,0.68756103515625,-0.61260986328125,8068,-9092,136,-23,-1,137
49352258,-0.35784912109375,-0.11285400390625,0.69146728515625,-0.61737060546875,7870,-9346,73,-19,-2,145
49362237,-0.34686279296875,-0.10003662109375,0.69482421875,-0.62200927734375,7565,-9361,113,-18,-4,140
49372228,-0.33709716796875,-0.08880615234375,0.6976318359375,-0.6259765625,7179,-9290,147,-16,-4,120
49382210,-0.32916259765625,-0.0797119140625,0.699951171875,-0.6287841796875,6826,-9263,156,-16,-4,94
49392200,-0.32305908203125,-0.07275390625,0.70196533203125,-0.630615234375,6570,-9396,72,-15,-4,70
49402183,-0.31781005859375,-0.0670166015625,0.70391845703125,-0.6317138671875,6438,-9599,-77,-15,-5,61
49412168,-0.3123779296875,-0.06158447265625,0.70587158203125,-0.6328125,6352,-9765,-249,-13,-8,64
49422140,-0.3060302734375,-0.05560302734375,0.7078857421875,-0.6341552734375,6235,-9851,-382,-12,-10,74
49432118,-0.298828125,-0.04913330078125,0.70989990234375,-0.63592529296875,6048,-9773,-421,-12,-12,82
49442100,-0.29156494140625,-0.04290771484375,0.711669921875,-0.6376953125,5797,-9556,-386,-11,-14,78
49452082,-0.28521728515625,-0.037841796875,0.71337890625,-0.6390380859375,5522,-9323,-324,-11,-15,63
49462064,-0.28033447265625,-0.03436279296875,0.71484375,-0.6397705078125,5287,-9158,-298,-11,-15,44
49472047,-0.2767333984375,-0.032470703125,0.71624755859375,-0.6397705078125,5119,-9079,-334,-11,-15,28
49482030,-0.27386474609375,-0.03155517578125,0.7176513671875,-0.6395263671875,5010,-9078,-386,-10,-15,19
49492011,-0.27099609375,-0.03076171875,0.71905517578125,-0.63916015625,4948,-9110,-464,-9,-17,21
49501994,-0.26751708984375,-0.0296630859375,0.720458984375,-0.63916015625,4918,-9157,-522,-8,-18,29
49511984,-0.26324462890625,-0.02783203125,0.7218017578125,-0.6395263671875,4883,-9204,-568,-7,-19,38
49521968,-0.25830078125,-0.025390625,0.72308349609375,-0.64019775390625,4817,-9193,-559,-6,-20,45
49531944,-0.2530517578125,-0.02288818359375,0.7242431640625,-0.6409912109375,4698,-9159,-537,-6,-21,45
49541924,-0.2481689453125,-0.020751953125,0.72540283203125,-0.6417236328125,4585,-9141,-532,-5,-21,40
49551908,-0.2437744140625,-0.019287109375,0.7264404296875,-0.64227294921875,4511,-9116,-573,-5,-21,33
49561891,-0.239990234375,-0.01849365234375,0.72747802734375,-0.642578125,4462,-9099,-601,-4,-21,25
49571874,-0.23663330078125,-0.018310546875,0.7283935546875,-0.64276123046875,4413,-9073,-637,-3,-21,20
49581858,-0.233642578125,-0.01861572265625,0.72918701171875,-0.64288330078125,4362,-9024,-658,-2,-22,15
49591836,-0.23095703125,-0.01934814453125,0.72991943359375,-0.64300537109375,4303,-8922,-655,-1,-22,11
49601825,-0.228759765625,-0.0206298828125,0.73052978515625,-0.64312744140625,4235,-8765,-627,0,-22,5
49611803,-0.2271728515625,-0.0224609375,0.73095703125,-0.64306640625,4174,-8545,-580,0,-21,-1
49621783,-0.22607421875,-0.0247802734375,0.73138427734375,-0.64288330078125,4122,-8317,-529,0,-20,-8
49631762,-0.2255859375,-0.027587890625,0.73175048828125,-0.642578125,4087,-8087,-467,0,-19,-12
49641754,-0.225341796875,-0.03045654296875,0.7320556640625,-0.6422119140625,4056,-7880,-422,0,-18,-13
49651735,-0.2249755859375,-0.03302001953125,0.73236083984375,-0.64178466796875,4036,-7723,-372,-1,-18,-10
49661711,-0.22430419921875,-0.0350341796875,0.73272705078125,-0.64154052734375,4001,-7635,-345,-1,-16,-5
49671698,-0.22320556640625,-0.03643798828125,0.73309326171875,-0.6414794921875,3973,-7588,-342,-1,-16,2
49681680,-0.2216796875,-0.0372314453125,0.7333984375,-0.64154052734375,3925,-7568,-332,-1,-15,7
49691668,-0.219970703125,-0.03765869140625,0.73370361328125,-0.64178466796875,3885,-7552,-356,0,-14,9
49701648,-0.21832275390625,-0.0380859375,0.73394775390625,-0.64202880859375,3843,-7553,-380,1,-13,9
49711630,-0.2169189453125,-0.03857421875,0.7340087890625,-0.64239501953125,3795,-7560,-393,2,-12,6
49721613,-0.21575927734375,-0.03924560546875,0.7340087890625,-0.6427001953125,3751,-7594,-414,2,-11,4
49731595,-0.21484375,-0.03997802734375,0.73394775390625,-0.64312744140625,3733,-7604,-441,4,-10,3
49741577,-0.21392822265625,-0.04058837890625,0.7337646484375,-0.6435546875,3723,-7633,-459,4,-9,4
49751561,-0.212890625,-0.0408935546875,0.7335205078125,-0.6441650390625,3694,-7649,-460,5,-8,7
49761544,-0.2117919921875,-0.0408935546875,0.7332763671875,-0.64483642578125,3672,-7685,-482,5,-7,9
49771527,-0.210693359375,-0.04071044921875,0.73297119140625,-0.64556884765625,3657,-7711,-499,5,-5,10
49781512,-0.209716796875,-0.0404052734375,0.7325439453125,-0.6463623046875,3651,-7760,-520,6,-4,10
49791495,-0.20892333984375,-0.04010009765625,0.73211669921875,-0.6470947265625,3625,-7775,-569,6,-3,8
49801474,-0.20843505859375,-0.03985595703125,0.73162841796875,-0.6478271484375,3594,-7774,-595,6,-1,6
49811462,-0.20831298828125,-0.039794921875,0.7310791015625,-0.64849853515625,3568,-7782,-622,6,1,3
49821443,-0.20849609375,-0.03985595703125,0.73046875,-0.64910888671875,3515,-7769,-626,7,2,0
49831428,-0.208984375,-0.03997802734375,0.72979736328125,-0.64971923828125,3478,-7748,-624,7,4,-2
49841409,-0.20965576171875,-0.03997802734375,0.7291259765625,-0.6502685546875,3425,-7720,-632,7,5,-2
49851397,-0.21026611328125,-0.039794921875,0.7283935546875,-0.65087890625,3376,-7696,-619,7,6,0
49861370,-0.2108154296875,-0.03936767578125,0.7276611328125,-0.65155029296875,3327,-7644,-592,7,7,2
49871352,-0.21124267578125,-0.0386962890625,0.7269287109375,-0.6522216796875,3242,-7582,-563,6,8,3
49881335,-0.211669921875,-0.03778076171875,0.72625732421875,-0.6529541015625,3151,-7535,-542,5,8,4
49891321,-0.21197509765625,-0.03680419921875,0.72564697265625,-0.65362548828125,3048,-7483,-519,5,8,5
49901303,-0.2122802734375,-0.03570556640625,0.72503662109375,-0.65423583984375,2968,-7457,-520,4,8,5
