subject,Ian Lake
arm,right
label,0
hz,100.17189332678657
time,4.871626

timestamp_us,q0,q1,q2,q3,ax,ay,az,gx,gy,gz
535312834,-0.466552734375,-0.67755126953125,0.23260498046875,0.51885986328125,-4175,7006,-408,-3,4,-3
535322819,-0.4666748046875,-0.6778564453125,0.23193359375,0.51861572265625,-4185,7004,-408,-3,5,-2
535332804,-0.4669189453125,-0.6781005859375,0.23126220703125,0.51837158203125,-4186,7004,-392,-3,5,-2
535342787,-0.467041015625,-0.67840576171875,0.23052978515625,0.51812744140625,-4187,7020,-390,-3,5,-3
535352770,-0.4671630859375,-0.67877197265625,0.229736328125,0.5179443359375,-4191,7042,-384,-3,5,-4
535362747,-0.4671630859375,-0.67919921875,0.22882080078125,0.517822265625,-4186,7063,-365,-3,5,-5
535372734,-0.46710205078125,-0.67962646484375,0.22772216796875,0.51776123046875,-4189,7092,-346,-3,6,-7
535382713,-0.4669189453125,-0.68011474609375,0.22650146484375,0.517822265625,-4196,7130,-321,-3,6,-9
535392696,-0.46673583984375,-0.6806640625,0.2252197265625,0.51788330078125,-4192,7173,-302,-3,6,-10
535402677,-0.46649169921875,-0.68121337890625,0.22381591796875,0.5179443359375,-4178,7235,-263,-3,6,-11
535412670,-0.46624755859375,-0.6817626953125,0.2222900390625,0.51806640625,-4183,7300,-232,-3,7,-12
535422646,-0.46600341796875,-0.682373046875,0.22076416015625,0.5181884765625,-4177,7346,-203,-3,7,-12
535432630,-0.46575927734375,-0.68292236328125,0.21923828125,0.518310546875,-4164,7375,-177,-3,7,-12
535442613,-0.4656982421875,-0.68341064453125,0.21783447265625,0.518310546875,-4148,7404,-132,-3,8,-10
535452595,-0.4656982421875,-0.68389892578125,0.2164306640625,0.5181884765625,-4132,7432,-92,-4,8,-9
535462578,-0.4658203125,-0.68438720703125,0.215087890625,0.51806640625,-4116,7462,-69,-4,8,-9
535472561,-0.46600341796875,-0.684814453125,0.21380615234375,0.51788330078125,-4098,7488,-52,-4,8,-9
535482545,-0.4661865234375,-0.68524169921875,0.21246337890625,0.5177001953125,-4083,7525,-16,-4,8,-9
535492528,-0.4664306640625,-0.6856689453125,0.2110595703125,0.51751708984375,-4068,7552,4,-5,9,-9
535502512,-0.46661376953125,-0.68609619140625,0.20953369140625,0.517333984375,-4073,7554,20,-5,9,-10
535512494,-0.46685791015625,-0.6865234375,0.20794677734375,0.5172119140625,-4083,7563,40,-5,9,-10
535522483,-0.46710205078125,-0.68695068359375,0.2064208984375,0.51702880859375,-4133,7553,34,-6,9,-9
535532466,-0.46746826171875,-0.687255859375,0.20513916015625,0.516845703125,-4171,7557,31,-6,8,-6
535542449,-0.468017578125,-0.6873779296875,0.20404052734375,0.51654052734375,-4200,7562,16,-6,7,-4
535552429,-0.46875,-0.68743896484375,0.20318603515625,0.51617431640625,-4239,7554,2,-6,7,-2
535562413,-0.469482421875,-0.6873779296875,0.20245361328125,0.515869140625,-4279,7535,-14,-7,5,0
535572389,-0.47027587890625,-0.687255859375,0.20184326171875,0.5155029296875,-4287,7508,-45,-7,4,0
535582373,-0.4710693359375,-0.6871337890625,0.2012939453125,0.5152587890625,-4281,7457,-79,-7,4,0
535592360,-0.47174072265625,-0.68695068359375,0.20062255859375,0.51507568359375,-4282,7399,-96,-7,3,-1
535602337,-0.47235107421875,-0.68682861328125,0.199951171875,0.5150146484375,-4274,7347,-113,-7,3,-2
535612319,-0.47283935546875,-0.68670654296875,0.19915771484375,0.5150146484375,-4266,7286,-135,-7,2,-4
535622301,-0.47320556640625,-0.68658447265625,0.19830322265625,0.51513671875,-4261,7227,-141,-7,2,-5
535632290,-0.47357177734375,-0.68646240234375,0.1973876953125,0.51531982421875,-4255,7174,-145,-7,2,-5
535642276,-0.473876953125,-0.6864013671875,0.19647216796875,0.5155029296875,-4257,7147,-135,-6,2,-5
535652258,-0.47418212890625,-0.68634033203125,0.195556640625,0.515625,-4276,7112,-146,-6,2,-4
535662243,-0.4744873046875,-0.68621826171875,0.1947021484375,0.51580810546875,-4303,7083,-125,-6,2,-4
535672222,-0.47479248046875,-0.6861572265625,0.19390869140625,0.515869140625,-4336,7091,-130,-6,2,-3
535682214,-0.47515869140625,-0.68609619140625,0.1932373046875,0.51593017578125,-4362,7082,-123,-6,2,-2
535692198,-0.47552490234375,-0.68603515625,0.19268798828125,0.515869140625,-4394,7076,-113,-5,2,-1
535702175,-0.4759521484375,-0.68597412109375,0.19219970703125,0.5157470703125,-4431,7081,-118,-5,3,-1
535712156,-0.47637939453125,-0.6859130859375,0.1917724609375,0.51556396484375,-4462,7079,-120,-4,3,0
535722133,-0.47674560546875,-0.6859130859375,0.19134521484375,0.515380859375,-4472,7067,-98,-4,3,1
535732118,-0.4771728515625,-0.6859130859375,0.1910400390625,0.51519775390625,-4462,7055,-104,-3,3,0
535742100,-0.47747802734375,-0.6859130859375,0.19073486328125,0.514892578125,-4449,7030,-99,-3,3,1
535752085,-0.47784423828125,-0.68597412109375,0.19049072265625,0.5146484375,-4437,6993,-96,-3,3,1
535762066,-0.47821044921875,-0.68597412109375,0.19036865234375,0.5142822265625,-4424,6959,-106,-2,2,2
535772050,-0.4786376953125,-0.68597412109375,0.19036865234375,0.513916015625,-4416,6927,-116,-2,2,4
535782032,-0.47906494140625,-0.68597412109375,0.19049072265625,0.51348876953125,-4399,6900,-128,-2,2,5
535792018,-0.4794921875,-0.6859130859375,0.19073486328125,0.5130615234375,-4400,6878,-125,-1,1,6
535801993,-0.47998046875,-0.68585205078125,0.1910400390625,0.51263427734375,-4393,6875,-124,-1,1,5
535811979,-0.4803466796875,-0.685791015625,0.19134521484375,0.51220703125,-4378,6873,-126,-1,1,5
535821961,-0.4805908203125,-0.685791015625,0.1915283203125,0.51190185546875,-4361,6874,-139,-1,1,3
535831947,-0.48065185546875,-0.68585205078125,0.19158935546875,0.51177978515625,-4360,6873,-147,0,0,1
535841932,-0.4805908203125,-0.6859130859375,0.19146728515625,0.51177978515625,-4376,6861,-160,0,0,-1
535851912,-0.4803466796875,-0.68609619140625,0.19122314453125,0.51190185546875,-4380,6866,-178,0,0,-4
535861894,-0.47998046875,-0.686279296875,0.1907958984375,0.51214599609375,-4404,6883,-197,0,-1,-5
535871878,-0.47955322265625,-0.6865234375,0.19036865234375,0.51239013671875,-4425,6899,-227,0,0,-5
535881860,-0.47906494140625,-0.68670654296875,0.18994140625,0.5126953125,-4449,6911,-245,0,-1,-5
535891841,-0.47869873046875,-0.68682861328125,0.18963623046875,0.51300048828125,-4474,6925,-241,0,-1,-4
535901822,-0.4783935546875,-0.68695068359375,0.18939208984375,0.51324462890625,-4491,6941,-252,0,-1,-3
535911802,-0.4781494140625,-0.68701171875,0.18927001953125,0.513427734375,-4501,6951,-269,0,-1,-2
535921792,-0.47796630859375,-0.68701171875,0.189208984375,0.5135498046875,-4497,6943,-269,0,-2,-1
535931778,-0.477783203125,-0.68701171875,0.18927001953125,0.51373291015625,-4499,6937,-277,0,-2,-1
535941753,-0.4776611328125,-0.68701171875,0.1893310546875,0.51385498046875,-4483,6931,-270,0,-2,-1
535951736,-0.47747802734375,-0.68707275390625,0.18939208984375,0.513916015625,-4478,6920,-270,0,-2,-1
535961719,-0.477294921875,-0.68707275390625,0.189453125,0.5140380859375,-4457,6905,-247,1,-1,-1
535971702,-0.47711181640625,-0.6871337890625,0.189453125,0.51422119140625,-4437,6899,-229,1,-2,-2
535981684,-0.47686767578125,-0.68719482421875,0.18939208984375,0.51434326171875,-4421,6880,-197,1,-1,-2
535991670,-0.4765625,-0.68731689453125,0.189208984375,0.5145263671875,-4408,6890,-178,1,-1,-4
536001655,-0.47613525390625,-0.6875,0.18890380859375,0.51470947265625,-4395,6889,-169,1,0,-5
536011632,-0.47564697265625,-0.68780517578125,0.18853759765625,0.5150146484375,-4389,6895,-148,1,0,-7
536021614,-0.47503662109375,-0.6881103515625,0.18792724609375,0.515380859375,-4408,6900,-151,1,0,-8
536031596,-0.474365234375,-0.6884765625,0.187255859375,0.5157470703125,-4403,6911,-133,2,1,-9
536041580,-0.47369384765625,-0.6888427734375,0.18658447265625,0.51605224609375,-4408,6907,-125,1,1,-8
536051563,-0.47308349609375,-0.689208984375,0.18603515625,0.516357421875,-4391,6899,-110,2,1,-8
536061547,-0.47265625,-0.68951416015625,0.185546875,0.5164794921875,-4380,6884,-104,2,2,-6
536071531,-0.47235107421875,-0.6898193359375,0.18524169921875,0.51654052734375,-4361,6865,-81,1,1,-4
536081515,-0.47216796875,-0.69000244140625,0.1851806640625,0.51641845703125,-4353,6861,-72,1,2,-1
536091502,-0.47210693359375,-0.69024658203125,0.1851806640625,0.51617431640625,-4355,6874,-68,2,2,0
536101483,-0.47210693359375,-0.6904296875,0.1851806640625,0.51593017578125,-4373,6896,-66,2,2,0
536111471,-0.471923828125,-0.69073486328125,0.18511962890625,0.51568603515625,-4385,6912,-63,2,2,-1
536121452,-0.4716796875,-0.6910400390625,0.18499755859375,0.51556396484375,-4409,6960,-79,2,2,-3
536131434,-0.4713134765625,-0.69140625,0.18475341796875,0.5155029296875,-4424,7017,-86,2,2,-5
536141407,-0.4708251953125,-0.6917724609375,0.18438720703125,0.51556396484375,-4450,7059,-107,2,2,-6
536151390,-0.47027587890625,-0.69219970703125,0.18402099609375,0.515625,-4468,7092,-103,3,1,-7
536161375,-0.4697265625,-0.69256591796875,0.18365478515625,0.5157470703125,-4493,7129,-100,3,1,-6
536171360,-0.46923828125,-0.69293212890625,0.183349609375,0.51580810546875,-4528,7159,-118,3,1,-5
536181345,-0.46881103515625,-0.6932373046875,0.1832275390625,0.515869140625,-4558,7175,-134,3,1,-3
536191329,-0.46844482421875,-0.6934814453125,0.1832275390625,0.51580810546875,-4583,7199,-158,3,0,-2
536201308,-0.46826171875,-0.69366455078125,0.183349609375,0.5157470703125,-4596,7225,-178,2,0,-1
536211295,-0.46807861328125,-0.69378662109375,0.18353271484375,0.515625,-4589,7226,-199,2,0,0
536221273,-0.468017578125,-0.69390869140625,0.1837158203125,0.5155029296875,-4583,7226,-217,1,0,0
536231268,-0.46795654296875,-0.69390869140625,0.1839599609375,0.515380859375,-4553,7210,-217,1,-1,1
536241250,-0.46795654296875,-0.6939697265625,0.1842041015625,0.5152587890625,-4535,7190,-218,1,0,1
536251227,-0.468017578125,-0.6939697265625,0.18438720703125,0.51519775390625,-4498,7177,-229,0,-1,0
536261223,-0.468017578125,-0.6939697265625,0.18438720703125,0.51513671875,-4485,7154,-235,0,0,-1
536271201,-0.46795654296875,-0.69403076171875,0.184326171875,0.51513671875,-4473,7118,-233,-1,0,-2
536281180,-0.4678955078125,-0.694091796875,0.18414306640625,0.51519775390625,-4480,7099,-239,-1,0,-3
536291155,-0.4677734375,-0.69415283203125,0.18389892578125,0.51531982421875,-4475,7071,-241,-1,0,-4
536301138,-0.4676513671875,-0.6942138671875,0.18353271484375,0.51544189453125,-4485,7056,-251,-1,0,-4
536311122,-0.46759033203125,-0.69427490234375,0.18316650390625,0.51556396484375,-4488,7046,-255,-1,1,-4
536321101,-0.467529296875,-0.6943359375,0.18280029296875,0.51568603515625,-4489,7051,-269,-2,1,-4
536331085,-0.467529296875,-0.69439697265625,0.182373046875,0.5157470703125,-4510,7045,-262,-2,1,-3
536341067,-0.46759033203125,-0.69439697265625,0.18194580078125,0.51580810546875,-4525,7044,-266,-3,1,-3
536351051,-0.4676513671875,-0.6944580078125,0.1815185546875,0.51580810546875,-4559,7035,-266,-3,1,-3
536361031,-0.4677734375,-0.69451904296875,0.1810302734375,0.515869140625,-4589,7036,-273,-3,2,-3
536371021,-0.4678955078125,-0.69451904296875,0.18048095703125,0.515869140625,-4609,7012,-264,-4,2,-3
536380998,-0.46807861328125,-0.69451904296875,0.179931640625,0.51593017578125,-4628,7001,-264,-4,2,-3
536390981,-0.46826171875,-0.694580078125,0.17926025390625,0.5159912109375,-4652,6982,-258,-4,2,-3
536400961,-0.46844482421875,-0.694580078125,0.1785888671875,0.5159912109375,-4641,6968,-269,-4,2,-4
536410945,-0.4686279296875,-0.694580078125,0.17791748046875,0.51605224609375,-4630,6929,-266,-5,2,-3
536424030,-0.46893310546875,-0.694580078125,0.17724609375,0.51605224609375,-4615,6883,-266,-5,2,-2
536430912,-0.46923828125,-0.694580078125,0.1766357421875,0.51593017578125,-4605,6847,-245,-5,3,-1
536440896,-0.4697265625,-0.69451904296875,0.1761474609375,0.5157470703125,-4588,6798,-251,-5,3,0
536450876,-0.47015380859375,-0.69451904296875,0.17572021484375,0.5155029296875,-4577,6769,-250,-5,3,0
536460858,-0.47064208984375,-0.69451904296875,0.17529296875,0.51519775390625,-4555,6739,-266,-5,3,0
536470842,-0.4710693359375,-0.694580078125,0.17486572265625,0.514892578125,-4546,6726,-283,-4,4,0
536480824,-0.471435546875,-0.6947021484375,0.17437744140625,0.5145263671875,-4536,6690,-275,-4,4,0
536490804,-0.47174072265625,-0.6949462890625,0.173828125,0.51416015625,-4520,6683,-269,-3,5,-1
536500794,-0.47186279296875,-0.6951904296875,0.1732177734375,0.51385498046875,-4521,6668,-290,-3,5,-2
536510778,-0.471923828125,-0.695556640625,0.17266845703125,0.5135498046875,-4497,6667,-275,-1,5,-3
536520755,-0.471923828125,-0.69598388671875,0.17205810546875,0.51318359375,-4475,6671,-288,-1,5,-3
536530742,-0.4718017578125,-0.69647216796875,0.17156982421875,0.51275634765625,-4452,6695,-291,0,6,-3
536540723,-0.4716796875,-0.69696044921875,0.17108154296875,0.5123291015625,-4449,6693,-299,1,6,-3
536550706,-0.47149658203125,-0.697509765625,0.17059326171875,0.511962890625,-4471,6695,-299,1,6,-3
536560689,-0.47125244140625,-0.69805908203125,0.17010498046875,0.51153564453125,-4495,6715,-303,2,6,-3
536570670,-0.470947265625,-0.69873046875,0.16973876953125,0.5111083984375,-4521,6745,-320,2,5,-3
536580656,-0.47064208984375,-0.6993408203125,0.16937255859375,0.51068115234375,-4554,6779,-339,3,5,-3
536590637,-0.47027587890625,-0.699951171875,0.16912841796875,0.51019287109375,-4590,6809,-349,3,5,-2
536600619,-0.46990966796875,-0.70062255859375,0.16888427734375,0.509765625,-4632,6857,-383,3,5,-2
536610603,-0.4696044921875,-0.70123291015625,0.16876220703125,0.50921630859375,-4657,6886,-393,4,5,-1
536620593,-0.46929931640625,-0.7017822265625,0.16864013671875,0.5087890625,-4685,6899,-386,3,4,0
536630577,-0.4691162109375,-0.7022705078125,0.16864013671875,0.50830078125,-4703,6925,-395,3,4,0
536640555,-0.4688720703125,-0.7027587890625,0.1685791015625,0.5078125,-4731,6954,-407,3,4,-1
536650539,-0.46856689453125,-0.70330810546875,0.16845703125,0.50738525390625,-4744,6965,-425,3,4,-1
536660521,-0.46826171875,-0.70379638671875,0.16827392578125,0.507080078125,-4767,6972,-434,2,4,-2
536670502,-0.4678955078125,-0.7042236328125,0.16802978515625,0.5068359375,-4763,6969,-442,2,3,-3
536680485,-0.46759033203125,-0.7047119140625,0.167724609375,0.50665283203125,-4748,6964,-449,2,3,-3
536690465,-0.46728515625,-0.705078125,0.1673583984375,0.5064697265625,-4736,6954,-450,1,3,-3
536700457,-0.46697998046875,-0.70550537109375,0.16705322265625,0.50628662109375,-4734,6946,-456,1,3,-3
536710441,-0.46673583984375,-0.70587158203125,0.16668701171875,0.50616455078125,-4734,6934,-444,1,3,-3
536720426,-0.46649169921875,-0.7061767578125,0.166259765625,0.50604248046875,-4736,6918,-432,1,3,-4
536730405,-0.46624755859375,-0.70648193359375,0.16583251953125,0.5059814453125,-4733,6907,-439,0,2,-4
536740386,-0.4659423828125,-0.706787109375,0.16534423828125,0.50604248046875,-4723,6917,-444,0,2,-5
536750363,-0.46563720703125,-0.70703125,0.164794921875,0.506103515625,-4706,6928,-440,0,2,-6
536760349,-0.46527099609375,-0.707275390625,0.16412353515625,0.50628662109375,-4714,6921,-433,0,1,-7
536770329,-0.46490478515625,-0.70751953125,0.16351318359375,0.50653076171875,-4696,6906,-419,0,1,-7
536780314,-0.46453857421875,-0.707763671875,0.162841796875,0.50677490234375,-4701,6892,-405,0,1,-7
536790296,-0.4642333984375,-0.70794677734375,0.1622314453125,0.5069580078125,-4697,6886,-395,0,1,-6
536800290,-0.46392822265625,-0.7081298828125,0.16168212890625,0.50714111328125,-4694,6877,-400,0,1,-6
536810275,-0.46368408203125,-0.70831298828125,0.16119384765625,0.50726318359375,-4675,6868,-401,0,1,-5
536820256,-0.4635009765625,-0.70849609375,0.16070556640625,0.50738525390625,-4665,6871,-400,-1,1,-5
536830240,-0.46331787109375,-0.7086181640625,0.16021728515625,0.5074462890625,-4671,6887,-408,-1,1,-5
536840221,-0.463134765625,-0.70880126953125,0.15966796875,0.50762939453125,-4687,6907,-408,-1,2,-6
536850202,-0.462890625,-0.708984375,0.15899658203125,0.5078125,-4711,6933,-418,-1,1,-7
536860181,-0.46258544921875,-0.7091064453125,0.15826416015625,0.508056640625,-4736,6951,-438,-2,1,-7
536870156,-0.46240234375,-0.70928955078125,0.15753173828125,0.50823974609375,-4770,6974,-445,-2,1,-7
536880140,-0.4622802734375,-0.70941162109375,0.1568603515625,0.5084228515625,-4773,6967,-457,-2,2,-6
536890127,-0.4622802734375,-0.70947265625,0.15625,0.50848388671875,-4769,6946,-457,-3,2,-4
536900110,-0.46240234375,-0.70953369140625,0.15576171875,0.5084228515625,-4760,6938,-462,-3,2,-3
536910088,-0.462646484375,-0.70953369140625,0.1553955078125,0.50823974609375,-4756,6926,-459,-4,2,-1
536920078,-0.4630126953125,-0.7095947265625,0.15509033203125,0.508056640625,-4762,6921,-464,-3,3,0
536930054,-0.46343994140625,-0.7095947265625,0.15484619140625,0.50775146484375,-4744,6900,-461,-4,3,0
536940042,-0.46380615234375,-0.7095947265625,0.15447998046875,0.50750732421875,-4734,6882,-463,-4,3,-1
536950025,-0.464111328125,-0.70965576171875,0.15399169921875,0.50726318359375,-4743,6884,-467,-4,3,-2
536960008,-0.46429443359375,-0.70977783203125,0.1534423828125,0.507080078125,-4754,6870,-471,-3,4,-3
536969982,-0.46441650390625,-0.70989990234375,0.15277099609375,0.50701904296875,-4764,6861,-459,-3,3,-4
536979966,-0.46453857421875,-0.71002197265625,0.15203857421875,0.5069580078125,-4793,6850,-449,-3,3,-4
536989949,-0.46453857421875,-0.710205078125,0.15130615234375,0.50689697265625,-4829,6839,-449,-3,3,-5
536999933,-0.464599609375,-0.71038818359375,0.15057373046875,0.5068359375,-4835,6825,-433,-3,4,-4
537009919,-0.46466064453125,-0.71051025390625,0.14990234375,0.50677490234375,-4861,6810,-419,-3,3,-4
537019904,-0.4647216796875,-0.71063232421875,0.14935302734375,0.5067138671875,-4888,6801,-411,-2,3,-3
537029885,-0.46478271484375,-0.71075439453125,0.14886474609375,0.506591796875,-4911,6793,-409,-2,3,-2
537039865,-0.46484375,-0.71087646484375,0.14849853515625,0.5064697265625,-4919,6785,-402,-2,2,-2
537049848,-0.46484375,-0.71099853515625,0.14813232421875,0.50640869140625,-4941,6784,-402,-1,2,-2
537059832,-0.46484375,-0.71112060546875,0.14788818359375,0.50634765625,-4950,6777,-407,-1,1,-2
537069819,-0.46478271484375,-0.711181640625,0.147705078125,0.50634765625,-4944,6769,-406,0,1,-1
537079800,-0.46478271484375,-0.71124267578125,0.14764404296875,0.50628662109375,-4929,6756,-395,0,0,-1
537089790,-0.46478271484375,-0.7113037109375,0.14764404296875,0.50628662109375,-4916,6741,-402,0,0,0
537099771,-0.46478271484375,-0.7113037109375,0.147705078125,0.5062255859375,-4886,6718,-404,0,0,0
537109745,-0.46484375,-0.71124267578125,0.1478271484375,0.50616455078125,-4856,6704,-384,0,0,1
537119727,-0.46490478515625,-0.71124267578125,0.14801025390625,0.50604248046875,-4819,6696,-382,0,0,1
537129712,-0.46502685546875,-0.71124267578125,0.1480712890625,0.50592041015625,-4773,6678,-375,0,0,1
537139694,-0.465087890625,-0.7113037109375,0.14813232421875,0.505859375,-4755,6646,-362,0,0,0
537149678,-0.465087890625,-0.71136474609375,0.14801025390625,0.5057373046875,-4752,6658,-372,0,1,-1
537159658,-0.46502685546875,-0.7115478515625,0.14788818359375,0.505615234375,-4765,6665,-397,0,2,-2
537169641,-0.4649658203125,-0.7117919921875,0.14764404296875,0.50543212890625,-4785,6688,-419,0,3,-2
537179629,-0.4649658203125,-0.71197509765625,0.1474609375,0.505126953125,-4802,6705,-439,0,3,0
537189607,-0.46502685546875,-0.71221923828125,0.1473388671875,0.50482177734375,-4823,6738,-463,0,3,0
537199594,-0.4652099609375,-0.71246337890625,0.147216796875,0.50433349609375,-4840,6751,-482,0,4,1
537209579,-0.46539306640625,-0.712646484375,0.14715576171875,0.50390625,-4866,6744,-497,-1,3,2
537219561,-0.465576171875,-0.712890625,0.14715576171875,0.50347900390625,-4882,6735,-513,-1,3,2
537229540,-0.4656982421875,-0.713134765625,0.14697265625,0.50299072265625,-4895,6737,-517,-1,4,1
537239524,-0.46575927734375,-0.71337890625,0.146728515625,0.502685546875,-4903,6738,-527,-1,3,-1
537249510,-0.46575927734375,-0.71368408203125,0.14642333984375,0.50238037109375,-4920,6729,-551,0,4,-1
537259490,-0.46575927734375,-0.71392822265625,0.14605712890625,0.5020751953125,-4912,6722,-557,-1,3,-2
537269468,-0.4656982421875,-0.71417236328125,0.14569091796875,0.50189208984375,-4929,6716,-567,-1,3,-2
537279463,-0.465576171875,-0.7144775390625,0.145263671875,0.501708984375,-4944,6730,-578,0,3,-3
537289445,-0.4654541015625,-0.7147216796875,0.144775390625,0.50164794921875,-4962,6727,-581,-1,3,-3
537299424,-0.46527099609375,-0.7149658203125,0.144287109375,0.5015869140625,-4964,6735,-582,-1,2,-4
537309407,-0.46502685546875,-0.71514892578125,0.143798828125,0.50164794921875,-4990,6754,-597,0,2,-4
537319386,-0.46484375,-0.71533203125,0.14337158203125,0.50164794921875,-5002,6772,-601,-1,1,-4
537329365,-0.4647216796875,-0.7154541015625,0.1429443359375,0.501708984375,-5030,6792,-617,-1,1,-3
537339349,-0.464599609375,-0.715576171875,0.142578125,0.50177001953125,-5047,6798,-624,-1,1,-3
537349330,-0.464599609375,-0.71563720703125,0.14227294921875,0.5018310546875,-5056,6797,-621,-2,0,-2
537359312,-0.464599609375,-0.71563720703125,0.1419677734375,0.50189208984375,-5041,6781,-615,-2,0,-2
537369296,-0.464599609375,-0.71563720703125,0.1417236328125,0.501953125,-5034,6751,-622,-2,0,-2
537379275,-0.46466064453125,-0.715576171875,0.14141845703125,0.5020751953125,-5028,6758,-630,-2,0,-3
537389268,-0.46466064453125,-0.715576171875,0.14105224609375,0.502197265625,-5009,6741,-627,-3,0,-3
537399250,-0.46466064453125,-0.71551513671875,0.140625,0.50238037109375,-4965,6715,-619,-3,-1,-3
537409240,-0.46466064453125,-0.7154541015625,0.14031982421875,0.5025634765625,-4928,6689,-585,-3,0,-3
537419222,-0.46478271484375,-0.71533203125,0.139892578125,0.502685546875,-4889,6659,-558,-3,0,-3
537429208,-0.46484375,-0.71527099609375,0.13958740234375,0.50286865234375,-4841,6646,-540,-3,0,-3
537439180,-0.46490478515625,-0.71514892578125,0.13909912109375,0.50311279296875,-4814,6631,-524,-3,0,-5
537449156,-0.46490478515625,-0.715087890625,0.13848876953125,0.50335693359375,-4781,6628,-529,-3,0,-6
537459136,-0.46478271484375,-0.71514892578125,0.13763427734375,0.503662109375,-4756,6631,-523,-3,1,-8
537469122,-0.46466064453125,-0.71514892578125,0.13665771484375,0.5040283203125,-4771,6637,-520,-4,1,-9
537479105,-0.46441650390625,-0.7152099609375,0.135498046875,0.50439453125,-4787,6659,-510,-4,2,-11
537489089,-0.4642333984375,-0.71533203125,0.1341552734375,0.5047607421875,-4822,6682,-507,-5,3,-11
537499072,-0.464111328125,-0.7154541015625,0.13287353515625,0.505126953125,-4857,6695,-507,-5,3,-10
537509054,-0.46405029296875,-0.71551513671875,0.13153076171875,0.50537109375,-4895,6694,-501,-5,4,-10
537519036,-0.464111328125,-0.71563720703125,0.13018798828125,0.50555419921875,-4934,6704,-495,-6,4,-9
537529029,-0.46417236328125,-0.7156982421875,0.12884521484375,0.50567626953125,-4971,6715,-507,-6,4,-9
537539010,-0.4642333984375,-0.7158203125,0.12750244140625,0.505859375,-4997,6712,-501,-6,4,-9
537548989,-0.46429443359375,-0.7159423828125,0.12615966796875,0.50592041015625,-5020,6713,-495,-6,5,-9
537558971,-0.46435546875,-0.716064453125,0.1248779296875,0.50604248046875,-5047,6708,-484,-6,4,-8
537568954,-0.46435546875,-0.7161865234375,0.12359619140625,0.50616455078125,-5090,6706,-487,-6,4,-8
537578936,-0.46441650390625,-0.71630859375,0.12237548828125,0.50628662109375,-5123,6707,-476,-5,3,-8
537588921,-0.4644775390625,-0.71636962890625,0.12127685546875,0.50640869140625,-5158,6710,-484,-5,4,-7
537598904,-0.464599609375,-0.71636962890625,0.120361328125,0.5064697265625,-5187,6716,-471,-5,3,-5
537608884,-0.46490478515625,-0.71630859375,0.11962890625,0.50640869140625,-5207,6717,-445,-5,2,-3
537618868,-0.46527099609375,-0.71624755859375,0.119140625,0.50634765625,-5229,6710,-433,-5,2,-1
537628855,-0.4656982421875,-0.716064453125,0.1187744140625,0.5062255859375,-5235,6710,-423,-5,1,0
537638836,-0.46624755859375,-0.71588134765625,0.1185302734375,0.50604248046875,-5240,6702,-415,-5,1,1
537648819,-0.466796875,-0.71563720703125,0.11834716796875,0.50592041015625,-5245,6691,-403,-5,1,2
537658805,-0.46734619140625,-0.71539306640625,0.11822509765625,0.505859375,-5233,6693,-382,-5,0,2
537668787,-0.4678955078125,-0.715087890625,0.1180419921875,0.50579833984375,-5221,6696,-379,-5,0,1
537678770,-0.4683837890625,-0.71478271484375,0.11773681640625,0.505859375,-5200,6683,-374,-5,0,0
537688750,-0.46881103515625,-0.7144775390625,0.117431640625,0.50592041015625,-5177,6691,-378,-5,-1,-1
537698727,-0.46923828125,-0.71417236328125,0.11712646484375,0.50604248046875,-5139,6699,-385,-5,-1,-1
537708714,-0.4697265625,-0.7138671875,0.11676025390625,0.506103515625,-5124,6706,-394,-6,0,-1
537718691,-0.47021484375,-0.71356201171875,0.11639404296875,0.50616455078125,-5102,6721,-388,-6,0,-1
537728680,-0.4708251953125,-0.71319580078125,0.11602783203125,0.50616455078125,-5070,6713,-374,-7,0,0
537738658,-0.4715576171875,-0.71282958984375,0.11566162109375,0.506103515625,-5054,6700,-354,-7,0,1
537748641,-0.47235107421875,-0.71240234375,0.11541748046875,0.50604248046875,-5035,6682,-327,-8,1,2
537758625,-0.4732666015625,-0.71197509765625,0.1151123046875,0.505859375,-5031,6641,-303,-8,1,2
537768606,-0.47418212890625,-0.7115478515625,0.11474609375,0.50567626953125,-5021,6610,-293,-9,1,2
537778590,-0.47503662109375,-0.71112060546875,0.11431884765625,0.50555419921875,-5042,6596,-307,-8,1,2
537788577,-0.475830078125,-0.71075439453125,0.11383056640625,0.50543212890625,-5036,6584,-313,-9,1,0
537798553,-0.4765625,-0.71044921875,0.1131591796875,0.50537109375,-5015,6564,-326,-9,1,-2
537808537,-0.47711181640625,-0.71014404296875,0.1123046875,0.50543212890625,-5017,6537,-333,-8,2,-3
537818518,-0.4775390625,-0.70989990234375,0.111328125,0.50567626953125,-5010,6517,-319,-8,1,-5
537828503,-0.4779052734375,-0.70965576171875,0.1103515625,0.50592041015625,-5007,6487,-311,-8,1,-6
537838485,-0.47821044921875,-0.7093505859375,0.10931396484375,0.50616455078125,-5002,6463,-291,-8,1,-6
537848466,-0.478515625,-0.7091064453125,0.10833740234375,0.50640869140625,-5003,6431,-283,-7,1,-5
537858460,-0.4788818359375,-0.7088623046875,0.107421875,0.50665283203125,-5008,6394,-258,-7,1,-4
537868441,-0.479248046875,-0.7086181640625,0.10662841796875,0.5068359375,-5005,6348,-225,-7,1,-4
537878424,-0.47955322265625,-0.7083740234375,0.1058349609375,0.50701904296875,-5013,6327,-203,-6,1,-4
537888401,-0.479736328125,-0.7081298828125,0.10498046875,0.50732421875,-5020,6310,-177,-6,1,-5
537898385,-0.479736328125,-0.7080078125,0.10400390625,0.50775146484375,-5043,6296,-158,-5,1,-7
537908366,-0.4796142578125,-0.7078857421875,0.1029052734375,0.50823974609375,-5057,6292,-141,-5,0,-10
537918352,-0.479248046875,-0.70782470703125,0.10162353515625,0.5089111328125,-5086,6281,-139,-4,0,-12
537928337,-0.47796630859375,-0.707763671875,0.09954833984375,0.5106201171875,-6866,5889,-68,-3,-5,-3
537938319,-0.47711181640625,-0.70697021484375,0.09930419921875,0.5125732421875,-7702,5742,33,1,-16,7
537948299,-0.47674560546875,-0.7054443359375,0.10107421875,0.5146484375,-8272,5494,129,4,-27,23
537958279,-0.47637939453125,-0.7034912109375,0.1043701171875,0.51702880859375,-8368,4894,125,8,-37,28
537968272,-0.4744873046875,-0.70166015625,0.107421875,0.5206298828125,-8119,4280,98,15,-44,9
537978256,-0.470458984375,-0.7001953125,0.109375,0.52581787109375,-7735,4146,89,23,-49,-18
537988240,-0.46539306640625,-0.6988525390625,0.111083984375,0.53173828125,-7233,4474,129,27,-52,-29
537998225,-0.46044921875,-0.6973876953125,0.11358642578125,0.53741455078125,-6637,4934,174,29,-53,-25
538008209,-0.456298828125,-0.6956787109375,0.1170654296875,0.5423583984375,-6006,5329,218,29,-52,-17
538018193,-0.45263671875,-0.6939697265625,0.12109375,0.54669189453125,-5402,5604,246,29,-50,-12
538028163,-0.4490966796875,-0.6925048828125,0.125,0.55059814453125,-4910,5828,266,29,-46,-13
538038146,-0.44537353515625,-0.6912841796875,0.12847900390625,0.5543212890625,-4568,6058,291,29,-42,-17
538048130,-0.4415283203125,-0.6904296875,0.13140869140625,0.5577392578125,-4345,6267,303,29,-37,-20
538058110,-0.4376220703125,-0.68994140625,0.1339111328125,0.5609130859375,-4208,6470,292,28,-32,-22
538068092,-0.43389892578125,-0.68963623046875,0.13623046875,0.5635986328125,-4182,6670,259,27,-28,-20
538078075,-0.43048095703125,-0.68951416015625,0.13861083984375,0.56573486328125,-4227,6864,213,27,-24,-16
538088058,-0.42755126953125,-0.68951416015625,0.1412353515625,0.56732177734375,-4293,7045,147,26,-21,-9
538098044,-0.42523193359375,-0.68963623046875,0.14404296875,0.5682373046875,-4354,7199,98,25,-17,-3
538108030,-0.42352294921875,-0.68975830078125,0.14715576171875,0.56854248046875,-4405,7331,59,24,-14,3
538118014,-0.42230224609375,-0.68994140625,0.15057373046875,0.56829833984375,-4428,7411,18,22,-11,9
538127990,-0.42169189453125,-0.690185546875,0.15423583984375,0.5675048828125,-4448,7468,-31,21,-8,15
538137972,-0.42156982421875,-0.69049072265625,0.1580810546875,0.56622314453125,-4467,7503,-70,20,-5,20
538147956,-0.421875,-0.69073486328125,0.162109375,0.56451416015625,-4500,7544,-107,19,-3,25
538157937,-0.42254638671875,-0.6910400390625,0.166259765625,0.5623779296875,-4524,7570,-134,18,-1,29
538167924,-0.42352294921875,-0.69134521484375,0.17041015625,0.56005859375,-4528,7581,-171,17,1,30
538177904,-0.4246826171875,-0.691650390625,0.17449951171875,0.55755615234375,-4502,7569,-212,16,2,31
538187887,-0.4259033203125,-0.69195556640625,0.17840576171875,0.5550537109375,-4468,7551,-258,14,3,31
538197869,-0.42706298828125,-0.6922607421875,0.18194580078125,0.55255126953125,-4421,7541,-300,13,4,28
538207851,-0.42803955078125,-0.69268798828125,0.18505859375,0.5501708984375,-4353,7520,-333,12,5,23
538217835,-0.42877197265625,-0.69329833984375,0.1875,0.548095703125,-4301,7485,-376,11,6,17
538227819,-0.42926025390625,-0.69403076171875,0.18927001953125,0.54620361328125,-4269,7416,-416,10,8,12
538237800,-0.4295654296875,-0.69476318359375,0.19061279296875,0.54449462890625,-4237,7351,-451,8,8,9
538247791,-0.4298095703125,-0.69561767578125,0.19158935546875,0.5428466796875,-4227,7260,-477,7,9,7
538257776,-0.43017578125,-0.69635009765625,0.19232177734375,0.54132080078125,-4237,7161,-501,5,9,7
538267751,-0.43072509765625,-0.697021484375,0.19293212890625,0.539794921875,-4275,7096,-529,3,9,8
538277734,-0.431396484375,-0.69769287109375,0.1934814453125,0.53826904296875,-4342,7043,-582,2,9,8
538287714,-0.43212890625,-0.69818115234375,0.19390869140625,0.536865234375,-4416,6990,-624,0,9,8
538297697,-0.4329833984375,-0.6986083984375,0.19415283203125,0.5355224609375,-4500,6973,-685,-2,9,7
538307679,-0.433837890625,-0.69903564453125,0.19415283203125,0.5343017578125,-4581,6960,-737,-4,8,6
538317661,-0.4346923828125,-0.6993408203125,0.19390869140625,0.53326416015625,-4677,6957,-785,-5,8,4
538327644,-0.43548583984375,-0.6995849609375,0.19342041015625,0.532470703125,-4768,6941,-833,-7,7,2
538337626,-0.436279296875,-0.6998291015625,0.1927490234375,0.53173828125,-4820,6897,-856,-8,7,2
538347610,-0.43707275390625,-0.70001220703125,0.19189453125,0.53118896484375,-4845,6827,-891,-9,6,1
538357593,-0.43792724609375,-0.7000732421875,0.1910400390625,0.53076171875,-4860,6772,-915,-10,6,0
538367577,-0.43878173828125,-0.7000732421875,0.19000244140625,0.5303955078125,-4888,6731,-932,-11,5,-1
538377556,-0.4395751953125,-0.7000732421875,0.1888427734375,0.5301513671875,-4928,6692,-953,-12,5,-2
538387539,-0.4403076171875,-0.70001220703125,0.18756103515625,0.530029296875,-4933,6636,-953,-12,5,-3
538397522,-0.4410400390625,-0.699951171875,0.18609619140625,0.530029296875,-4939,6593,-947,-13,4,-5
538407505,-0.44171142578125,-0.69989013671875,0.18450927734375,0.5301513671875,-4962,6571,-928,-13,4,-7
538417489,-0.44219970703125,-0.6998291015625,0.1827392578125,0.53045654296875,-4986,6554,-924,-13,4,-9
538427468,-0.44256591796875,-0.69976806640625,0.1807861328125,0.5308837890625,-4997,6528,-899,-14,3,-11
538437461,-0.4427490234375,-0.69976806640625,0.17864990234375,0.53143310546875,-5014,6504,-883,-13,4,-13
538447441,-0.44293212890625,-0.69976806640625,0.17633056640625,0.53204345703125,-5012,6475,-851,-14,4,-15
538457425,-0.4429931640625,-0.6998291015625,0.17388916015625,0.53271484375,-5011,6446,-820,-13,4,-15
538467401,-0.44305419921875,-0.6998291015625,0.17156982421875,0.5333251953125,-4996,6421,-787,-13,4,-15
538477385,-0.4432373046875,-0.6998291015625,0.1693115234375,0.53399658203125,-4991,6391,-733,-13,4,-14
538487366,-0.44342041015625,-0.6998291015625,0.16705322265625,0.53448486328125,-4977,6378,-696,-13,4,-14
538497350,-0.44366455078125,-0.6998291015625,0.1649169921875,0.53497314453125,-4973,6366,-660,-13,4,-13
538507333,-0.44390869140625,-0.6998291015625,0.1627197265625,0.535400390625,-4960,6370,-605,-13,5,-13
538517316,-0.4442138671875,-0.6998291015625,0.16058349609375,0.53582763671875,-4941,6368,-541,-13,6,-13
538527299,-0.44451904296875,-0.69989013671875,0.15838623046875,0.5361328125,-4942,6370,-488,-13,6,-13
538537278,-0.44482421875,-0.70001220703125,0.1561279296875,0.53643798828125,-4939,6374,-431,-12,7,-13
538547269,-0.4451904296875,-0.7000732421875,0.15386962890625,0.53662109375,-4939,6377,-369,-12,8,-12
538557253,-0.44561767578125,-0.70025634765625,0.15167236328125,0.5367431640625,-4932,6378,-313,-12,9,-12
538567240,-0.44610595703125,-0.700439453125,0.14959716796875,0.53668212890625,-4946,6352,-261,-11,9,-11
538577225,-0.44647216796875,-0.70068359375,0.14752197265625,0.53662109375,-4974,6327,-226,-10,9,-10
538587208,-0.44683837890625,-0.70098876953125,0.1455078125,0.5364990234375,-4986,6321,-175,-9,9,-10
538597190,-0.44708251953125,-0.7012939453125,0.14361572265625,0.536376953125,-4991,6319,-130,-8,9,-10
538607162,-0.447265625,-0.70159912109375,0.14166259765625,0.536376953125,-5021,6319,-65,-7,9,-11
538617144,-0.44720458984375,-0.70196533203125,0.1397705078125,0.536376953125,-5079,6339,-12,-6,8,-12
538627127,-0.447021484375,-0.702392578125,0.13800048828125,0.5364990234375,-5151,6372,18,-5,7,-12
538637109,-0.4466552734375,-0.7027587890625,0.1363525390625,0.53668212890625,-5235,6394,47,-3,7,-12
538647091,-0.4462890625,-0.70318603515625,0.13494873046875,0.53680419921875,-5292,6424,66,-2,5,-10
538657076,-0.44598388671875,-0.7034912109375,0.13385009765625,0.53692626953125,-5347,6431,77,-1,5,-8
538667063,-0.44573974609375,-0.70379638671875,0.13311767578125,0.53692626953125,-5377,6445,88,0,4,-5
538677046,-0.44561767578125,-0.70404052734375,0.13275146484375,0.53680419921875,-5397,6468,71,1,3,-2
538687032,-0.4456787109375,-0.7042236328125,0.13275146484375,0.5364990234375,-5406,6480,50,1,3,1
538697021,-0.44580078125,-0.70440673828125,0.13287353515625,0.5361328125,-5420,6519,26,1,3,3
538706997,-0.446044921875,-0.70452880859375,0.1331787109375,0.53570556640625,-5435,6546,-5,1,2,4
538716975,-0.4462890625,-0.70465087890625,0.13360595703125,0.53515625,-5422,6561,-30,1,2,5
538726958,-0.4466552734375,-0.70477294921875,0.134033203125,0.53466796875,-5396,6569,-48,1,2,6
538736940,-0.44708251953125,-0.704833984375,0.13446044921875,0.53411865234375,-5376,6569,-82,0,2,5
538746923,-0.447509765625,-0.70489501953125,0.1348876953125,0.5335693359375,-5351,6554,-105,0,2,6
538756912,-0.447998046875,-0.7049560546875,0.13519287109375,0.53302001953125,-5313,6555,-124,-1,2,4
538766892,-0.4483642578125,-0.70501708984375,0.13525390625,0.5325927734375,-5299,6532,-156,-2,3,3
538776874,-0.44866943359375,-0.705078125,0.13507080078125,0.53228759765625,-5298,6510,-164,-3,3,1
538786855,-0.44891357421875,-0.70513916015625,0.13470458984375,0.5321044921875,-5309,6513,-178,-3,3,-2
538796834,-0.44903564453125,-0.7052001953125,0.134033203125,0.53204345703125,-5325,6505,-188,-4,3,-4
538806819,-0.44903564453125,-0.705322265625,0.1331787109375,0.53216552734375,-5338,6488,-202,-4,3,-6
538816805,-0.44903564453125,-0.70538330078125,0.13214111328125,0.5323486328125,-5347,6483,-211,-5,2,-7
538826787,-0.448974609375,-0.70538330078125,0.13104248046875,0.53265380859375,-5357,6466,-236,-5,2,-8
538836772,-0.44891357421875,-0.70538330078125,0.1298828125,0.53302001953125,-5383,6459,-250,-6,2,-9
538846748,-0.44879150390625,-0.70538330078125,0.12860107421875,0.53338623046875,-5402,6465,-266,-6,1,-9
538856732,-0.44873046875,-0.705322265625,0.1273193359375,0.53387451171875,-5420,6453,-281,-7,1,-10
538866715,-0.4486083984375,-0.7052001953125,0.12591552734375,0.534423828125,-5448,6450,-296,-7,1,-11
538876698,-0.44854736328125,-0.705078125,0.12451171875,0.53497314453125,-5476,6444,-291,-8,0,-10
538886679,-0.448486328125,-0.7049560546875,0.12310791015625,0.53558349609375,-5493,6424,-285,-8,0,-10
538896662,-0.44842529296875,-0.7047119140625,0.1217041015625,0.53619384765625,-5500,6417,-277,-8,0,-11
538906644,-0.44842529296875,-0.7044677734375,0.12030029296875,0.53680419921875,-5502,6396,-256,-8,0,-11
538916628,-0.44842529296875,-0.7042236328125,0.11883544921875,0.5374755859375,-5508,6380,-229,-8,0,-10
538926611,-0.44842529296875,-0.70404052734375,0.11749267578125,0.53802490234375,-5517,6374,-213,-8,0,-10
538936595,-0.448486328125,-0.70379638671875,0.11627197265625,0.53857421875,-5521,6340,-209,-8,0,-8
538946577,-0.44873046875,-0.7034912109375,0.11517333984375,0.53900146484375,-5506,6295,-187,-8,0,-6
538956561,-0.44903564453125,-0.70318603515625,0.1142578125,0.539306640625,-5500,6273,-170,-7,0,-4
538966541,-0.44940185546875,-0.702880859375,0.11358642578125,0.53955078125,-5500,6262,-154,-7,0,-3
538976526,-0.44989013671875,-0.70257568359375,0.113037109375,0.5396728515625,-5503,6257,-143,-7,0,-1
538986509,-0.45037841796875,-0.7022705078125,0.112548828125,0.539794921875,-5502,6249,-102,-6,0,-1
538996501,-0.450927734375,-0.701904296875,0.11212158203125,0.53985595703125,-5506,6252,-71,-6,-1,0
539006474,-0.45147705078125,-0.7015380859375,0.11181640625,0.5399169921875,-5500,6258,-59,-6,-1,0
539016466,-0.4520263671875,-0.70123291015625,0.11163330078125,0.53997802734375,-5487,6256,-42,-5,-1,1
539026449,-0.4525146484375,-0.70086669921875,0.1114501953125,0.53997802734375,-5467,6235,-16,-5,-1,1
539036435,-0.453125,-0.7005615234375,0.111328125,0.5399169921875,-5427,6218,-1,-5,0,2
539046409,-0.4537353515625,-0.70025634765625,0.11138916015625,0.539794921875,-5388,6209,27,-5,0,3
539056393,-0.45440673828125,-0.699951171875,0.11138916015625,0.5396728515625,-5358,6198,27,-5,0,3
539066375,-0.45489501953125,-0.69970703125,0.111328125,0.53955078125,-5328,6189,41,-4,0,1
539076358,-0.455322265625,-0.69952392578125,0.11114501953125,0.53948974609375,-5319,6189,43,-4,0,0
539086340,-0.45556640625,-0.69940185546875,0.11077880859375,0.53948974609375,-5315,6196,38,-3,1,-2
539096321,-0.4556884765625,-0.6993408203125,0.1102294921875,0.53955078125,-5324,6194,38,-4,1,-4
539106301,-0.45562744140625,-0.69940185546875,0.10955810546875,0.5396728515625,-5347,6201,21,-3,2,-5
539116280,-0.45556640625,-0.69940185546875,0.10882568359375,0.53985595703125,-5369,6207,17,-3,1,-5
539126273,-0.45550537109375,-0.69952392578125,0.108154296875,0.53997802734375,-5380,6203,8,-3,2,-5
539136257,-0.45562744140625,-0.69952392578125,0.10760498046875,0.5399169921875,-5386,6205,10,-3,2,-3
539146243,-0.455810546875,-0.69952392578125,0.10711669921875,0.539794921875,-5400,6194,-6,-4,2,-1
539156226,-0.4561767578125,-0.6995849609375,0.1068115234375,0.53955078125,-5401,6192,-4,-3,3,0
539166216,-0.45648193359375,-0.69964599609375,0.10650634765625,0.539306640625,-5407,6183,-14,-3,3,1
539176199,-0.4569091796875,-0.69964599609375,0.10626220703125,0.5389404296875,-5418,6190,-13,-4,3,1
539186175,-0.45721435546875,-0.69970703125,0.10589599609375,0.53863525390625,-5420,6200,-28,-3,3,0
539196152,-0.45745849609375,-0.6998291015625,0.10546875,0.5384521484375,-5446,6216,-38,-3,3,-2
539206132,-0.45758056640625,-0.70001220703125,0.10491943359375,0.5382080078125,-5461,6231,-54,-3,3,-3
539216116,-0.45758056640625,-0.70013427734375,0.10430908203125,0.53814697265625,-5487,6243,-49,-3,3,-3
539226098,-0.4576416015625,-0.70025634765625,0.10369873046875,0.53802490234375,-5499,6251,-40,-3,3,-3
539236085,-0.45770263671875,-0.70037841796875,0.10308837890625,0.53790283203125,-5521,6276,-25,-3,3,-3
539246064,-0.45782470703125,-0.70050048828125,0.1025390625,0.53778076171875,-5539,6286,-18,-3,3,-2
539256044,-0.45794677734375,-0.7005615234375,0.10211181640625,0.53765869140625,-5563,6295,-3,-3,2,-2
539266036,-0.45819091796875,-0.70062255859375,0.101806640625,0.53753662109375,-5568,6296,13,-3,2,0
539276022,-0.45843505859375,-0.7005615234375,0.1015625,0.537353515625,-5565,6283,15,-3,1,1
539286000,-0.45880126953125,-0.70050048828125,0.1014404296875,0.53717041015625,-5559,6278,21,-3,1,1
539295981,-0.4591064453125,-0.700439453125,0.101318359375,0.5369873046875,-5525,6264,26,-3,1,1
539305966,-0.45941162109375,-0.70037841796875,0.10107421875,0.53692626953125,-5513,6255,51,-3,1,-1
539315944,-0.45953369140625,-0.7003173828125,0.10076904296875,0.53692626953125,-5501,6245,60,-3,1,-2
539325928,-0.45953369140625,-0.70025634765625,0.100341796875,0.53704833984375,-5494,6237,52,-3,1,-4
539335912,-0.45953369140625,-0.70025634765625,0.099853515625,0.53717041015625,-5481,6234,63,-2,0,-4
539345894,-0.45953369140625,-0.70013427734375,0.099365234375,0.537353515625,-5487,6236,74,-3,0,-4
539355878,-0.45953369140625,-0.7000732421875,0.09893798828125,0.53753662109375,-5515,6236,74,-2,0,-3
539365860,-0.45953369140625,-0.70001220703125,0.0985107421875,0.5377197265625,-5525,6253,68,-3,0,-3
539375842,-0.4595947265625,-0.69989013671875,0.09814453125,0.537841796875,-5530,6264,91,-2,0,-2
539385825,-0.45977783203125,-0.69976806640625,0.097900390625,0.5379638671875,-5523,6250,91,-3,0,-2
539395806,-0.45989990234375,-0.69964599609375,0.09765625,0.5380859375,-5531,6239,99,-3,0,-1
539405798,-0.46002197265625,-0.69952392578125,0.097412109375,0.53814697265625,-5527,6207,88,-3,0,-1
539415780,-0.46014404296875,-0.699462890625,0.09716796875,0.53814697265625,-5526,6174,79,-2,0,-1
539425756,-0.460205078125,-0.69940185546875,0.09698486328125,0.5382080078125,-5512,6168,75,-2,0,-1
539435740,-0.46026611328125,-0.6993408203125,0.09674072265625,0.5382080078125,-5517,6149,75,-2,0,-1
539445723,-0.46026611328125,-0.6993408203125,0.09649658203125,0.53826904296875,-5522,6131,67,-1,0,-2
539455707,-0.4603271484375,-0.6993408203125,0.0963134765625,0.53826904296875,-5525,6114,64,-1,0,-1
539465691,-0.46038818359375,-0.69940185546875,0.09619140625,0.5382080078125,-5534,6104,56,-1,0,0
539475671,-0.46051025390625,-0.69940185546875,0.09619140625,0.5380859375,-5525,6096,39,-1,0,1
539485654,-0.46063232421875,-0.699462890625,0.09625244140625,0.53790283203125,-5531,6079,24,-1,1,2
539495637,-0.46075439453125,-0.69952392578125,0.0963134765625,0.5377197265625,-5535,6070,18,-1,1,1
539505624,-0.4608154296875,-0.69964599609375,0.0963134765625,0.53753662109375,-5541,6062,10,0,1,1
539515604,-0.4608154296875,-0.69976806640625,0.0963134765625,0.537353515625,-5536,6066,1,0,1,0
539525592,-0.46075439453125,-0.69989013671875,0.09619140625,0.5372314453125,-5557,6070,-4,0,1,-1
539535570,-0.4605712890625,-0.70013427734375,0.09600830078125,0.537109375,-5583,6079,-17,1,1,-2
539545553,-0.4603271484375,-0.7003173828125,0.0958251953125,0.537109375,-5606,6108,-36,1,1,-3
539555533,-0.46002197265625,-0.70050048828125,0.09552001953125,0.53717041015625,-5656,6139,-51,1,1,-3
539565515,-0.45977783203125,-0.70068359375,0.09539794921875,0.5372314453125,-5677,6152,-49,1,0,-2
539575499,-0.45953369140625,-0.7008056640625,0.0953369140625,0.5372314453125,-5697,6159,-51,1,0,-1
539585487,-0.45947265625,-0.7008056640625,0.09552001953125,0.5372314453125,-5699,6156,-45,1,-1,1
539595471,-0.45953369140625,-0.7008056640625,0.0958251953125,0.53717041015625,-5703,6153,-29,1,-2,3
539605453,-0.45965576171875,-0.7008056640625,0.0963134765625,0.53704833984375,-5671,6165,-20,1,-2,4
539615435,-0.45977783203125,-0.70074462890625,0.0968017578125,0.53692626953125,-5639,6172,-9,1,-2,3
539625413,-0.4598388671875,-0.70068359375,0.0972900390625,0.53680419921875,-5600,6156,6,2,-2,3
539635394,-0.4598388671875,-0.70068359375,0.09771728515625,0.5367431640625,-5563,6144,11,2,-2,2
539645385,-0.4595947265625,-0.70074462890625,0.09796142578125,0.53680419921875,-5553,6147,8,2,-2,0
539655363,-0.45928955078125,-0.70086669921875,0.09814453125,0.53692626953125,-5550,6146,15,3,-1,-2
539665341,-0.4588623046875,-0.700927734375,0.09820556640625,0.53717041015625,-5555,6175,19,3,-2,-3
539675327,-0.45843505859375,-0.7010498046875,0.0982666015625,0.537353515625,-5566,6191,12,3,-2,-3
539685309,-0.4580078125,-0.70111083984375,0.09844970703125,0.53759765625,-5586,6198,16,3,-2,-1
539695298,-0.457763671875,-0.70111083984375,0.0987548828125,0.5377197265625,-5591,6198,19,3,-3,0
539705272,-0.45758056640625,-0.70111083984375,0.09918212890625,0.53778076171875,-5582,6212,11,3,-3,2
539715264,-0.45751953125,-0.7010498046875,0.09979248046875,0.537841796875,-5583,6214,9,2,-3,3
539725246,-0.4573974609375,-0.70098876953125,0.100341796875,0.53790283203125,-5560,6211,12,3,-3,2
539735227,-0.457275390625,-0.70086669921875,0.10089111328125,0.5380859375,-5539,6182,6,2,-4,1
539745219,-0.45697021484375,-0.70086669921875,0.101318359375,0.53826904296875,-5517,6182,0,3,-4,0
539755202,-0.45654296875,-0.7008056640625,0.10162353515625,0.53857421875,-5517,6182,-4,3,-4,-2
539765172,-0.4560546875,-0.70086669921875,0.10186767578125,0.53900146484375,-5516,6182,-21,3,-4,-3
539775151,-0.4554443359375,-0.70086669921875,0.10205078125,0.5394287109375,-5523,6191,-31,3,-4,-3
539785133,-0.4549560546875,-0.7008056640625,0.10223388671875,0.53985595703125,-5529,6211,-38,3,-5,-4
539795116,-0.45440673828125,-0.7008056640625,0.10247802734375,0.540283203125,-5544,6217,-49,3,-4,-3
539805100,-0.4539794921875,-0.70074462890625,0.10284423828125,0.5406494140625,-5550,6226,-42,3,-5,-1
539815086,-0.45361328125,-0.70068359375,0.103271484375,0.541015625,-5569,6233,-49,3,-5,-1
539825068,-0.45318603515625,-0.70062255859375,0.103759765625,0.541259765625,-5569,6237,-68,3,-5,-1
539835045,-0.45281982421875,-0.7005615234375,0.104248046875,0.54156494140625,-5558,6252,-78,3,-5,-1
539845033,-0.45245361328125,-0.70050048828125,0.10467529296875,0.5418701171875,-5561,6259,-86,3,-5,-1
539855018,-0.4520263671875,-0.700439453125,0.10516357421875,0.54217529296875,-5557,6266,-91,3,-5,-1
539864999,-0.45172119140625,-0.700439453125,0.105712890625,0.54241943359375,-5551,6276,-95,3,-5,0
539874979,-0.451416015625,-0.70037841796875,0.1063232421875,0.54266357421875,-5545,6283,-78,4,-4,1
539884966,-0.451171875,-0.70025634765625,0.10687255859375,0.5428466796875,-5531,6279,-65,3,-5,1
539894949,-0.450927734375,-0.7001953125,0.10748291015625,0.54302978515625,-5524,6287,-50,3,-4,1
539904933,-0.45068359375,-0.7000732421875,0.10809326171875,0.543212890625,-5505,6291,-52,3,-5,1
539914915,-0.450439453125,-0.70001220703125,0.108642578125,0.54345703125,-5500,6306,-62,3,-5,0
539924898,-0.45013427734375,-0.699951171875,0.109130859375,0.543701171875,-5493,6311,-73,3,-4,0
539934880,-0.4498291015625,-0.6998291015625,0.109619140625,0.5439453125,-5483,6318,-71,2,-5,0
539944862,-0.4495849609375,-0.69970703125,0.110107421875,0.544189453125,-5451,6319,-66,3,-4,0
539954846,-0.44940185546875,-0.6995849609375,0.11053466796875,0.54449462890625,-5426,6319,-48,2,-5,0
539964827,-0.44921875,-0.699462890625,0.111083984375,0.544677734375,-5402,6322,-56,2,-4,0
539974807,-0.4490966796875,-0.6993408203125,0.111572265625,0.54486083984375,-5375,6323,-60,2,-4,0
539984800,-0.44891357421875,-0.69921875,0.1119384765625,0.5450439453125,-5370,6308,-52,1,-4,0
539994786,-0.44879150390625,-0.6990966796875,0.1123046875,0.54522705078125,-5369,6315,-45,2,-4,-1
540004757,-0.4486083984375,-0.69903564453125,0.112548828125,0.54547119140625,-5352,6311,-50,1,-3,-1
540014741,-0.4483642578125,-0.698974609375,0.11279296875,0.545654296875,-5350,6298,-52,1,-3,-2
540024724,-0.4481201171875,-0.698974609375,0.11297607421875,0.54583740234375,-5355,6277,-43,1,-2,-1
540034705,-0.447998046875,-0.69891357421875,0.11309814453125,0.54595947265625,-5351,6287,-46,1,-2,-1
540044689,-0.44781494140625,-0.69891357421875,0.11328125,0.54608154296875,-5347,6266,-43,1,-2,-1
540054672,-0.44769287109375,-0.69891357421875,0.11346435546875,0.546142578125,-5356,6266,-56,1,-2,-1
540064657,-0.447509765625,-0.69891357421875,0.11358642578125,0.54620361328125,-5368,6275,-60,1,-1,-1
540074641,-0.44732666015625,-0.698974609375,0.1136474609375,0.5462646484375,-5397,6292,-72,1,-1,-2
540084621,-0.4471435546875,-0.69903564453125,0.1136474609375,0.54638671875,-5411,6314,-76,1,-1,-2
540094605,-0.44696044921875,-0.6990966796875,0.11358642578125,0.54644775390625,-5425,6329,-81,0,-1,-3
540104587,-0.44677734375,-0.69915771484375,0.11358642578125,0.5465087890625,-5436,6352,-84,1,-1,-2
540114577,-0.44671630859375,-0.69921875,0.11370849609375,0.5465087890625,-5452,6367,-99,0,-1,-1
540124562,-0.44677734375,-0.69921875,0.11383056640625,0.54638671875,-5454,6364,-88,0,0,1
540134546,-0.44696044921875,-0.69921875,0.11407470703125,0.54620361328125,-5448,6367,-83,0,-1,2
540144522,-0.44720458984375,-0.69915771484375,0.1143798828125,0.5460205078125,-5436,6349,-86,-1,-1,3
540154504,-0.44744873046875,-0.6990966796875,0.11468505859375,0.54583740234375,-5417,6338,-71,-1,-1,2
540164493,-0.44769287109375,-0.6990966796875,0.11492919921875,0.545654296875,-5405,6326,-81,0,0,2
540174469,-0.44781494140625,-0.6990966796875,0.11505126953125,0.5455322265625,-5414,6331,-71,-1,0,0
540184460,-0.4478759765625,-0.6990966796875,0.114990234375,0.54547119140625,-5419,6329,-76,-1,0,-1
