subject,Ian Lake
arm,left
label,3
hz,100.17238073489169
time,5.460587

timestamp_us,q0,q1,q2,q3,ax,ay,az,gx,gy,gz
115178647,0.689208984375,-0.41009521484375,0.5560302734375,-0.21820068359375,-4770,-6550,329,-2,-5,0
115188627,0.68939208984375,-0.41033935546875,0.5557861328125,-0.2177734375,-4755,-6536,319,-3,-5,1
115198607,0.6895751953125,-0.4105224609375,0.5556640625,-0.21722412109375,-4743,-6529,301,-3,-5,2
115208588,0.68975830078125,-0.41058349609375,0.55560302734375,-0.216552734375,-4745,-6529,282,-3,-4,3
115218571,0.69000244140625,-0.41064453125,0.55560302734375,-0.2158203125,-4744,-6530,269,-3,-4,4
115228555,0.690185546875,-0.41064453125,0.5556640625,-0.215087890625,-4757,-6520,267,-3,-4,4
115238542,0.6903076171875,-0.4107666015625,0.5556640625,-0.21441650390625,-4759,-6494,245,-3,-4,3
115248523,0.69036865234375,-0.4110107421875,0.55560302734375,-0.2138671875,-4778,-6481,236,-3,-4,0
115258506,0.69036865234375,-0.41143798828125,0.555419921875,-0.21356201171875,-4777,-6453,229,-4,-4,-2
115268484,0.69024658203125,-0.41204833984375,0.55511474609375,-0.21343994140625,-4765,-6417,241,-4,-3,-5
115278467,0.69012451171875,-0.41278076171875,0.55474853515625,-0.21343994140625,-4736,-6390,246,-4,-3,-6
115288449,0.68994140625,-0.41351318359375,0.554443359375,-0.21337890625,-4709,-6355,268,-5,-3,-5
115298436,0.68988037109375,-0.4141845703125,0.55413818359375,-0.213134765625,-4698,-6348,279,-5,-4,-3
115308426,0.68975830078125,-0.41473388671875,0.5540771484375,-0.212646484375,-4707,-6345,303,-6,-3,0
115318404,0.689697265625,-0.4151611328125,0.5540771484375,-0.2119140625,-4709,-6346,311,-7,-3,2
115328381,0.689697265625,-0.41546630859375,0.55426025390625,-0.2109375,-4741,-6376,319,-7,-3,4
115338363,0.689697265625,-0.415771484375,0.554443359375,-0.20989990234375,-4777,-6409,308,-7,-4,4
115348350,0.68963623046875,-0.4161376953125,0.5545654296875,-0.2088623046875,-4803,-6436,295,-7,-4,4
115358330,0.6895751953125,-0.41656494140625,0.55462646484375,-0.2080078125,-4823,-6468,288,-7,-4,2
115368312,0.68951416015625,-0.41717529296875,0.5545654296875,-0.207275390625,-4820,-6498,284,-7,-4,0
115378299,0.68939208984375,-0.4178466796875,0.55438232421875,-0.2066650390625,-4784,-6525,286,-7,-4,-1
115388276,0.68927001953125,-0.41851806640625,0.55419921875,-0.2061767578125,-4767,-6549,274,-7,-4,-1
115398263,0.689208984375,-0.41912841796875,0.5540771484375,-0.20556640625,-4751,-6578,264,-7,-4,0
115408243,0.6890869140625,-0.419677734375,0.5540771484375,-0.20489501953125,-4753,-6600,237,-7,-4,2
115418232,0.68902587890625,-0.42010498046875,0.55413818359375,-0.2041015625,-4750,-6630,208,-6,-3,3
115428217,0.68896484375,-0.42041015625,0.55426025390625,-0.20318603515625,-4754,-6667,190,-6,-3,4
115438194,0.68896484375,-0.42071533203125,0.55438232421875,-0.20233154296875,-4758,-6700,178,-6,-3,4
115448188,0.68890380859375,-0.42108154296875,0.55450439453125,-0.20159912109375,-4769,-6742,171,-5,-3,3
115458174,0.68878173828125,-0.42144775390625,0.5545654296875,-0.2010498046875,-4790,-6770,156,-5,-2,1
115468159,0.6885986328125,-0.42193603515625,0.55450439453125,-0.20074462890625,-4803,-6795,152,-5,-2,-1
115478124,0.6884765625,-0.4224853515625,0.5543212890625,-0.20062255859375,-4813,-6813,136,-4,-2,-3
115488107,0.68829345703125,-0.423095703125,0.5540771484375,-0.2005615234375,-4833,-6830,131,-3,-2,-4
115498091,0.68817138671875,-0.42364501953125,0.5538330078125,-0.2005615234375,-4832,-6845,135,-3,-3,-3
115508074,0.6881103515625,-0.424072265625,0.55352783203125,-0.2005615234375,-4854,-6856,150,-3,-3,-3
115518056,0.6881103515625,-0.42449951171875,0.55328369140625,-0.20037841796875,-4866,-6881,156,-3,-3,-1
115528040,0.6881103515625,-0.42486572265625,0.55303955078125,-0.2001953125,-4867,-6879,156,-2,-4,-1
115538022,0.688232421875,-0.42523193359375,0.55267333984375,-0.2000732421875,-4876,-6891,158,-2,-4,-2
115548004,0.6883544921875,-0.42559814453125,0.55224609375,-0.20001220703125,-4873,-6905,151,-2,-5,-3
115557995,0.6884765625,-0.42608642578125,0.55169677734375,-0.20013427734375,-4876,-6927,139,-1,-5,-4
115567978,0.6885986328125,-0.426513671875,0.5511474609375,-0.20025634765625,-4873,-6952,139,0,-5,-5
115577953,0.68878173828125,-0.42694091796875,0.550537109375,-0.20037841796875,-4851,-6988,133,0,-6,-4
115587934,0.68902587890625,-0.42730712890625,0.54986572265625,-0.2005615234375,-4814,-7020,132,1,-5,-4
115597917,0.6893310546875,-0.4276123046875,0.54913330078125,-0.200927734375,-4780,-7044,132,2,-5,-5
115607901,0.6895751953125,-0.427978515625,0.54840087890625,-0.201416015625,-4761,-7093,128,3,-5,-6
115617883,0.6898193359375,-0.4283447265625,0.54754638671875,-0.20208740234375,-4744,-7147,137,4,-5,-7
115627867,0.6900634765625,-0.42864990234375,0.546630859375,-0.20306396484375,-4739,-7216,159,5,-4,-9
115637848,0.6903076171875,-0.42901611328125,0.5455322265625,-0.2042236328125,-4719,-7273,227,6,-4,-11
115647832,0.690673828125,-0.42938232421875,0.5443115234375,-0.20574951171875,-4712,-7328,337,7,-4,-13
115657814,0.69097900390625,-0.4298095703125,0.5428466796875,-0.2076416015625,-4721,-7395,458,8,-3,-16
115667796,0.69134521484375,-0.4302978515625,0.5411376953125,-0.209716796875,-4782,-7499,553,9,-4,-19
115677784,0.69171142578125,-0.43084716796875,0.53936767578125,-0.21197509765625,-4871,-7633,606,10,-5,-21
115687767,0.692138671875,-0.43145751953125,0.537353515625,-0.21441650390625,-4959,-7800,622,11,-6,-23
115697751,0.692626953125,-0.43231201171875,0.5350341796875,-0.217041015625,-4974,-7983,600,12,-8,-26
115707733,0.69305419921875,-0.4334716796875,0.5322265625,-0.22021484375,-4932,-8174,589,14,-9,-31
115717711,0.69342041015625,-0.43511962890625,0.52886962890625,-0.223876953125,-4796,-8356,583,14,-11,-39
115727695,0.693603515625,-0.4373779296875,0.5247802734375,-0.22845458984375,-4599,-8525,599,15,-13,-48
115737678,0.693603515625,-0.440185546875,0.51995849609375,-0.23388671875,-4359,-8712,652,16,-13,-58
115747661,0.69342041015625,-0.4434814453125,0.5145263671875,-0.240234375,-4101,-8938,752,17,-13,-66
115757644,0.69293212890625,-0.4471435546875,0.50872802734375,-0.24725341796875,-3842,-9178,884,18,-12,-72
115767626,0.69219970703125,-0.45086669921875,0.50262451171875,-0.25482177734375,-3594,-9428,1033,18,-10,-75
115777609,0.691162109375,-0.45452880859375,0.4967041015625,-0.2625732421875,-3377,-9662,1141,18,-7,-74
115787594,0.6900634765625,-0.4578857421875,0.4912109375,-0.27001953125,-3219,-9896,1216,17,-4,-69
115797577,0.688720703125,-0.4608154296875,0.4864501953125,-0.27679443359375,-3118,-10108,1250,14,-2,-62
115807564,0.68731689453125,-0.46356201171875,0.48236083984375,-0.28289794921875,-3105,-10358,1273,11,0,-57
115817542,0.6856689453125,-0.46624755859375,0.4786376953125,-0.28863525390625,-3149,-10614,1308,8,2,-55
115827526,0.6837158203125,-0.46923828125,0.47503662109375,-0.2943115234375,-3197,-10902,1332,5,3,-58
115837508,0.6812744140625,-0.47283935546875,0.47125244140625,-0.30029296875,-3254,-11167,1330,2,2,-66
115847492,0.67828369140625,-0.47723388671875,0.466796875,-0.3070068359375,-3303,-11355,1355,-1,2,-79
115857473,0.67449951171875,-0.482666015625,0.46142578125,-0.31488037109375,-3356,-11526,1369,-2,1,-97
115867457,0.66986083984375,-0.48919677734375,0.4549560546875,-0.323974609375,-3389,-11634,1378,-4,1,-116
115877438,0.664306640625,-0.49676513671875,0.447265625,-0.33441162109375,-3408,-11717,1393,-5,-1,-136
115887428,0.657958984375,-0.50518798828125,0.4383544921875,-0.345947265625,-3405,-11753,1395,-6,-2,-154
115897408,0.65087890625,-0.5142822265625,0.4283447265625,-0.35833740234375,-3335,-11740,1370,-6,-4,-167
115907391,0.6431884765625,-0.52362060546875,0.41754150390625,-0.37115478515625,-3227,-11691,1335,-6,-6,-176
115917369,0.6351318359375,-0.53314208984375,0.406005859375,-0.38409423828125,-3095,-11644,1282,-6,-8,-181
115927351,0.62689208984375,-0.54241943359375,0.39410400390625,-0.39678955078125,-2945,-11617,1229,-4,-10,-182
115937334,0.61865234375,-0.55145263671875,0.38189697265625,-0.40899658203125,-2771,-11590,1176,-3,-13,-181
115947319,0.610595703125,-0.56005859375,0.36944580078125,-0.42071533203125,-2532,-11485,1139,-1,-15,-177
115957306,0.6025390625,-0.56829833984375,0.3568115234375,-0.43206787109375,-2239,-11344,1110,0,-17,-176
115967285,0.59454345703125,-0.57623291015625,0.3438720703125,-0.4429931640625,-1957,-11225,1044,2,-19,-174
115977268,0.58648681640625,-0.58380126953125,0.3306884765625,-0.45367431640625,-1634,-11127,973,4,-20,-174
115987256,0.5784912109375,-0.59100341796875,0.31732177734375,-0.464111328125,-1250,-11019,940,6,-21,-172
115997241,0.57037353515625,-0.59783935546875,0.30377197265625,-0.47430419921875,-883,-10935,918,8,-21,-171
116007224,0.562255859375,-0.60418701171875,0.2901611328125,-0.48443603515625,-531,-10865,893,10,-19,-171
116017206,0.553955078125,-0.610107421875,0.2764892578125,-0.49444580078125,-158,-10775,870,11,-18,-170
116027195,0.54547119140625,-0.61553955078125,0.26263427734375,-0.50457763671875,187,-10632,861,13,-16,-172
116037177,0.53656005859375,-0.62066650390625,0.24853515625,-0.514892578125,509,-10442,826,14,-13,-176
116047164,0.52703857421875,-0.62542724609375,0.23394775390625,-0.52569580078125,805,-10223,782,16,-10,-184
116057140,0.516845703125,-0.6298828125,0.2188720703125,-0.536865234375,1076,-10008,718,17,-7,-190
116067115,0.506103515625,-0.6339111328125,0.2034912109375,-0.54833984375,1342,-9772,654,18,-4,-195
116077097,0.49468994140625,-0.63751220703125,0.18768310546875,-0.56005859375,1596,-9449,606,19,-1,-200
116087084,0.48272705078125,-0.64068603515625,0.1715087890625,-0.57196044921875,1818,-9038,556,19,1,-205
116099995,0.47015380859375,-0.64337158203125,0.1549072265625,-0.58404541015625,2035,-8614,515,20,3,-209
116107051,0.45703125,-0.64556884765625,0.1380615234375,-0.5960693359375,2240,-8182,484,20,5,-211
116117029,0.44354248046875,-0.64727783203125,0.12103271484375,-0.6080322265625,2398,-7772,471,21,7,-213
116127012,0.4298095703125,-0.64837646484375,0.1041259765625,-0.6197509765625,2529,-7351,465,21,9,-211
116136996,0.41595458984375,-0.64898681640625,0.08746337890625,-0.63104248046875,2650,-6958,434,21,10,-208
116146983,0.40228271484375,-0.64910888671875,0.07110595703125,-0.6417236328125,2735,-6596,411,21,10,-203
116156962,0.38885498046875,-0.64886474609375,0.05523681640625,-0.6517333984375,2803,-6277,385,21,11,-197
116166946,0.37591552734375,-0.64825439453125,0.03997802734375,-0.6610107421875,2847,-5944,371,21,10,-189
116176929,0.36328125,-0.6473388671875,0.025146484375,-0.66961669921875,2888,-5586,343,21,9,-182
116186911,0.35101318359375,-0.646240234375,0.0107421875,-0.67755126953125,2924,-5235,300,21,8,-176
116196894,0.33905029296875,-0.64501953125,-0.0032958984375,-0.68487548828125,2966,-4906,261,20,6,-170
116206878,0.32745361328125,-0.64373779296875,-0.01690673828125,-0.6915283203125,3009,-4581,225,20,5,-163
116216860,0.31622314453125,-0.64239501953125,-0.030029296875,-0.697509765625,3058,-4220,210,19,3,-155
116226842,0.30548095703125,-0.64105224609375,-0.04266357421875,-0.702880859375,3119,-3843,219,19,2,-147
116236826,0.2952880859375,-0.6396484375,-0.0545654296875,-0.70758056640625,3163,-3478,219,18,0,-138
116246810,0.28570556640625,-0.63836669921875,-0.06585693359375,-0.71173095703125,3181,-3095,225,17,-2,-128
116256789,0.276611328125,-0.63714599609375,-0.0765380859375,-0.71539306640625,3188,-2715,235,16,-4,-120
116266771,0.2679443359375,-0.63604736328125,-0.086669921875,-0.71844482421875,3193,-2356,242,15,-6,-113
116276762,0.2596435546875,-0.63507080078125,-0.09649658203125,-0.72113037109375,3197,-2016,258,15,-8,-108
116286744,0.2515869140625,-0.63421630859375,-0.10601806640625,-0.723388671875,3215,-1665,302,14,-10,-103
116296721,0.24359130859375,-0.6334228515625,-0.1153564453125,-0.72540283203125,3229,-1301,346,13,-12,-101
116306703,0.235595703125,-0.63262939453125,-0.124755859375,-0.7271728515625,3262,-925,374,13,-13,-99
116316686,0.22747802734375,-0.63189697265625,-0.13409423828125,-0.72869873046875,3299,-523,403,13,-15,-98
116326668,0.2193603515625,-0.6312255859375,-0.1434326171875,-0.73004150390625,3330,-134,433,12,-16,-96
116336653,0.2113037109375,-0.6304931640625,-0.152587890625,-0.73114013671875,3362,243,468,12,-17,-93
116346636,0.2034912109375,-0.62982177734375,-0.16143798828125,-0.7320556640625,3420,613,535,11,-18,-88
116356619,0.1959228515625,-0.629150390625,-0.16986083984375,-0.7327880859375,3486,962,623,10,-18,-83
116366607,0.1888427734375,-0.6285400390625,-0.1778564453125,-0.7332763671875,3558,1294,739,10,-19,-76
116376588,0.18231201171875,-0.62799072265625,-0.18536376953125,-0.73358154296875,3667,1626,857,10,-19,-70
116386573,0.17620849609375,-0.62744140625,-0.1923828125,-0.7337646484375,3794,1978,977,10,-19,-63
116396556,0.17059326171875,-0.62689208984375,-0.19903564453125,-0.7337646484375,3914,2343,1089,10,-19,-57
116406542,0.1654052734375,-0.62628173828125,-0.205322265625,-0.73370361328125,4029,2702,1179,10,-17,-52
116416520,0.16064453125,-0.62567138671875,-0.21136474609375,-0.73358154296875,4143,3055,1241,11,-16,-47
116426503,0.15625,-0.625,-0.21710205078125,-0.73345947265625,4227,3384,1280,12,-16,-42
116436484,0.15252685546875,-0.62432861328125,-0.22247314453125,-0.73321533203125,4290,3638,1299,13,-14,-35
116446468,0.149658203125,-0.6236572265625,-0.22735595703125,-0.7327880859375,4316,3840,1299,15,-13,-26
116456452,0.1480712890625,-0.6231689453125,-0.23150634765625,-0.7322998046875,4321,3974,1330,17,-11,-14
116466431,0.148193359375,-0.62286376953125,-0.234619140625,-0.73150634765625,4321,4109,1377,20,-9,4
116476418,0.150390625,-0.62298583984375,-0.23638916015625,-0.73040771484375,4321,4245,1404,23,-8,26
116486401,0.15484619140625,-0.62359619140625,-0.236572265625,-0.7288818359375,4319,4378,1420,25,-8,49
116496379,0.1612548828125,-0.6248779296875,-0.2352294921875,-0.72686767578125,4316,4508,1420,26,-8,71
116506361,0.16925048828125,-0.62652587890625,-0.232666015625,-0.72442626953125,4343,4591,1377,26,-7,87
116516350,0.17828369140625,-0.6285400390625,-0.2291259765625,-0.72161865234375,4390,4585,1309,26,-7,97
116526327,0.18798828125,-0.63067626953125,-0.22491455078125,-0.7186279296875,4401,4505,1206,26,-6,104
116536310,0.19830322265625,-0.63299560546875,-0.2200927734375,-0.71533203125,4385,4342,1105,25,-6,111
116546294,0.20916748046875,-0.6353759765625,-0.21453857421875,-0.71173095703125,4350,4126,988,24,-6,118
116556278,0.22076416015625,-0.637939453125,-0.20806884765625,-0.70782470703125,4293,3870,871,23,-5,127
116566260,0.233154296875,-0.6407470703125,-0.2005615234375,-0.70355224609375,4231,3581,766,21,-5,137
116576241,0.2462158203125,-0.64361572265625,-0.19207763671875,-0.69879150390625,4181,3281,676,20,-4,146
116586233,0.259765625,-0.646484375,-0.1826171875,-0.6937255859375,4143,2976,602,18,-3,154
116596211,0.27374267578125,-0.64935302734375,-0.1722412109375,-0.6883544921875,4135,2662,548,15,-2,160
116606206,0.287841796875,-0.65203857421875,-0.1610107421875,-0.6827392578125,4094,2314,494,12,0,165
116616185,0.30218505859375,-0.654541015625,-0.14898681640625,-0.6768798828125,4079,1939,423,9,2,170
116626174,0.31671142578125,-0.65679931640625,-0.13616943359375,-0.670654296875,4054,1524,352,7,5,174
116636144,0.33135986328125,-0.6588134765625,-0.1224365234375,-0.66424560546875,4021,1102,300,4,7,179
116646121,0.34600830078125,-0.66046142578125,-0.10797119140625,-0.6575927734375,4017,669,247,1,11,181
116656101,0.36041259765625,-0.66168212890625,-0.093017578125,-0.65093994140625,4034,220,220,-1,14,180
116666084,0.37445068359375,-0.662353515625,-0.07769775390625,-0.644287109375,4036,-281,198,-3,18,179
116676066,0.388427734375,-0.66253662109375,-0.06170654296875,-0.63751220703125,4005,-868,158,-5,22,181
116686051,0.402587890625,-0.6622314453125,-0.04486083984375,-0.63037109375,3956,-1505,124,-6,26,186
116696031,0.41729736328125,-0.66143798828125,-0.0267333984375,-0.6226806640625,3878,-2221,67,-7,30,197
116706013,0.432861328125,-0.66009521484375,-0.00714111328125,-0.6138916015625,3752,-2942,27,-8,32,211
116715996,0.44915771484375,-0.6580810546875,0.01373291015625,-0.60418701171875,3593,-3641,18,-7,34,222
116725986,0.4658203125,-0.6553955078125,0.03546142578125,-0.59356689453125,3418,-4370,18,-6,36,230
116735963,0.482421875,-0.65191650390625,0.05767822265625,-0.58221435546875,3225,-5085,68,-6,37,232
116745946,0.49853515625,-0.64764404296875,0.0797119140625,-0.5706787109375,3000,-5773,127,-4,39,228
116755930,0.51373291015625,-0.642822265625,0.10107421875,-0.55914306640625,2808,-6366,202,-4,39,219
116765910,0.527587890625,-0.637451171875,0.12109375,-0.54827880859375,2613,-6853,311,-2,40,203
116775899,0.5400390625,-0.63177490234375,0.1395263671875,-0.538330078125,2460,-7280,407,0,40,184
116785879,0.55096435546875,-0.62591552734375,0.15631103515625,-0.5294189453125,2343,-7621,537,1,41,166
116795860,0.56060791015625,-0.61993408203125,0.1717529296875,-0.521484375,2215,-7977,647,1,42,151
116805846,0.5693359375,-0.61395263671875,0.1864013671875,-0.51397705078125,2119,-8281,764,1,42,144
116815827,0.57757568359375,-0.6077880859375,0.2008056640625,-0.50665283203125,1987,-8489,917,-1,42,142
116825810,0.58544921875,-0.60150146484375,0.21514892578125,-0.4991455078125,1884,-8530,1030,-2,43,142
116835794,0.59283447265625,-0.59515380859375,0.22930908203125,-0.49176025390625,1761,-8453,1156,-3,43,140
116845775,0.59967041015625,-0.588623046875,0.2430419921875,-0.484619140625,1568,-8384,1281,-4,44,134
116855764,0.6060791015625,-0.58203125,0.25665283203125,-0.47760009765625,1356,-8334,1381,-6,45,133
116865747,0.61224365234375,-0.57525634765625,0.2703857421875,-0.47027587890625,1061,-8382,1446,-7,45,135
116875725,0.61859130859375,-0.568115234375,0.28466796875,-0.462158203125,736,-8477,1488,-8,45,144
116885705,0.625244140625,-0.56048583984375,0.29949951171875,-0.4530029296875,336,-8589,1504,-8,44,153
116895689,0.632080078125,-0.55242919921875,0.31488037109375,-0.44281005859375,-80,-8760,1481,-9,43,162
116905673,0.6390380859375,-0.54400634765625,0.33050537109375,-0.4317626953125,-496,-8872,1471,-9,41,167
116915656,0.64569091796875,-0.535400390625,0.345947265625,-0.42034912109375,-924,-8919,1451,-10,40,166
116925638,0.65179443359375,-0.52691650390625,0.36083984375,-0.4090576171875,-1295,-8913,1413,-11,39,159
116935620,0.656982421875,-0.518798828125,0.37469482421875,-0.3984375,-1619,-8899,1397,-11,38,147
116945602,0.661376953125,-0.5111083984375,0.3876953125,-0.38861083984375,-1940,-8990,1373,-12,38,136
116955586,0.6650390625,-0.50372314453125,0.40008544921875,-0.37933349609375,-2161,-9115,1386,-13,38,130
116965566,0.668212890625,-0.4964599609375,0.41217041015625,-0.37030029296875,-2449,-9318,1402,-14,40,126
116975550,0.6710205078125,-0.48907470703125,0.42437744140625,-0.36114501953125,-2875,-9716,1368,-15,41,129
116985532,0.67388916015625,-0.4810791015625,0.43731689453125,-0.35101318359375,-3356,-10252,1293,-16,42,140
116995515,0.67706298828125,-0.47216796875,0.45111083984375,-0.33935546875,-3889,-10786,1188,-17,42,158
117005497,0.68048095703125,-0.46234130859375,0.465576171875,-0.326171875,-4435,-11282,1055,-18,41,172
117015483,0.68389892578125,-0.4520263671875,0.48004150390625,-0.31219482421875,-4907,-11670,937,-18,39,176
117025464,0.68682861328125,-0.4420166015625,0.49359130859375,-0.2987060546875,-5319,-11999,896,-17,37,165
117035449,0.6888427734375,-0.43304443359375,0.505615234375,-0.28692626953125,-5693,-12309,929,-16,37,143
117045437,0.68988037109375,-0.42547607421875,0.51580810546875,-0.27740478515625,-6031,-12678,1024,-16,36,117
117055421,0.69000244140625,-0.41949462890625,0.5242919921875,-0.2701416015625,-6316,-13062,1115,-14,34,93
117065403,0.6895751953125,-0.414794921875,0.53131103515625,-0.2647705078125,-6544,-13417,1204,-14,32,73
117075379,0.688720703125,-0.411376953125,0.5369873046875,-0.2608642578125,-6677,-13636,1228,-12,29,54
117085361,0.68743896484375,-0.4093017578125,0.541259765625,-0.2586669921875,-6745,-13734,1241,-11,26,33
117095350,0.68572998046875,-0.4088134765625,0.5439453125,-0.25836181640625,-6698,-13721,1295,-10,22,10
117105325,0.6837158203125,-0.40997314453125,0.54486083984375,-0.260009765625,-6542,-13676,1388,-9,17,-14
117115307,0.681396484375,-0.4124755859375,0.544189453125,-0.263427734375,-6296,-13540,1527,-8,14,-35
117125293,0.67889404296875,-0.41607666015625,0.542236328125,-0.2681884765625,-5942,-13327,1698,-6,10,-50
117135272,0.67633056640625,-0.42034912109375,0.53924560546875,-0.27398681640625,-5504,-13038,1884,-5,7,-60
117145257,0.673828125,-0.42498779296875,0.5355224609375,-0.2802734375,-5046,-12736,2056,-4,4,-66
117155245,0.6715087890625,-0.42962646484375,0.53131103515625,-0.28668212890625,-4570,-12490,2191,-2,1,-66
117165224,0.6695556640625,-0.43402099609375,0.52691650390625,-0.29266357421875,-4142,-12256,2306,-1,-2,-60
117175207,0.66815185546875,-0.4378662109375,0.52264404296875,-0.29791259765625,-3825,-12114,2384,0,-5,-53
117185192,0.66717529296875,-0.44122314453125,0.5184326171875,-0.3023681640625,-3616,-12006,2401,1,-9,-46
117195177,0.66650390625,-0.4444580078125,0.51416015625,-0.306396484375,-3477,-11928,2391,2,-12,-45
117205160,0.6658935546875,-0.44793701171875,0.5093994140625,-0.31048583984375,-3418,-11905,2372,3,-16,-50
117215130,0.66522216796875,-0.45184326171875,0.50408935546875,-0.31500244140625,-3366,-11917,2339,4,-19,-58
117225115,0.66436767578125,-0.45635986328125,0.49798583984375,-0.32000732421875,-3359,-11973,2280,4,-22,-68
117235099,0.66314697265625,-0.46148681640625,0.49114990234375,-0.3255615234375,-3383,-12067,2190,4,-25,-78
117245082,0.66162109375,-0.46734619140625,0.483642578125,-0.33160400390625,-3431,-12185,2076,4,-27,-89
117255064,0.65966796875,-0.47381591796875,0.47528076171875,-0.3382568359375,-3476,-12329,1932,5,-30,-99
117265051,0.65740966796875,-0.4808349609375,0.4661865234375,-0.3453369140625,-3500,-12505,1777,5,-33,-109
117275031,0.65478515625,-0.48834228515625,0.4564208984375,-0.352783203125,-3449,-12643,1632,6,-36,-116
117285014,0.65185546875,-0.4962158203125,0.4459228515625,-0.36053466796875,-3363,-12730,1503,6,-38,-124
117294996,0.64849853515625,-0.50439453125,0.434814453125,-0.36871337890625,-3236,-12790,1383,6,-40,-132
117304985,0.64471435546875,-0.51287841796875,0.4229736328125,-0.3773193359375,-3053,-12820,1284,7,-40,-140
117314962,0.64044189453125,-0.52154541015625,0.41064453125,-0.38623046875,-2844,-12872,1193,7,-41,-146
117324944,0.6358642578125,-0.5301513671875,0.39801025390625,-0.395263671875,-2612,-12895,1092,8,-41,-149
117334927,0.630859375,-0.5386962890625,0.38507080078125,-0.4044189453125,-2370,-12891,999,8,-40,-153
117344910,0.62542724609375,-0.547119140625,0.37188720703125,-0.4136962890625,-2102,-12850,907,9,-39,-157
117354893,0.6195068359375,-0.55548095703125,0.3582763671875,-0.4234619140625,-1857,-12796,825,10,-37,-164
117364878,0.6129150390625,-0.56378173828125,0.34417724609375,-0.43359375,-1622,-12697,732,11,-36,-172
117374861,0.6055908203125,-0.572021484375,0.329345703125,-0.44451904296875,-1327,-12482,673,12,-33,-183
117384845,0.59735107421875,-0.5802001953125,0.3135986328125,-0.45635986328125,-981,-12216,635,14,-30,-195
117394828,0.588134765625,-0.58819580078125,0.29693603515625,-0.46905517578125,-585,-11910,637,16,-27,-207
117404811,0.578125,-0.595703125,0.27960205078125,-0.482421875,-174,-11555,664,17,-23,-213
117414794,0.56744384765625,-0.60260009765625,0.261962890625,-0.4962158203125,206,-11130,708,19,-19,-218
117424774,0.556396484375,-0.60870361328125,0.24432373046875,-0.5101318359375,537,-10713,750,21,-14,-218
117434765,0.545166015625,-0.6138916015625,0.2269287109375,-0.52392578125,817,-10284,800,22,-10,-215
117444747,0.5340576171875,-0.61810302734375,0.2100830078125,-0.5372314453125,1057,-9895,807,24,-5,-207
117454725,0.523193359375,-0.6214599609375,0.19403076171875,-0.5499267578125,1233,-9470,804,25,-3,-199
117464711,0.51263427734375,-0.62408447265625,0.178466796875,-0.56207275390625,1343,-9066,788,27,0,-192
117474688,0.502197265625,-0.62603759765625,0.16326904296875,-0.5738525390625,1419,-8709,771,28,2,-190
117484671,0.49163818359375,-0.62738037109375,0.1480712890625,-0.58544921875,1459,-8370,746,30,4,-190
117494655,0.48077392578125,-0.62835693359375,0.13262939453125,-0.5970458984375,1447,-8048,726,31,5,-194
117504640,0.469482421875,-0.62884521484375,0.11669921875,-0.60870361328125,1412,-7703,688,34,6,-200
117514622,0.45751953125,-0.62896728515625,0.0999755859375,-0.62060546875,1386,-7306,654,35,7,-208
117524606,0.44476318359375,-0.628662109375,0.08258056640625,-0.63262939453125,1352,-6921,629,37,8,-215
117534589,0.43170166015625,-0.6278076171875,0.0648193359375,-0.64447021484375,1351,-6533,604,38,9,-216
117544571,0.41864013671875,-0.62646484375,0.0472412109375,-0.65582275390625,1365,-6171,559,39,9,-211
117554553,0.40606689453125,-0.62469482421875,0.0301513671875,-0.6663818359375,1394,-5777,512,40,9,-201
117564536,0.3939208984375,-0.62261962890625,0.0135498046875,-0.67608642578125,1431,-5397,490,41,8,-193
117574519,0.38232421875,-0.62017822265625,-0.00244140625,-0.68499755859375,1457,-5036,464,41,8,-184
117584503,0.3712158203125,-0.6175537109375,-0.01788330078125,-0.6932373046875,1464,-4716,437,41,7,-177
117594487,0.36041259765625,-0.61474609375,-0.032958984375,-0.7008056640625,1489,-4375,417,40,6,-170
117604469,0.3497314453125,-0.61181640625,-0.04766845703125,-0.7078857421875,1534,-4061,394,40,6,-166
117614452,0.33917236328125,-0.60882568359375,-0.06207275390625,-0.7144775390625,1602,-3736,387,38,5,-162
117624431,0.32867431640625,-0.60577392578125,-0.0760498046875,-0.72064208984375,1697,-3390,387,36,4,-157
117634423,0.31817626953125,-0.6026611328125,-0.089599609375,-0.72637939453125,1792,-3031,386,33,4,-152
117644406,0.30755615234375,-0.59954833984375,-0.10260009765625,-0.73175048828125,1881,-2689,386,30,3,-149
117654390,0.2967529296875,-0.596435546875,-0.11529541015625,-0.73687744140625,1924,-2331,396,26,3,-147
117664366,0.2855224609375,-0.59326171875,-0.127685546875,-0.7418212890625,1988,-1962,420,23,3,-147
117674350,0.27374267578125,-0.5899658203125,-0.13995361328125,-0.74664306640625,2049,-1580,449,19,2,-149
117684332,0.26123046875,-0.58648681640625,-0.15228271484375,-0.75146484375,2144,-1179,505,16,2,-153
117694315,0.248046875,-0.58270263671875,-0.16455078125,-0.7562255859375,2268,-738,620,13,2,-155
117704297,0.234375,-0.57867431640625,-0.17681884765625,-0.76092529296875,2435,-248,758,11,3,-156
117714282,0.2203369140625,-0.57427978515625,-0.18902587890625,-0.7655029296875,2631,280,928,9,3,-157
117724264,0.20611572265625,-0.56951904296875,-0.2010498046875,-0.76995849609375,2837,832,1108,7,5,-154
117734245,0.19189453125,-0.564453125,-0.2127685546875,-0.77423095703125,3024,1399,1263,6,6,-151
117744237,0.177978515625,-0.55908203125,-0.22412109375,-0.7781982421875,3195,1976,1406,6,7,-145
117754220,0.16455078125,-0.5535888671875,-0.235107421875,-0.7818603515625,3363,2474,1514,7,8,-139
117764206,0.15203857421875,-0.5478515625,-0.24578857421875,-0.78515625,3520,2808,1704,11,10,-132
117774192,0.14129638671875,-0.54168701171875,-0.2562255859375,-0.78802490234375,3631,2817,2098,22,13,-121
117784175,0.1336669921875,-0.5350341796875,-0.26654052734375,-0.79052734375,3687,2600,2579,41,18,-103
117794157,0.1302490234375,-0.528076171875,-0.277099609375,-0.79217529296875,3624,2484,2881,65,25,-75
117804128,0.13189697265625,-0.521484375,-0.28741455078125,-0.79254150390625,3539,2737,2879,86,30,-33
117814112,0.13885498046875,-0.51605224609375,-0.2967529296875,-0.79150390625,3493,3384,2630,99,32,17
117824090,0.15045166015625,-0.51214599609375,-0.30438232421875,-0.78900146484375,3522,4243,2307,104,32,63
117834073,0.16510009765625,-0.509521484375,-0.31024169921875,-0.78546142578125,3595,5058,2025,104,30,94
117844054,0.18109130859375,-0.50775146484375,-0.31475830078125,-0.78125,3610,5694,1781,101,27,110
117854038,0.197265625,-0.50653076171875,-0.3184814453125,-0.776611328125,3595,6149,1564,96,24,114
117864021,0.21240234375,-0.5054931640625,-0.32196044921875,-0.7718505859375,3595,6488,1377,90,20,107
117874003,0.22589111328125,-0.50433349609375,-0.3255615234375,-0.76727294921875,3635,6731,1214,83,18,95
117883995,0.2376708984375,-0.5030517578125,-0.3291015625,-0.76300048828125,3671,6864,1111,75,15,83
117893978,0.24810791015625,-0.501953125,-0.332275390625,-0.75909423828125,3738,6902,1019,66,13,77
117903954,0.25775146484375,-0.501220703125,-0.3345947265625,-0.75531005859375,3828,6871,947,56,11,78
117913937,0.2674560546875,-0.501220703125,-0.33551025390625,-0.75152587890625,3986,6770,897,46,10,86
117923920,0.27777099609375,-0.502197265625,-0.33441162109375,-0.74755859375,4167,6574,867,36,10,102
117933903,0.28936767578125,-0.50421142578125,-0.33111572265625,-0.7432861328125,4361,6300,850,26,11,122
117943885,0.30224609375,-0.50732421875,-0.325439453125,-0.738525390625,4525,5972,817,16,12,142
117953868,0.31622314453125,-0.51116943359375,-0.317626953125,-0.7333984375,4661,5622,796,7,15,158
117963849,0.33062744140625,-0.5155029296875,-0.30804443359375,-0.72808837890625,4832,5255,771,-2,17,167
117973829,0.344970703125,-0.51983642578125,-0.297119140625,-0.72283935546875,4995,4861,758,-10,22,170
117983815,0.35888671875,-0.5240478515625,-0.2850341796875,-0.7178955078125,5126,4436,765,-18,26,169
117993796,0.3721923828125,-0.52777099609375,-0.2720947265625,-0.71337890625,5209,3960,779,-25,32,165
118003784,0.38494873046875,-0.531005859375,-0.25836181640625,-0.7093505859375,5227,3457,772,-31,38,162
118013768,0.397216796875,-0.53387451171875,-0.24371337890625,-0.70562744140625,5202,2918,766,-37,44,160
118023750,0.4093017578125,-0.53631591796875,-0.22821044921875,-0.7020263671875,5123,2339,741,-41,50,160
118033733,0.42132568359375,-0.53839111328125,-0.21173095703125,-0.698486328125,5015,1750,712,-45,55,162
118043710,0.43341064453125,-0.5401611328125,-0.1943359375,-0.69476318359375,4846,1143,697,-47,59,164
118053693,0.44561767578125,-0.54144287109375,-0.17626953125,-0.69085693359375,4626,484,689,-48,63,165
118063675,0.45782470703125,-0.5423583984375,-0.15753173828125,-0.6866455078125,4403,-198,676,-48,66,167
118073659,0.47021484375,-0.5428466796875,-0.13824462890625,-0.6820068359375,4155,-881,693,-47,68,169
118083642,0.48272705078125,-0.54296875,-0.11846923828125,-0.6768798828125,3900,-1586,739,-46,69,172
118093626,0.49542236328125,-0.5426025390625,-0.09832763671875,-0.67120361328125,3658,-2284,820,-44,70,174
118103608,0.50836181640625,-0.54180908203125,-0.07794189453125,-0.664794921875,3454,-2954,928,-41,70,178
118113590,0.5213623046875,-0.54058837890625,-0.05743408203125,-0.6578369140625,3237,-3618,1067,-38,69,180
118123574,0.5343017578125,-0.538818359375,-0.0369873046875,-0.6502685546875,3024,-4258,1245,-35,68,179
118133559,0.54693603515625,-0.5364990234375,-0.016845703125,-0.6424560546875,2836,-4811,1421,-33,68,176
118143542,0.5589599609375,-0.53369140625,0.0025634765625,-0.6346435546875,2720,-5297,1584,-29,67,169
118153526,0.5703125,-0.5303955078125,0.02130126953125,-0.626953125,2611,-5701,1786,-26,67,163
118163506,0.58099365234375,-0.52655029296875,0.039306640625,-0.619384765625,2479,-6063,1977,-24,66,156
118173490,0.59124755859375,-0.52239990234375,0.05694580078125,-0.61181640625,2371,-6391,2157,-23,67,154
118183473,0.60125732421875,-0.5179443359375,0.07452392578125,-0.60394287109375,2226,-6629,2377,-22,66,155
118193455,0.61090087890625,-0.51312255859375,0.0919189453125,-0.59588623046875,2092,-6846,2584,-22,66,154
118203436,0.6201171875,-0.5081787109375,0.10906982421875,-0.58770751953125,2001,-7008,2767,-23,66,152
118213427,0.62847900390625,-0.50299072265625,0.125732421875,-0.57989501953125,1846,-7087,2951,-24,66,143
118223410,0.63568115234375,-0.4976806640625,0.14178466796875,-0.57281494140625,1665,-7130,3058,-24,68,131
118233393,0.641845703125,-0.49249267578125,0.1571044921875,-0.56646728515625,1497,-7100,3142,-25,68,121
118243367,0.64715576171875,-0.4873046875,0.17193603515625,-0.560546875,1240,-7105,3230,-27,68,114
118253351,0.65216064453125,-0.48211669921875,0.1868896484375,-0.55438232421875,987,-7198,3323,-29,67,116
118263335,0.6573486328125,-0.47686767578125,0.2021484375,-0.54736328125,721,-7237,3415,-31,66,124
118273318,0.66278076171875,-0.47149658203125,0.2178955078125,-0.5394287109375,405,-7252,3429,-33,64,131
118283302,0.66815185546875,-0.466064453125,0.23382568359375,-0.53070068359375,157,-7203,3441,-36,62,135
118293283,0.67315673828125,-0.4608154296875,0.24932861328125,-0.5218505859375,-82,-7061,3441,-37,61,131
118303268,0.67730712890625,-0.45587158203125,0.264404296875,-0.51336669921875,-342,-6902,3393,-40,59,122
118313247,0.680419921875,-0.451416015625,0.27862548828125,-0.50555419921875,-520,-6686,3354,-42,58,110
118323237,0.68255615234375,-0.447509765625,0.2921142578125,-0.49847412109375,-718,-6461,3297,-45,57,99
118333219,0.68402099609375,-0.4439697265625,0.305419921875,-0.49163818359375,-975,-6383,3221,-48,56,95
118343206,0.68548583984375,-0.4405517578125,0.319091796875,-0.48388671875,-1237,-6438,3127,-52,55,103
118353190,0.68756103515625,-0.4368896484375,0.33367919921875,-0.47442626953125,-1519,-6594,3052,-55,53,121
118363174,0.6903076171875,-0.4326171875,0.34930419921875,-0.462890625,-1812,-6879,2974,-59,52,141
118373157,0.693603515625,-0.427734375,0.36602783203125,-0.44940185546875,-2074,-7227,2867,-62,52,159
118383126,0.6968994140625,-0.42242431640625,0.3834228515625,-0.43463134765625,-2313,-7584,2758,-65,54,169
118393110,0.6995849609375,-0.41693115234375,0.40106201171875,-0.41937255859375,-2649,-8033,2643,-68,57,169
118403092,0.7012939453125,-0.41143798828125,0.418701171875,-0.4044189453125,-3084,-8600,2537,-69,60,162
118413074,0.7020263671875,-0.40606689453125,0.43609619140625,-0.38995361328125,-3658,-9338,2396,-69,63,155
118423057,0.70196533203125,-0.400634765625,0.4532470703125,-0.37579345703125,-4293,-10248,2250,-68,65,152
118433040,0.70159912109375,-0.39483642578125,0.4700927734375,-0.3616943359375,-4892,-11122,2113,-65,65,152
118443022,0.70111083984375,-0.3885498046875,0.486328125,-0.34771728515625,-5485,-11889,1979,-60,64,152
118453007,0.7003173828125,-0.38214111328125,0.501708984375,-0.33428955078125,-6008,-12464,1877,-55,62,145
118462995,0.69921875,-0.37591552734375,0.5157470703125,-0.32208251953125,-6483,-12881,1825,-50,60,131
118472980,0.69769287109375,-0.37030029296875,0.52813720703125,-0.31170654296875,-6880,-13128,1800,-44,57,112
118482957,0.6956787109375,-0.3656005859375,0.5386962890625,-0.303466796875,-7131,-13192,1827,-38,53,89
118492940,0.69342041015625,-0.36212158203125,0.5472412109375,-0.29754638671875,-7297,-13174,1865,-31,47,65
118502921,0.69110107421875,-0.3597412109375,0.55377197265625,-0.29376220703125,-7409,-13148,1904,-25,40,43
118512904,0.68890380859375,-0.358154296875,0.55859375,-0.29168701171875,-7436,-13090,1970,-18,34,28
118522886,0.6871337890625,-0.35711669921875,0.56195068359375,-0.2906494140625,-7415,-13043,2067,-12,26,19
118532869,0.68603515625,-0.3560791015625,0.56427001953125,-0.2900390625,-7385,-12954,2179,-7,18,16
118542852,0.68572998046875,-0.35491943359375,0.565673828125,-0.28948974609375,-7312,-12771,2298,-2,11,16
118552835,0.68609619140625,-0.353759765625,0.566162109375,-0.2890625,-7194,-12516,2391,1,3,14
118562815,0.68682861328125,-0.3529052734375,0.5657958984375,-0.2890625,-7019,-12192,2471,4,-3,6
118572795,0.68780517578125,-0.3529052734375,0.564208984375,-0.28985595703125,-6732,-11818,2583,7,-9,-6
118582772,0.68865966796875,-0.35400390625,0.5614013671875,-0.2919921875,-6360,-11450,2722,8,-14,-22
118592764,0.68939208984375,-0.356201171875,0.557373046875,-0.29534912109375,-5953,-11089,2888,9,-18,-37
118602748,0.68988037109375,-0.35931396484375,0.5523681640625,-0.2996826171875,-5557,-10734,3038,9,-22,-49
118612732,0.690185546875,-0.3631591796875,0.54669189453125,-0.30474853515625,-5198,-10425,3146,9,-24,-58
118622705,0.6903076171875,-0.367431640625,0.5406494140625,-0.3099365234375,-4875,-10178,3217,8,-26,-61
118632688,0.6904296875,-0.3719482421875,0.5345458984375,-0.31494140625,-4552,-10019,3270,6,-28,-60
118642670,0.69073486328125,-0.37628173828125,0.5284423828125,-0.3193359375,-4260,-9935,3299,5,-30,-53
118652651,0.6912841796875,-0.3804931640625,0.52264404296875,-0.32281494140625,-4031,-9921,3324,2,-32,-46
118662636,0.69195556640625,-0.384521484375,0.51702880859375,-0.3255615234375,-3910,-9970,3300,0,-34,-41
118672617,0.69256591796875,-0.38873291015625,0.5115966796875,-0.32781982421875,-3852,-10069,3230,-3,-35,-40
118682599,0.69305419921875,-0.393310546875,0.50616455078125,-0.329833984375,-3822,-10227,3137,-5,-37,-43
118692581,0.6932373046875,-0.39837646484375,0.50042724609375,-0.33203125,-3775,-10424,3088,-7,-38,-48
118702564,0.6929931640625,-0.4041748046875,0.49432373046875,-0.33465576171875,-3746,-10656,3044,-10,-40,-56
118712551,0.6922607421875,-0.41082763671875,0.4876708984375,-0.337890625,-3737,-10908,2999,-12,-41,-68
118722533,0.69085693359375,-0.41839599609375,0.4803466796875,-0.3419189453125,-3739,-11156,2935,-13,-43,-80
118732516,0.68890380859375,-0.4267578125,0.4722900390625,-0.34674072265625,-3718,-11410,2851,-14,-44,-93
118742498,0.68634033203125,-0.43572998046875,0.463623046875,-0.35223388671875,-3624,-11665,2752,-14,-46,-103
118752482,0.68328857421875,-0.4451904296875,0.454345703125,-0.3583984375,-3453,-11921,2672,-14,-46,-110
118762466,0.679931640625,-0.454833984375,0.444580078125,-0.3648681640625,-3293,-12165,2604,-13,-47,-115
118772452,0.67633056640625,-0.46441650390625,0.4345703125,-0.37158203125,-3190,-12421,2510,-12,-47,-120
118782431,0.67236328125,-0.47393798828125,0.4241943359375,-0.3785400390625,-3161,-12683,2407,-9,-47,-125
118792424,0.66815185546875,-0.4835205078125,0.413330078125,-0.385986328125,-3128,-12951,2296,-7,-47,-133
118802405,0.6634521484375,-0.4930419921875,0.40185546875,-0.39404296875,-3077,-13215,2162,-4,-47,-142
118812391,0.658203125,-0.50262451171875,0.3895263671875,-0.4029541015625,-2962,-13392,2031,0,-46,-153
118822365,0.65252685546875,-0.51214599609375,0.37640380859375,-0.41259765625,-2830,-13505,1913,4,-46,-163
118832350,0.64630126953125,-0.52154541015625,0.36236572265625,-0.42303466796875,-2695,-13572,1805,9,-46,-174
118842331,0.6396484375,-0.5306396484375,0.34759521484375,-0.43414306640625,-2558,-13588,1706,13,-45,-183
118852316,0.63262939453125,-0.53924560546875,0.3321533203125,-0.44561767578125,-2394,-13506,1616,18,-44,-188
118862298,0.625244140625,-0.54742431640625,0.316162109375,-0.45758056640625,-2170,-13315,1540,22,-42,-195
118872281,0.617431640625,-0.55511474609375,0.29949951171875,-0.47003173828125,-1940,-13017,1486,26,-40,-202
118882264,0.60906982421875,-0.56219482421875,0.2822265625,-0.48297119140625,-1672,-12663,1426,29,-37,-208
118892244,0.60028076171875,-0.5687255859375,0.2645263671875,-0.4962158203125,-1363,-12253,1362,33,-34,-211
118902235,0.59124755859375,-0.57452392578125,0.24676513671875,-0.5093994140625,-1115,-11831,1310,35,-31,-210
118912217,0.58203125,-0.5794677734375,0.22918701171875,-0.52239990234375,-929,-11350,1259,37,-28,-208
118922206,0.57275390625,-0.583740234375,0.2117919921875,-0.53509521484375,-773,-10802,1204,38,-25,-206
118932190,0.56329345703125,-0.58734130859375,0.19464111328125,-0.547607421875,-666,-10192,1150,39,-22,-204
118942174,0.55352783203125,-0.5904541015625,0.177490234375,-0.5599365234375,-604,-9566,1101,39,-20,-204
118952156,0.54339599609375,-0.593017578125,0.16046142578125,-0.5721435546875,-580,-8944,1088,39,-18,-205
118962125,0.53289794921875,-0.59515380859375,0.1434326171875,-0.584228515625,-582,-8331,1055,38,-16,-205
118972108,0.52197265625,-0.59698486328125,0.12640380859375,-0.59600830078125,-581,-7732,1032,36,-15,-206
118982092,0.51055908203125,-0.59844970703125,0.10943603515625,-0.60760498046875,-571,-7110,1014,35,-15,-206
118992074,0.49859619140625,-0.5997314453125,0.09234619140625,-0.6190185546875,-573,-6495,1004,33,-15,-208
119002057,0.48602294921875,-0.600830078125,0.07513427734375,-0.63018798828125,-566,-5897,985,30,-15,-210
119012039,0.47271728515625,-0.601806640625,0.0577392578125,-0.64117431640625,-545,-5337,965,28,-16,-212
119022022,0.458740234375,-0.6026611328125,0.04022216796875,-0.65179443359375,-541,-4850,914,25,-17,-214
119032008,0.44439697265625,-0.60345458984375,0.02294921875,-0.6617431640625,-524,-4395,858,23,-19,-211
119041996,0.42974853515625,-0.604248046875,0.005859375,-0.6710205078125,-499,-3951,812,19,-22,-208
119051980,0.414794921875,-0.60498046875,-0.010986328125,-0.67962646484375,-450,-3533,761,17,-24,-206
119061957,0.39935302734375,-0.605712890625,-0.02777099609375,-0.68768310546875,-384,-3112,739,14,-26,-205
119071940,0.3834228515625,-0.6064453125,-0.04449462890625,-0.6951904296875,-277,-2710,705,11,-29,-204
119081924,0.36700439453125,-0.607177734375,-0.06121826171875,-0.70208740234375,-159,-2329,666,8,-31,-203
119091906,0.35015869140625,-0.6077880859375,-0.07781982421875,-0.70849609375,3,-1958,657,6,-33,-202
119101888,0.33306884765625,-0.6082763671875,-0.09429931640625,-0.71429443359375,204,-1548,647,4,-35,-200
119111878,0.315673828125,-0.60858154296875,-0.110595703125,-0.7196044921875,462,-1126,638,3,-35,-197
119121854,0.298095703125,-0.608642578125,-0.12664794921875,-0.724365234375,755,-694,653,1,-36,-193
119131834,0.28082275390625,-0.6085205078125,-0.14215087890625,-0.728515625,1099,-229,652,0,-36,-185
119141818,0.26397705078125,-0.60821533203125,-0.156982421875,-0.73199462890625,1470,290,645,-1,-36,-174
119151797,0.2479248046875,-0.60791015625,-0.17083740234375,-0.73480224609375,1845,812,632,-2,-35,-161
119161784,0.23291015625,-0.60760498046875,-0.18359375,-0.73681640625,2219,1341,591,-3,-35,-145
119171771,0.21905517578125,-0.607421875,-0.1951904296875,-0.73828125,2546,1874,589,-4,-34,-129
119181753,0.20648193359375,-0.60723876953125,-0.20556640625,-0.73919677734375,2876,2414,585,-4,-33,-113
119191737,0.19512939453125,-0.607177734375,-0.21484375,-0.73974609375,3217,2968,627,-4,-32,-98
119201713,0.18475341796875,-0.60699462890625,-0.22314453125,-0.74005126953125,3576,3533,715,-5,-29,-86
119211696,0.175048828125,-0.60662841796875,-0.23077392578125,-0.74041748046875,3968,4065,839,-5,-26,-79
119221678,0.16558837890625,-0.605712890625,-0.23828125,-0.740966796875,4368,4509,985,-3,-21,-79
119231665,0.15655517578125,-0.60394287109375,-0.24603271484375,-0.7418212890625,4675,4829,1167,1,-15,-80
119241644,0.1488037109375,-0.60162353515625,-0.2535400390625,-0.7427978515625,4856,4974,1385,8,-9,-71
119251628,0.14361572265625,-0.59893798828125,-0.26025390625,-0.74365234375,4967,5094,1595,17,-3,-50
119261612,0.141845703125,-0.5965576171875,-0.26556396484375,-0.7440185546875,5044,5302,1737,26,2,-18
119271597,0.143798828125,-0.59466552734375,-0.26910400390625,-0.743896484375,5108,5558,1778,33,7,18
119281579,0.1495361328125,-0.593505859375,-0.27020263671875,-0.7432861328125,5127,5771,1744,36,13,56
119291560,0.15863037109375,-0.5931396484375,-0.26885986328125,-0.7421875,5057,5891,1686,36,16,91
119301542,0.17059326171875,-0.59344482421875,-0.26519775390625,-0.7406005859375,4906,5889,1617,36,19,119
119311525,0.1846923828125,-0.59429931640625,-0.25958251953125,-0.738525390625,4738,5727,1505,34,20,140
119321507,0.19964599609375,-0.59539794921875,-0.25299072265625,-0.73602294921875,4548,5482,1363,33,22,146
119331492,0.21466064453125,-0.59625244140625,-0.24609375,-0.73345947265625,4338,5178,1225,32,24,145
119341476,0.229248046875,-0.5968017578125,-0.2391357421875,-0.7308349609375,4142,4848,1101,31,25,140
119351459,0.24334716796875,-0.5970458984375,-0.2322998046875,-0.728271484375,3963,4523,990,29,26,136
119361439,0.25726318359375,-0.59716796875,-0.22515869140625,-0.7257080078125,3800,4200,889,27,27,136
119371428,0.27142333984375,-0.59716796875,-0.2174072265625,-0.72283935546875,3657,3889,800,25,28,142
119381411,0.286376953125,-0.597412109375,-0.20855712890625,-0.719482421875,3547,3567,716,23,29,155
119391393,0.3026123046875,-0.597900390625,-0.19805908203125,-0.71539306640625,3417,3216,658,21,30,172
119401372,0.3201904296875,-0.59857177734375,-0.18585205078125,-0.71038818359375,3299,2853,643,18,31,190
119411355,0.33905029296875,-0.599365234375,-0.1719970703125,-0.7044677734375,3178,2473,645,16,31,206
119421337,0.3585205078125,-0.60003662109375,-0.15692138671875,-0.69775390625,3072,2135,648,14,32,215
119431320,0.37811279296875,-0.60040283203125,-0.14105224609375,-0.69049072265625,2938,1806,671,11,34,219
119441301,0.3974609375,-0.60028076171875,-0.12451171875,-0.68280029296875,2791,1470,681,8,36,220
119451286,0.4163818359375,-0.59979248046875,-0.107421875,-0.67486572265625,2624,1108,714,5,38,219
119461269,0.43475341796875,-0.598876953125,-0.08990478515625,-0.66656494140625,2481,732,750,2,40,218
119471256,0.45269775390625,-0.5975341796875,-0.07196044921875,-0.657958984375,2361,314,797,-2,41,218
119481237,0.47027587890625,-0.595947265625,-0.05328369140625,-0.64874267578125,2279,-193,810,-5,43,220
119491222,0.4876708984375,-0.59405517578125,-0.03369140625,-0.638916015625,2192,-770,865,-8,45,224
119501206,0.5048828125,-0.59161376953125,-0.0133056640625,-0.62841796875,2084,-1404,914,-11,47,226
119511192,0.5216064453125,-0.5887451171875,0.007568359375,-0.61749267578125,1988,-2033,964,-13,49,226
119521176,0.53765869140625,-0.5853271484375,0.02886962890625,-0.60626220703125,1845,-2738,1040,-15,52,224
119531158,0.55328369140625,-0.58135986328125,0.05059814453125,-0.59442138671875,1665,-3514,1067,-16,54,226
119541129,0.5687255859375,-0.57696533203125,0.0731201171875,-0.5816650390625,1493,-4304,1072,-18,54,232
119551113,0.5841064453125,-0.57208251953125,0.09649658203125,-0.56768798828125,1290,-5097,1102,-20,55,241
119561095,0.59930419921875,-0.566650390625,0.12066650390625,-0.55242919921875,1042,-5964,1147,-22,56,249
119571077,0.614013671875,-0.560546875,0.14544677734375,-0.53631591796875,752,-6823,1201,-24,57,252
119581059,0.62762451171875,-0.55401611328125,0.16998291015625,-0.5198974609375,452,-7595,1231,-25,58,245
119591043,0.63958740234375,-0.54718017578125,0.19354248046875,-0.50408935546875,125,-8290,1219,-25,59,228
119601025,0.64971923828125,-0.54022216796875,0.21563720703125,-0.4893798828125,-249,-8944,1229,-24,59,208
119611008,0.65826416015625,-0.5333251953125,0.23638916015625,-0.47576904296875,-603,-9543,1240,-23,59,192
119620996,0.66571044921875,-0.5264892578125,0.25592041015625,-0.4627685546875,-875,-10036,1299,-23,58,181
119630981,0.67218017578125,-0.51959228515625,0.2745361328125,-0.45037841796875,-1072,-10379,1381,-23,57,173
119640956,0.67767333984375,-0.51275634765625,0.29205322265625,-0.43878173828125,-1266,-10530,1457,-23,56,160
119650942,0.6820068359375,-0.50628662109375,0.3082275390625,-0.42840576171875,-1451,-10589,1526,-22,57,142
119660922,0.68505859375,-0.50018310546875,0.32293701171875,-0.4197998046875,-1612,-10574,1633,-21,57,123
119670906,0.68707275390625,-0.49444580078125,0.33624267578125,-0.4127197265625,-1774,-10512,1747,-19,58,106
119680886,0.68853759765625,-0.48883056640625,0.3486328125,-0.40667724609375,-1964,-10415,1827,-18,58,97
119690869,0.68994140625,-0.48297119140625,0.3609619140625,-0.400634765625,-2246,-10409,1871,-16,58,100
119700853,0.69189453125,-0.47637939453125,0.37384033203125,-0.39324951171875,-2514,-10412,1900,-16,57,116
119710834,0.69464111328125,-0.46875,0.38763427734375,-0.384033203125,-2764,-10387,1939,-16,55,137
119720820,0.6981201171875,-0.46014404296875,0.4022216796875,-0.37298583984375,-3030,-10341,1943,-16,54,154
119730801,0.7015380859375,-0.45111083984375,0.4168701171875,-0.36126708984375,-3213,-10152,1975,-17,54,158
119740784,0.70428466796875,-0.44219970703125,0.43096923828125,-0.35028076171875,-3538,-9919,1992,-18,56,145
119750772,0.70587158203125,-0.43408203125,0.44415283203125,-0.34063720703125,-3924,-9755,1942,-18,57,125
119760756,0.706298828125,-0.427001953125,0.45611572265625,-0.33282470703125,-4182,-9574,1898,-18,57,104
119770736,0.705810546875,-0.42083740234375,0.46697998046875,-0.32659912109375,-4486,-9502,1870,-18,58,87
119780714,0.704833984375,-0.4150390625,0.47735595703125,-0.321044921875,-4858,-9536,1813,-18,57,81
119790698,0.703857421875,-0.40911865234375,0.48773193359375,-0.3150634765625,-5199,-9617,1796,-19,56,87
119800680,0.703369140625,-0.40240478515625,0.49847412109375,-0.307861328125,-5557,-9713,1753,-19,54,102
119810663,0.70343017578125,-0.39483642578125,0.509765625,-0.29901123046875,-5894,-9821,1696,-20,52,118
119820649,0.703857421875,-0.38653564453125,0.521240234375,-0.2889404296875,-6164,-9871,1658,-20,49,129
119830636,0.70428466796875,-0.37811279296875,0.5323486328125,-0.2784423828125,-6422,-9847,1629,-21,47,129
119840616,0.7044677734375,-0.3701171875,0.54278564453125,-0.26849365234375,-6642,-9749,1665,-20,45,119
119850596,0.70416259765625,-0.363037109375,0.55206298828125,-0.2598876953125,-6812,-9648,1719,-20,44,102
119860580,0.70330810546875,-0.35723876953125,0.56011962890625,-0.25286865234375,-6963,-9592,1771,-20,42,82
119870562,0.70196533203125,-0.35272216796875,0.56707763671875,-0.24737548828125,-7079,-9576,1771,-19,39,66
119880544,0.70037841796875,-0.3492431640625,0.572998046875,-0.2430419921875,-7159,-9561,1753,-18,36,53
119890527,0.69873046875,-0.34649658203125,0.5782470703125,-0.23944091796875,-7231,-9523,1726,-18,33,44
119900511,0.6971435546875,-0.34423828125,0.582763671875,-0.23626708984375,-7286,-9462,1672,-18,29,38
119910493,0.69561767578125,-0.342529296875,0.58673095703125,-0.23345947265625,-7279,-9354,1649,-18,26,32
119920477,0.69415283203125,-0.34136962890625,0.59002685546875,-0.23114013671875,-7237,-9186,1615,-17,22,25
119930458,0.69281005859375,-0.3408203125,0.5926513671875,-0.22930908203125,-7142,-9002,1589,-17,18,17
119940439,0.69146728515625,-0.34088134765625,0.5946044921875,-0.22808837890625,-6998,-8781,1564,-16,15,10
119950430,0.69024658203125,-0.3414306640625,0.5960693359375,-0.2271728515625,-6839,-8533,1525,-17,12,4
119960411,0.68914794921875,-0.3424072265625,0.5970458984375,-0.22650146484375,-6661,-8314,1470,-16,8,1
119970393,0.6881103515625,-0.3436279296875,0.5977783203125,-0.2259521484375,-6470,-8067,1390,-16,6,-2
119980369,0.687255859375,-0.34503173828125,0.59820556640625,-0.225341796875,-6337,-7873,1303,-16,3,-3
119990352,0.68646240234375,-0.34649658203125,0.5985107421875,-0.224609375,-6243,-7696,1246,-17,1,-2
120000341,0.68597412109375,-0.3477783203125,0.5987548828125,-0.2235107421875,-6144,-7512,1245,-17,-1,1
120010315,0.68572998046875,-0.348876953125,0.59893798828125,-0.221923828125,-6019,-7326,1317,-19,-3,5
120020301,0.68585205078125,-0.349853515625,0.5989990234375,-0.2198486328125,-5887,-7181,1437,-20,-6,9
120030282,0.686279296875,-0.3507080078125,0.5989990234375,-0.2174072265625,-5775,-7065,1558,-21,-8,12
120040266,0.686767578125,-0.3516845703125,0.5987548828125,-0.2147216796875,-5675,-6998,1682,-22,-10,12
120050243,0.6873779296875,-0.3529052734375,0.5982666015625,-0.21209716796875,-5603,-6955,1790,-23,-12,9
120060235,0.68792724609375,-0.3546142578125,0.597412109375,-0.2098388671875,-5542,-6966,1844,-23,-13,4
120070218,0.6883544921875,-0.35675048828125,0.5963134765625,-0.2078857421875,-5500,-7009,1843,-23,-14,-1
120080194,0.6885986328125,-0.3592529296875,0.59503173828125,-0.20648193359375,-5486,-7104,1791,-22,-14,-6
120090187,0.688720703125,-0.3619384765625,0.5936279296875,-0.2054443359375,-5492,-7218,1682,-21,-13,-9
120102995,0.688720703125,-0.36468505859375,0.59222412109375,-0.20477294921875,-5482,-7327,1520,-19,-12,-11
120110146,0.68865966796875,-0.3671875,0.5908203125,-0.204345703125,-5472,-7454,1336,-16,-12,-10
120120123,0.68865966796875,-0.36944580078125,0.58953857421875,-0.2041015625,-5430,-7551,1161,-12,-10,-9
120130107,0.68865966796875,-0.37127685546875,0.58837890625,-0.2041015625,-5377,-7602,979,-9,-10,-8
120140089,0.68878173828125,-0.37274169921875,0.58721923828125,-0.20428466796875,-5331,-7611,802,-5,-8,-7
120150067,0.68896484375,-0.37384033203125,0.58624267578125,-0.20465087890625,-5297,-7585,630,-1,-7,-6
120160055,0.689208984375,-0.3743896484375,0.58538818359375,-0.2052001953125,-5274,-7516,463,3,-7,-4
120170036,0.68963623046875,-0.37445068359375,0.58465576171875,-0.20562744140625,-5259,-7419,327,6,-5,-1
120180023,0.690185546875,-0.3739013671875,0.58428955078125,-0.2059326171875,-5264,-7293,189,8,-5,4
120190003,0.69091796875,-0.37286376953125,0.5841064453125,-0.2059326171875,-5246,-7151,82,10,-4,8
120199992,0.69171142578125,-0.37139892578125,0.5841064453125,-0.20587158203125,-5226,-6997,-6,12,-3,11
120209976,0.692626953125,-0.36962890625,0.584228515625,-0.20574951171875,-5198,-6846,-95,14,-3,12
120219952,0.6934814453125,-0.3677978515625,0.58428955078125,-0.205810546875,-5163,-6702,-160,15,-3,11
120229934,0.69427490234375,-0.365966796875,0.5843505859375,-0.2061767578125,-5144,-6547,-221,17,-2,8
120239917,0.695068359375,-0.36419677734375,0.5843505859375,-0.20684814453125,-5158,-6403,-247,17,-1,5
120249901,0.69573974609375,-0.362548828125,0.584228515625,-0.207763671875,-5186,-6276,-259,18,-1,3
120259883,0.6964111328125,-0.3609619140625,0.58404541015625,-0.20880126953125,-5195,-6139,-263,18,-1,1
120269870,0.697021484375,-0.359375,0.5838623046875,-0.2099609375,-5172,-6007,-252,18,0,1
120279850,0.69769287109375,-0.35772705078125,0.58367919921875,-0.21112060546875,-5150,-5884,-219,18,0,1
120289834,0.69830322265625,-0.3560791015625,0.58355712890625,-0.212158203125,-5107,-5790,-189,18,0,2
120299816,0.69891357421875,-0.354248046875,0.5836181640625,-0.2130126953125,-5068,-5690,-150,17,1,5
120309799,0.6995849609375,-0.35223388671875,0.58380126953125,-0.2135009765625,-5082,-5597,-108,16,1,8
120319784,0.7003173828125,-0.35003662109375,0.58416748046875,-0.2137451171875,-5094,-5511,-70,16,2,11
120329772,0.7010498046875,-0.34771728515625,0.58477783203125,-0.213623046875,-5124,-5443,-22,14,2,14
120339754,0.70172119140625,-0.34527587890625,0.58551025390625,-0.21319580078125,-5177,-5389,36,13,3,16
120349738,0.702392578125,-0.3427734375,0.58648681640625,-0.21246337890625,-5228,-5318,86,11,3,18
120359715,0.7030029296875,-0.34027099609375,0.5875244140625,-0.2115478515625,-5258,-5257,161,9,4,19
120369697,0.70355224609375,-0.337890625,0.588623046875,-0.21038818359375,-5288,-5194,244,7,4,20
120379679,0.7039794921875,-0.33563232421875,0.58984375,-0.20916748046875,-5327,-5135,342,5,5,19
120389661,0.70428466796875,-0.333740234375,0.591064453125,-0.2078857421875,-5363,-5084,443,2,5,18
120399647,0.7044677734375,-0.33209228515625,0.59222412109375,-0.20654296875,-5421,-5062,553,0,5,16
120409628,0.70452880859375,-0.330810546875,0.5933837890625,-0.20526123046875,-5499,-5060,658,-3,5,13
120419609,0.70440673828125,-0.32989501953125,0.59442138671875,-0.20404052734375,-5589,-5074,749,-5,5,11
120429594,0.7041015625,-0.3294677734375,0.5953369140625,-0.2030029296875,-5722,-5140,835,-7,5,7
120439576,0.70379638671875,-0.32940673828125,0.59613037109375,-0.2020263671875,-5860,-5211,903,-9,4,4
120449556,0.703369140625,-0.32965087890625,0.5966796875,-0.2012939453125,-5974,-5303,979,-10,3,1
120459536,0.70294189453125,-0.33026123046875,0.5970458984375,-0.20068359375,-6064,-5418,1018,-10,2,-2
120469519,0.70263671875,-0.3310546875,0.59722900390625,-0.20013427734375,-6143,-5525,1038,-10,1,-3
120479503,0.70233154296875,-0.33184814453125,0.59722900390625,-0.1995849609375,-6182,-5627,1031,-10,-1,-3
120489483,0.7022705078125,-0.3326416015625,0.59716796875,-0.19891357421875,-6222,-5723,1016,-9,-3,-2
120499473,0.70233154296875,-0.33331298828125,0.59698486328125,-0.1981201171875,-6253,-5801,974,-8,-5,0
120509450,0.70257568359375,-0.33380126953125,0.5966796875,-0.19720458984375,-6262,-5864,922,-7,-6,2
120519431,0.70294189453125,-0.33416748046875,0.5963134765625,-0.19635009765625,-6240,-5907,860,-6,-7,2
120529422,0.703369140625,-0.33447265625,0.595947265625,-0.1954345703125,-6173,-5916,789,-4,-8,3
120539404,0.70391845703125,-0.33465576171875,0.595458984375,-0.19464111328125,-6086,-5892,723,-3,-8,3
120549382,0.70440673828125,-0.3348388671875,0.594970703125,-0.19390869140625,-5981,-5877,643,-3,-8,3
120559365,0.7049560546875,-0.3349609375,0.59454345703125,-0.19317626953125,-5880,-5851,567,-2,-8,3
120569350,0.70538330078125,-0.3349609375,0.59423828125,-0.19244384765625,-5823,-5800,500,-2,-7,4
120579332,0.705810546875,-0.33489990234375,0.59405517578125,-0.191650390625,-5765,-5749,440,-2,-6,5
120589313,0.7061767578125,-0.33477783203125,0.593994140625,-0.19073486328125,-5734,-5703,384,-2,-5,6
120599297,0.70648193359375,-0.33453369140625,0.59405517578125,-0.189697265625,-5721,-5645,351,-3,-5,8
120609280,0.706787109375,-0.334228515625,0.59423828125,-0.18853759765625,-5703,-5596,314,-3,-4,9
120619264,0.70703125,-0.33392333984375,0.59454345703125,-0.18731689453125,-5700,-5536,270,-4,-4,9
120629244,0.70721435546875,-0.33367919921875,0.59490966796875,-0.18597412109375,-5706,-5483,235,-5,-4,10
120639234,0.7073974609375,-0.33343505859375,0.59521484375,-0.1845703125,-5719,-5421,209,-5,-4,9
