subject,Ian Lake
arm,right
label,1
hz,100.17174766884798
time,4.053039

timestamp_us,q0,q1,q2,q3,ax,ay,az,gx,gy,gz
479798346,0.52154541015625,-0.17938232421875,-0.707763671875,0.44146728515625,4712,-6634,-562,-3,1,2
479808330,0.52142333984375,-0.1798095703125,-0.707763671875,0.44140625,4713,-6663,-573,-3,1,2
479818312,0.52130126953125,-0.18017578125,-0.707763671875,0.44140625,4692,-6660,-565,-2,0,2
479828295,0.521240234375,-0.18048095703125,-0.707763671875,0.44134521484375,4706,-6658,-577,-2,0,1
479838276,0.5211181640625,-0.18072509765625,-0.707763671875,0.44140625,4698,-6672,-586,-1,0,1
479848268,0.52105712890625,-0.18096923828125,-0.707763671875,0.44140625,4690,-6668,-576,-1,0,1
479858249,0.52099609375,-0.18115234375,-0.70770263671875,0.44146728515625,4674,-6656,-573,-1,0,1
479868230,0.52093505859375,-0.1812744140625,-0.7076416015625,0.4415283203125,4656,-6639,-573,-1,0,0
479878228,0.52099609375,-0.18133544921875,-0.70758056640625,0.44158935546875,4660,-6634,-553,0,0,-1
479888208,0.5211181640625,-0.1812744140625,-0.70758056640625,0.4415283203125,4657,-6600,-545,0,0,-2
479898189,0.52130126953125,-0.18115234375,-0.70751953125,0.44140625,4641,-6582,-527,0,1,-3
479908159,0.5216064453125,-0.18096923828125,-0.70745849609375,0.441162109375,4643,-6569,-529,0,1,-4
479918142,0.52197265625,-0.18072509765625,-0.70745849609375,0.44091796875,4625,-6546,-515,0,1,-5
479928125,0.5223388671875,-0.180419921875,-0.7073974609375,0.44061279296875,4625,-6535,-508,-1,1,-5
479938105,0.522705078125,-0.18017578125,-0.7073974609375,0.4403076171875,4622,-6530,-516,-1,1,-5
479948089,0.5230712890625,-0.17999267578125,-0.7073974609375,0.44000244140625,4620,-6515,-507,-1,1,-4
479958071,0.52337646484375,-0.17987060546875,-0.7073974609375,0.43963623046875,4620,-6509,-512,-1,1,-4
479968055,0.52362060546875,-0.1796875,-0.70745849609375,0.4393310546875,4611,-6496,-518,-1,1,-4
479978037,0.52386474609375,-0.17962646484375,-0.70751953125,0.43902587890625,4614,-6512,-507,-2,0,-3
479988026,0.5240478515625,-0.17950439453125,-0.70758056640625,0.438720703125,4639,-6544,-520,-2,1,-4
479998008,0.52423095703125,-0.179443359375,-0.70770263671875,0.43829345703125,4688,-6603,-547,-2,1,-4
480007986,0.5244140625,-0.17938232421875,-0.70782470703125,0.43792724609375,4743,-6721,-569,-3,0,-4
480017968,0.5245361328125,-0.1793212890625,-0.70794677734375,0.4376220703125,4813,-6843,-594,-2,0,-3
480027951,0.524658203125,-0.179443359375,-0.70794677734375,0.4375,4917,-7013,-593,-2,1,-1
480037937,0.5247802734375,-0.1796875,-0.707763671875,0.4375,5046,-7218,-576,-1,2,1
480047923,0.52484130859375,-0.18017578125,-0.70745849609375,0.437744140625,5167,-7445,-550,0,2,4
480057899,0.52484130859375,-0.18096923828125,-0.70684814453125,0.4383544921875,5240,-7627,-506,1,4,8
480067882,0.524658203125,-0.1822509765625,-0.7059326171875,0.43951416015625,5244,-7800,-442,3,5,14
480077864,0.52423095703125,-0.1842041015625,-0.70458984375,0.44134521484375,5249,-7996,-400,5,7,22
480087846,0.5235595703125,-0.18682861328125,-0.702880859375,0.44378662109375,5241,-8238,-353,7,8,30
480097830,0.52252197265625,-0.190185546875,-0.70074462890625,0.447021484375,5170,-8508,-307,9,10,38
480107819,0.5211181640625,-0.19415283203125,-0.6981201171875,0.45098876953125,5060,-8832,-250,12,11,46
480117802,0.51934814453125,-0.19873046875,-0.695068359375,0.45562744140625,4913,-9208,-181,14,11,52
480127786,0.5172119140625,-0.20379638671875,-0.69171142578125,0.4609375,4768,-9585,-113,16,11,58
480137768,0.5147705078125,-0.20916748046875,-0.68804931640625,0.466796875,4626,-9909,-37,18,11,64
480147746,0.51177978515625,-0.215087890625,-0.68408203125,0.47314453125,4475,-10156,61,19,10,73
480157733,0.508056640625,-0.22161865234375,-0.6798095703125,0.48028564453125,4299,-10294,156,20,8,84
480167714,0.5032958984375,-0.22900390625,-0.67523193359375,0.4881591796875,4109,-10403,255,20,5,97
480177696,0.49737548828125,-0.2373046875,-0.67034912109375,0.49688720703125,3911,-10504,309,19,2,112
480187680,0.49017333984375,-0.24664306640625,-0.66522216796875,0.50628662109375,3727,-10609,317,18,0,126
480197662,0.48187255859375,-0.2568359375,-0.65985107421875,0.51617431640625,3583,-10718,314,16,-3,138
480207646,0.4727783203125,-0.267578125,-0.65423583984375,0.526123046875,3486,-10839,300,14,-4,145
480217628,0.463134765625,-0.278564453125,-0.6485595703125,0.53594970703125,3456,-10985,280,12,-5,149
480227615,0.45318603515625,-0.28955078125,-0.64288330078125,0.54541015625,3436,-11161,236,9,-5,151
480237595,0.44305419921875,-0.300537109375,-0.63720703125,0.55438232421875,3415,-11336,168,7,-5,150
480247579,0.432861328125,-0.3115234375,-0.63153076171875,0.56280517578125,3324,-11482,106,4,-4,150
480257561,0.42266845703125,-0.32244873046875,-0.625732421875,0.57080078125,3152,-11548,68,3,-2,150
480267552,0.4122314453125,-0.33367919921875,-0.6197509765625,0.5784912109375,2949,-11613,59,1,0,152
480277530,0.401611328125,-0.34515380859375,-0.61334228515625,0.5860595703125,2701,-11667,70,0,1,156
480287512,0.390625,-0.35693359375,-0.60650634765625,0.59344482421875,2424,-11724,77,0,3,160
480297494,0.37933349609375,-0.3690185546875,-0.59918212890625,0.60076904296875,2123,-11752,63,0,5,165
480307472,0.36767578125,-0.38153076171875,-0.59124755859375,0.6080322265625,1814,-11746,37,1,7,171
480317465,0.35565185546875,-0.39434814453125,-0.58270263671875,0.61517333984375,1474,-11703,-17,2,9,176
480327449,0.3433837890625,-0.4073486328125,-0.57354736328125,0.62225341796875,1093,-11604,-62,3,11,180
480337432,0.330810546875,-0.42059326171875,-0.56378173828125,0.629150390625,668,-11437,-93,4,12,184
480347409,0.3179931640625,-0.433837890625,-0.55340576171875,0.63592529296875,223,-11226,-107,6,14,186
480357391,0.3050537109375,-0.447021484375,-0.54248046875,0.64251708984375,-216,-10969,-90,7,14,188
480367374,0.291748046875,-0.46002197265625,-0.53106689453125,0.6490478515625,-672,-10671,-59,9,14,190
480380030,0.2781982421875,-0.47283935546875,-0.51910400390625,0.6553955078125,-1122,-10376,-14,10,13,192
480387340,0.26446533203125,-0.4853515625,-0.50677490234375,0.66156005859375,-1576,-10116,-13,10,12,192
480397327,0.2506103515625,-0.49755859375,-0.49407958984375,0.66748046875,-2024,-9823,-6,12,12,191
480407305,0.23675537109375,-0.50927734375,-0.48126220703125,0.67303466796875,-2422,-9534,3,12,11,190
480417291,0.22283935546875,-0.5206298828125,-0.46826171875,0.67828369140625,-2793,-9226,-6,13,10,189
480427275,0.208740234375,-0.5316162109375,-0.45501708984375,0.6832275390625,-3107,-8896,-26,13,9,190
480437265,0.19415283203125,-0.5423583984375,-0.44134521484375,0.68804931640625,-3384,-8541,-50,13,8,194
480447249,0.17889404296875,-0.55316162109375,-0.4271240234375,0.6925048828125,-3630,-8136,-91,12,7,200
480457228,0.1627197265625,-0.56390380859375,-0.4122314453125,0.69683837890625,-3869,-7686,-99,11,5,208
480467219,0.14556884765625,-0.57464599609375,-0.3966064453125,0.700927734375,-4098,-7177,-84,10,4,216
480477208,0.12744140625,-0.585205078125,-0.38031005859375,0.7047119140625,-4290,-6657,-44,7,2,223
480487181,0.10858154296875,-0.5955810546875,-0.3636474609375,0.7080078125,-4460,-6166,-47,5,1,227
480497157,0.0892333984375,-0.60546875,-0.3468017578125,0.71075439453125,-4585,-5714,-44,2,0,228
480507137,0.069580078125,-0.6148681640625,-0.3299560546875,0.712890625,-4702,-5282,-35,-1,-1,228
480517113,0.04986572265625,-0.62371826171875,-0.31329345703125,0.71441650390625,-4792,-4850,-34,-3,-1,225
480527097,0.0302734375,-0.63189697265625,-0.296875,0.71533203125,-4860,-4446,-27,-6,-1,221
480537078,0.010986328125,-0.639404296875,-0.28094482421875,0.71563720703125,-4902,-4090,-38,-9,-2,214
480547061,-0.0078125,-0.646240234375,-0.2657470703125,0.71533203125,-4924,-3783,-61,-11,-1,206
480557044,-0.02587890625,-0.65240478515625,-0.25128173828125,0.71453857421875,-4938,-3514,-104,-13,-1,197
480567030,-0.04315185546875,-0.65802001953125,-0.2376708984375,0.7132568359375,-4950,-3282,-152,-15,-1,187
480577020,-0.05963134765625,-0.66302490234375,-0.2249755859375,0.7115478515625,-4977,-3061,-197,-16,0,176
480586995,-0.0751953125,-0.66748046875,-0.213134765625,0.70953369140625,-5020,-2865,-250,-18,0,166
480596979,-0.08990478515625,-0.67144775390625,-0.2022705078125,0.70721435546875,-5083,-2688,-318,-19,1,155
480606960,-0.103759765625,-0.6749267578125,-0.19232177734375,0.70477294921875,-5122,-2533,-375,-20,1,146
480616942,-0.1170654296875,-0.6781005859375,-0.18304443359375,0.7021484375,-5121,-2373,-420,-22,1,138
480626928,-0.1297607421875,-0.680908203125,-0.17431640625,0.69940185546875,-5063,-2219,-465,-22,1,132
480636912,-0.1422119140625,-0.68341064453125,-0.16595458984375,0.696533203125,-4951,-2048,-485,-24,1,130
480646892,-0.15472412109375,-0.68572998046875,-0.15765380859375,0.69354248046875,-4793,-1867,-500,-25,1,129
480656876,-0.167236328125,-0.68792724609375,-0.1492919921875,0.6903076171875,-4629,-1675,-501,-25,1,130
480666860,-0.1798095703125,-0.68994140625,-0.140869140625,0.6868896484375,-4464,-1475,-473,-25,1,131
480676844,-0.1925048828125,-0.6917724609375,-0.13232421875,0.68328857421875,-4309,-1250,-411,-25,2,131
480686823,-0.20526123046875,-0.69342041015625,-0.12359619140625,0.67950439453125,-4164,-957,-317,-26,2,131
480696806,-0.218017578125,-0.6949462890625,-0.11480712890625,0.675537109375,-4059,-612,-218,-25,3,130
480706796,-0.2308349609375,-0.6962890625,-0.1058349609375,0.67132568359375,-3980,-241,-98,-25,3,131
480716780,-0.24359130859375,-0.69744873046875,-0.0968017578125,0.6669921875,-3951,175,19,-25,3,129
480726755,-0.25616455078125,-0.69830322265625,-0.087890625,0.66259765625,-3940,583,154,-25,3,126
480736739,-0.2684326171875,-0.698974609375,-0.0791015625,0.65814208984375,-3977,1009,275,-24,3,121
480746721,-0.2801513671875,-0.69940185546875,-0.07073974609375,0.65374755859375,-4014,1429,365,-24,3,114
480756703,-0.291259765625,-0.69952392578125,-0.06280517578125,0.6495361328125,-4069,1861,448,-23,2,107
480766686,-0.3017578125,-0.69940185546875,-0.05535888671875,0.64556884765625,-4157,2281,527,-23,0,99
480776672,-0.3115234375,-0.698974609375,-0.0484619140625,0.64190673828125,-4296,2681,617,-21,-1,90
480786652,-0.32049560546875,-0.69830322265625,-0.042236328125,0.638671875,-4456,3031,684,-20,-3,82
480796633,-0.32855224609375,-0.69732666015625,-0.03656005859375,0.63592529296875,-4615,3331,723,-19,-6,72
480806616,-0.3358154296875,-0.6961669921875,-0.03143310546875,0.6337890625,-4750,3557,740,-18,-9,63
480816600,-0.342041015625,-0.69476318359375,-0.0269775390625,0.63214111328125,-4882,3726,733,-16,-11,54
480826579,-0.34735107421875,-0.69329833984375,-0.02313232421875,0.63104248046875,-5024,3855,714,-14,-13,44
480836565,-0.35162353515625,-0.69171142578125,-0.01983642578125,0.6304931640625,-5177,3950,700,-11,-15,34
480846548,-0.35491943359375,-0.6900634765625,-0.01708984375,0.6304931640625,-5343,4009,681,-9,-16,25
480856531,-0.3572998046875,-0.6884765625,-0.01495361328125,0.6309814453125,-5539,4035,653,-6,-17,17
480866515,-0.35894775390625,-0.6868896484375,-0.01324462890625,0.6318359375,-5753,4044,626,-4,-19,11
480876497,-0.35986328125,-0.68536376953125,-0.0118408203125,0.63299560546875,-5972,4044,598,-2,-19,5
480886470,-0.36016845703125,-0.68389892578125,-0.01080322265625,0.6343994140625,-6201,4016,569,-1,-19,1
480896465,-0.3599853515625,-0.6824951171875,-0.010009765625,0.63604736328125,-6426,3967,524,1,-20,-3
480906443,-0.35931396484375,-0.68121337890625,-0.00946044921875,0.6378173828125,-6620,3901,497,3,-19,-7
480916428,-0.35821533203125,-0.67999267578125,-0.009033203125,0.63970947265625,-6792,3822,485,5,-19,-9
480926404,-0.35687255859375,-0.67889404296875,-0.00872802734375,0.6416015625,-6952,3771,484,6,-18,-10
480936388,-0.35540771484375,-0.67791748046875,-0.00836181640625,0.64349365234375,-7099,3723,507,7,-18,-11
480946370,-0.3538818359375,-0.67694091796875,-0.00799560546875,0.64532470703125,-7240,3678,531,8,-17,-11
480956353,-0.35223388671875,-0.676025390625,-0.00762939453125,0.64715576171875,-7336,3640,549,8,-17,-11
480966337,-0.35040283203125,-0.67523193359375,-0.0074462890625,0.6490478515625,-7401,3584,566,9,-16,-13
480976319,-0.3485107421875,-0.6744384765625,-0.00738525390625,0.65087890625,-7454,3541,583,8,-16,-14
480986302,-0.34649658203125,-0.6737060546875,-0.00738525390625,0.6527099609375,-7487,3504,596,9,-14,-14
480996281,-0.3446044921875,-0.67303466796875,-0.00738525390625,0.6544189453125,-7490,3475,623,8,-14,-14
481006272,-0.3427734375,-0.67236328125,-0.00738525390625,0.65606689453125,-7471,3435,645,8,-13,-13
481016255,-0.341064453125,-0.67169189453125,-0.00738525390625,0.6575927734375,-7440,3421,666,7,-12,-13
481026240,-0.3394775390625,-0.671142578125,-0.0074462890625,0.65899658203125,-7408,3408,699,6,-11,-12
481036229,-0.3380126953125,-0.6705322265625,-0.00750732421875,0.66033935546875,-7343,3388,722,6,-10,-12
481046211,-0.33660888671875,-0.67010498046875,-0.00762939453125,0.66156005859375,-7281,3365,731,5,-9,-11
481056193,-0.33538818359375,-0.669677734375,-0.0076904296875,0.66253662109375,-7200,3350,747,5,-8,-9
481066163,-0.3343505859375,-0.66943359375,-0.007568359375,0.663330078125,-7121,3359,762,5,-6,-7
481076147,-0.333740234375,-0.66925048828125,-0.00726318359375,0.66387939453125,-7046,3364,774,4,-5,-3
481086139,-0.33343505859375,-0.66912841796875,-0.0067138671875,0.66412353515625,-7001,3396,770,4,-3,1
481096118,-0.33343505859375,-0.669189453125,-0.0059814453125,0.6640625,-6971,3439,776,3,-2,4
481106097,-0.33355712890625,-0.6693115234375,-0.0052490234375,0.66387939453125,-6937,3488,765,3,-1,5
481116088,-0.333740234375,-0.66949462890625,-0.004638671875,0.66357421875,-6907,3550,766,2,1,3
481126069,-0.3338623046875,-0.66973876953125,-0.00439453125,0.663330078125,-6901,3603,772,1,2,0
481136051,-0.333740234375,-0.6700439453125,-0.00457763671875,0.6630859375,-6881,3616,775,0,3,-3
481146031,-0.33343505859375,-0.67034912109375,-0.00506591796875,0.66290283203125,-6874,3637,778,-1,4,-6
481156017,-0.33306884765625,-0.67071533203125,-0.00579833984375,0.6627197265625,-6878,3646,783,-2,4,-7
481165995,-0.33270263671875,-0.67108154296875,-0.00665283203125,0.66253662109375,-6879,3639,773,-2,5,-8
481175975,-0.3323974609375,-0.6715087890625,-0.00762939453125,0.66229248046875,-6862,3619,768,-3,6,-7
481185958,-0.3321533203125,-0.67193603515625,-0.00860595703125,0.66192626953125,-6871,3608,771,-3,7,-7
481195940,-0.33203125,-0.67242431640625,-0.009521484375,0.6614990234375,-6882,3608,784,-4,7,-6
481205923,-0.3319091796875,-0.6729736328125,-0.010498046875,0.66094970703125,-6913,3604,777,-4,8,-6
481215905,-0.331787109375,-0.67352294921875,-0.0115966796875,0.66046142578125,-6961,3579,757,-4,9,-6
481225888,-0.33154296875,-0.674072265625,-0.01287841796875,0.65997314453125,-7013,3545,743,-5,9,-8
481235872,-0.33123779296875,-0.6746826171875,-0.0142822265625,0.65948486328125,-7076,3515,719,-5,9,-9
481245856,-0.33074951171875,-0.67523193359375,-0.015869140625,0.65911865234375,-7152,3460,695,-5,9,-11
481255837,-0.33013916015625,-0.6759033203125,-0.017578125,0.65869140625,-7202,3418,689,-5,10,-12
481265820,-0.32940673828125,-0.67645263671875,-0.0194091796875,0.658447265625,-7268,3377,681,-5,9,-13
481275808,-0.32861328125,-0.677001953125,-0.02142333984375,0.658203125,-7342,3321,669,-5,9,-14
481285792,-0.32769775390625,-0.6776123046875,-0.02337646484375,0.65802001953125,-7416,3255,650,-4,9,-14
481295776,-0.3267822265625,-0.67822265625,-0.02532958984375,0.65777587890625,-7497,3187,613,-4,9,-14
481305752,-0.3258056640625,-0.67877197265625,-0.02716064453125,0.65753173828125,-7585,3125,581,-4,8,-13
481315734,-0.32489013671875,-0.67938232421875,-0.02886962890625,0.65728759765625,-7660,3053,556,-3,8,-12
481325717,-0.323974609375,-0.6800537109375,-0.030517578125,0.65704345703125,-7738,2995,549,-2,8,-11
481335699,-0.32305908203125,-0.68060302734375,-0.03192138671875,0.65679931640625,-7798,2939,536,-1,8,-10
481345682,-0.322265625,-0.68121337890625,-0.03314208984375,0.65655517578125,-7872,2898,534,-1,7,-8
481355670,-0.32147216796875,-0.6817626953125,-0.0341796875,0.65625,-7944,2861,523,0,7,-7
481365651,-0.3206787109375,-0.68231201171875,-0.0350341796875,0.65606689453125,-7989,2846,518,1,6,-6
481375633,-0.3199462890625,-0.68280029296875,-0.0357666015625,0.65582275390625,-8041,2855,518,1,5,-5
481385617,-0.31927490234375,-0.68328857421875,-0.0362548828125,0.6556396484375,-8102,2883,521,2,4,-4
481395603,-0.31866455078125,-0.68365478515625,-0.03662109375,0.655517578125,-8135,2931,526,2,3,-3
481405585,-0.31817626953125,-0.68402099609375,-0.03680419921875,0.6553955078125,-8164,2961,529,3,2,-2
481415567,-0.317626953125,-0.684326171875,-0.03692626953125,0.65533447265625,-8194,2980,535,3,2,-2
481425551,-0.31707763671875,-0.68450927734375,-0.037109375,0.6553955078125,-8241,3007,542,2,1,-3
481435535,-0.31640625,-0.6846923828125,-0.03729248046875,0.65557861328125,-8304,3022,545,3,0,-5
481445514,-0.3155517578125,-0.6846923828125,-0.0377197265625,0.6558837890625,-8352,3018,534,3,-1,-7
481455495,-0.31439208984375,-0.68475341796875,-0.03826904296875,0.6563720703125,-8376,3007,504,3,-2,-10
481465474,-0.31304931640625,-0.68463134765625,-0.0390625,0.6571044921875,-8404,2993,493,3,-3,-12
481475466,-0.3116455078125,-0.6844482421875,-0.03985595703125,0.65789794921875,-8427,2974,497,3,-4,-13
481485450,-0.310302734375,-0.6842041015625,-0.04046630859375,0.6588134765625,-8446,2957,494,4,-6,-11
481495432,-0.30908203125,-0.683837890625,-0.04071044921875,0.65966796875,-8491,2951,478,4,-7,-8
481505410,-0.3082275390625,-0.683349609375,-0.04052734375,0.66058349609375,-8516,2955,482,5,-9,-4
481515399,-0.30767822265625,-0.6827392578125,-0.039794921875,0.6614990234375,-8527,2978,481,5,-11,0
481525377,-0.307373046875,-0.6820068359375,-0.0386962890625,0.6624755859375,-8511,3001,481,6,-14,3
481535361,-0.3072509765625,-0.68115234375,-0.037353515625,0.66351318359375,-8482,3036,508,6,-15,4
481545342,-0.30712890625,-0.68011474609375,-0.0357666015625,0.66473388671875,-8437,3070,524,6,-18,5
481555327,-0.30712890625,-0.67889404296875,-0.03411865234375,0.666015625,-8391,3130,547,6,-19,5
481565309,-0.30706787109375,-0.6776123046875,-0.03240966796875,0.66748046875,-8316,3186,570,6,-21,4
481575291,-0.306884765625,-0.67608642578125,-0.03082275390625,0.669189453125,-8231,3231,601,6,-23,2
481585271,-0.306640625,-0.6744384765625,-0.029296875,0.67095947265625,-8134,3273,621,5,-24,1
481595264,-0.3062744140625,-0.6727294921875,-0.02789306640625,0.6729736328125,-8039,3285,644,5,-25,-2
481605244,-0.30572509765625,-0.67095947265625,-0.02667236328125,0.675048828125,-7925,3287,674,5,-25,-4
481615224,-0.3050537109375,-0.6690673828125,-0.025634765625,0.67724609375,-7799,3274,705,5,-26,-5
481625217,-0.3043212890625,-0.667236328125,-0.02471923828125,0.679443359375,-7685,3270,738,5,-25,-6
481635198,-0.30364990234375,-0.66534423828125,-0.023681640625,0.68157958984375,-7573,3270,784,4,-25,-6
481645175,-0.3031005859375,-0.66351318359375,-0.02264404296875,0.68365478515625,-7460,3286,822,4,-25,-5
481655152,-0.30267333984375,-0.66168212890625,-0.02154541015625,0.6856689453125,-7331,3282,854,4,-24,-4
481665136,-0.30230712890625,-0.659912109375,-0.02044677734375,0.68756103515625,-7192,3286,882,3,-23,-3
481675117,-0.302001953125,-0.658203125,-0.0194091796875,0.68939208984375,-7037,3292,927,3,-22,-4
481685101,-0.30157470703125,-0.656494140625,-0.01861572265625,0.691162109375,-6868,3292,984,2,-21,-6
481695087,-0.301025390625,-0.6549072265625,-0.01800537109375,0.69293212890625,-6697,3285,1034,2,-19,-9
481705069,-0.3001708984375,-0.6534423828125,-0.01788330078125,0.6947021484375,-6517,3263,1065,2,-17,-13
481715052,-0.29888916015625,-0.652099609375,-0.0181884765625,0.696533203125,-6338,3224,1100,1,-16,-18
481725035,-0.297119140625,-0.65081787109375,-0.01910400390625,0.69842529296875,-6135,3163,1148,1,-14,-25
481735024,-0.29486083984375,-0.64959716796875,-0.02044677734375,0.70050048828125,-5920,3113,1161,1,-13,-31
481745000,-0.29217529296875,-0.64849853515625,-0.0223388671875,0.70257568359375,-5700,3060,1195,1,-12,-36
481754986,-0.28900146484375,-0.6473388671875,-0.02471923828125,0.70489501953125,-5462,3002,1226,0,-11,-43
481764969,-0.28533935546875,-0.6461181640625,-0.02764892578125,0.70733642578125,-5225,2963,1246,0,-11,-49
481774953,-0.2811279296875,-0.64483642578125,-0.0311279296875,0.7100830078125,-5010,2903,1289,-1,-12,-57
481784933,-0.2762451171875,-0.64337158203125,-0.0352783203125,0.713134765625,-4825,2844,1343,-1,-12,-65
481794916,-0.2706298828125,-0.6417236328125,-0.0400390625,0.71649169921875,-4654,2796,1404,-2,-13,-73
481804899,-0.26434326171875,-0.63995361328125,-0.0455322265625,0.7200927734375,-4485,2782,1443,-2,-13,-83
481814883,-0.25732421875,-0.637939453125,-0.0516357421875,0.7239990234375,-4332,2743,1481,-3,-14,-91
481824864,-0.2496337890625,-0.63580322265625,-0.0582275390625,0.72802734375,-4166,2710,1494,-3,-15,-98
481834846,-0.24127197265625,-0.63348388671875,-0.06536865234375,0.73223876953125,-3993,2635,1492,-3,-15,-106
481844830,-0.232177734375,-0.6309814453125,-0.0731201171875,0.73663330078125,-3822,2513,1461,-3,-16,-114
481854819,-0.2220458984375,-0.62823486328125,-0.0816650390625,0.74114990234375,-3660,2330,1415,-3,-15,-124
481864801,-0.210693359375,-0.62530517578125,-0.09112548828125,0.745849609375,-3505,2108,1358,-2,-15,-136
481874782,-0.197998046875,-0.6220703125,-0.1015625,0.75067138671875,-3379,1876,1312,-2,-15,-150
481884771,-0.18377685546875,-0.6185302734375,-0.11309814453125,0.75555419921875,-3271,1624,1267,0,-14,-165
481894746,-0.16790771484375,-0.61468505859375,-0.1256103515625,0.76043701171875,-3189,1349,1232,1,-13,-180
481904728,-0.15045166015625,-0.6104736328125,-0.13916015625,0.76507568359375,-3132,1070,1181,2,-11,-194
481914710,-0.13165283203125,-0.60589599609375,-0.15350341796875,0.7694091796875,-3106,747,1132,3,-10,-205
481924694,-0.1114501953125,-0.60101318359375,-0.16851806640625,0.77325439453125,-3093,385,1071,5,-8,-215
481934675,-0.09014892578125,-0.59576416015625,-0.18408203125,0.77655029296875,-3092,2,1009,6,-5,-223
481944660,-0.06805419921875,-0.59014892578125,-0.1998291015625,0.7791748046875,-3107,-393,976,7,-3,-228
481954644,-0.0452880859375,-0.58416748046875,-0.2158203125,0.78106689453125,-3152,-837,952,8,0,-232
481964623,-0.02191162109375,-0.577880859375,-0.23199462890625,0.78216552734375,-3216,-1330,884,9,2,-236
481974606,0.0020751953125,-0.5712890625,-0.248291015625,0.78228759765625,-3313,-1876,818,10,5,-239
481984591,0.026123046875,-0.564453125,-0.264404296875,0.781494140625,-3436,-2376,777,10,7,-237
481994577,0.04949951171875,-0.5574951171875,-0.2796630859375,0.78009033203125,-3608,-2808,801,10,8,-228
482004555,0.07159423828125,-0.550537109375,-0.29376220703125,0.77813720703125,-3832,-3239,858,11,8,-215
482014538,0.09222412109375,-0.54364013671875,-0.30670166015625,0.77581787109375,-4014,-3755,901,10,7,-200
482024521,0.11175537109375,-0.53662109375,-0.31884765625,0.773193359375,-4167,-4361,941,10,6,-191
482034503,0.130859375,-0.52935791015625,-0.3306884765625,0.77020263671875,-4316,-4972,965,10,4,-188
482044486,0.14971923828125,-0.5218505859375,-0.34246826171875,0.76678466796875,-4451,-5525,978,9,4,-189
482054466,0.16839599609375,-0.513916015625,-0.354248046875,0.762939453125,-4538,-6006,1045,8,3,-189
482064458,0.18670654296875,-0.50555419921875,-0.3658447265625,0.75872802734375,-4592,-6487,1126,6,1,-188
482074442,0.20428466796875,-0.4969482421875,-0.377197265625,0.75433349609375,-4626,-6970,1217,4,-2,-183
482084416,0.2210693359375,-0.488037109375,-0.38824462890625,0.74981689453125,-4660,-7385,1316,3,-5,-178
482094399,0.23675537109375,-0.47906494140625,-0.39874267578125,0.74530029296875,-4662,-7743,1420,2,-9,-171
482104385,0.2513427734375,-0.46990966796875,-0.4088134765625,0.7408447265625,-4595,-8042,1506,0,-12,-163
482114365,0.26495361328125,-0.4605712890625,-0.418701171875,0.7364501953125,-4459,-8387,1623,-2,-16,-158
482124346,0.2779541015625,-0.45098876953125,-0.428466796875,0.73193359375,-4254,-8795,1712,-3,-19,-154
482134329,0.29052734375,-0.4410400390625,-0.43829345703125,0.727294921875,-3983,-9228,1774,-5,-22,-153
482144314,0.30279541015625,-0.4307861328125,-0.4481201171875,0.72247314453125,-3701,-9643,1808,-5,-24,-152
482154298,0.3145751953125,-0.42041015625,-0.457763671875,0.71746826171875,-3430,-9964,1841,-6,-25,-150
482164279,0.32562255859375,-0.41009521484375,-0.46697998046875,0.7125244140625,-3130,-10155,1910,-6,-27,-143
482174271,0.33563232421875,-0.40008544921875,-0.4755859375,0.7078857421875,-2856,-10245,1983,-7,-28,-133
482184253,0.344482421875,-0.3905029296875,-0.48345947265625,0.70361328125,-2602,-10296,2062,-7,-30,-121
482194240,0.35198974609375,-0.3814697265625,-0.49078369140625,0.6998291015625,-2363,-10337,2128,-7,-31,-109
482204224,0.35845947265625,-0.37286376953125,-0.49755859375,0.69635009765625,-2149,-10402,2196,-8,-33,-99
482214208,0.364013671875,-0.36468505859375,-0.50396728515625,0.69317626953125,-1960,-10432,2258,-9,-34,-93
482224191,0.36895751953125,-0.356689453125,-0.51025390625,0.69012451171875,-1784,-10387,2291,-10,-35,-88
482234161,0.3734130859375,-0.34881591796875,-0.516357421875,0.68719482421875,-1587,-10281,2342,-11,-37,-85
482244143,0.37750244140625,-0.341064453125,-0.52239990234375,0.684326171875,-1370,-10188,2361,-12,-37,-82
482254126,0.38128662109375,-0.3333740234375,-0.52850341796875,0.6812744140625,-1153,-10117,2365,-14,-38,-81
482264110,0.38507080078125,-0.32550048828125,-0.53466796875,0.67816162109375,-963,-10011,2352,-15,-39,-83
482274092,0.388916015625,-0.31756591796875,-0.5408935546875,0.67474365234375,-749,-9918,2326,-15,-39,-85
482284076,0.39306640625,-0.309326171875,-0.54736328125,0.67095947265625,-522,-9857,2267,-16,-38,-90
482294059,0.39776611328125,-0.3006591796875,-0.55401611328125,0.66668701171875,-268,-9765,2206,-17,-37,-97
482304040,0.40301513671875,-0.2916259765625,-0.56085205078125,0.66180419921875,29,-9725,2161,-18,-36,-104
482314030,0.40875244140625,-0.2822265625,-0.56787109375,0.6563720703125,322,-9761,2120,-19,-35,-110
482324014,0.414794921875,-0.27276611328125,-0.57489013671875,0.65045166015625,613,-9792,2057,-20,-33,-113
482333990,0.42083740234375,-0.263427734375,-0.5816650390625,0.64434814453125,906,-9786,2004,-20,-31,-111
482343973,0.426513671875,-0.2545166015625,-0.5880126953125,0.63836669921875,1214,-9751,1949,-20,-29,-104
482353955,0.43145751953125,-0.24639892578125,-0.593994140625,0.6326904296875,1490,-9704,1889,-20,-28,-94
482363939,0.435546875,-0.23919677734375,-0.5994873046875,0.62744140625,1716,-9595,1825,-21,-26,-83
482373921,0.4388427734375,-0.23297119140625,-0.6044921875,0.6226806640625,1905,-9444,1757,-21,-24,-71
482383903,0.44146728515625,-0.2275390625,-0.60906982421875,0.61834716796875,2111,-9316,1693,-21,-23,-62
482393886,0.44366455078125,-0.2227783203125,-0.6134033203125,0.6142578125,2299,-9209,1630,-22,-21,-56
482403870,0.4456787109375,-0.2183837890625,-0.61749267578125,0.61016845703125,2464,-9128,1558,-22,-19,-54
482413852,0.4478759765625,-0.214111328125,-0.62152099609375,0.60601806640625,2623,-9087,1489,-22,-17,-55
482423835,0.4503173828125,-0.2098388671875,-0.62548828125,0.60162353515625,2762,-9081,1408,-22,-15,-57
482433821,0.453125,-0.2054443359375,-0.62939453125,0.596923828125,2890,-9070,1330,-22,-14,-61
482443808,0.45635986328125,-0.20086669921875,-0.63323974609375,0.5919189453125,3034,-9053,1235,-22,-11,-66
482453793,0.46002197265625,-0.19610595703125,-0.63702392578125,0.5865478515625,3158,-9047,1128,-22,-9,-70
482463775,0.4639892578125,-0.1912841796875,-0.64080810546875,0.5809326171875,3276,-9013,1045,-23,-8,-72
482473752,0.468017578125,-0.18646240234375,-0.64453125,0.57513427734375,3397,-8964,964,-23,-7,-72
482483735,0.471923828125,-0.181884765625,-0.6480712890625,0.5693359375,3533,-8917,927,-24,-6,-70
482493719,0.4755859375,-0.177734375,-0.65142822265625,0.56378173828125,3658,-8861,887,-24,-5,-65
482503701,0.4788818359375,-0.1739501953125,-0.654541015625,0.5584716796875,3780,-8814,861,-24,-4,-60
482513683,0.48187255859375,-0.170654296875,-0.657470703125,0.55352783203125,3887,-8762,831,-23,-4,-54
482523670,0.48443603515625,-0.1678466796875,-0.66015625,0.5489501953125,4006,-8706,810,-22,-3,-48
482533647,0.48675537109375,-0.16546630859375,-0.6624755859375,0.5447998046875,4145,-8643,827,-22,-2,-42
482543633,0.48876953125,-0.16375732421875,-0.6646728515625,0.5408935546875,4219,-8592,741,-21,0,-36
482553613,0.49041748046875,-0.16253662109375,-0.6666259765625,0.53729248046875,4281,-8535,703,-21,0,-31
482563596,0.491943359375,-0.16180419921875,-0.668212890625,0.5341796875,4339,-8486,667,-20,2,-25
482573578,0.4931640625,-0.16162109375,-0.66961669921875,0.53131103515625,4367,-8441,645,-20,4,-20
482583561,0.4942626953125,-0.161865234375,-0.67071533203125,0.52874755859375,4370,-8416,628,-19,6,-16
482593545,0.495361328125,-0.16253662109375,-0.67156982421875,0.5264892578125,4365,-8378,633,-18,8,-12
482603527,0.496337890625,-0.16357421875,-0.67218017578125,0.52447509765625,4340,-8361,659,-18,10,-9
482613511,0.497314453125,-0.1649169921875,-0.67254638671875,0.522705078125,4297,-8340,723,-17,11,-6
482623493,0.49822998046875,-0.16656494140625,-0.672607421875,0.52117919921875,4230,-8315,797,-16,13,-3
482633469,0.4991455078125,-0.16845703125,-0.67242431640625,0.51995849609375,4165,-8299,858,-15,14,-1
482643466,0.50006103515625,-0.17047119140625,-0.67205810546875,0.518798828125,4098,-8273,936,-14,15,0
482653446,0.5010986328125,-0.1724853515625,-0.6715087890625,0.51788330078125,4053,-8269,1028,-13,16,1
482663430,0.502197265625,-0.17449951171875,-0.67083740234375,0.51708984375,4014,-8247,1081,-11,16,1
482673407,0.5032958984375,-0.176513671875,-0.66998291015625,0.51641845703125,3980,-8218,1121,-10,17,2
482683389,0.50445556640625,-0.178466796875,-0.6689453125,0.515869140625,3939,-8178,1122,-8,18,3
482693371,0.5057373046875,-0.180419921875,-0.6678466796875,0.51544189453125,3894,-8124,1106,-7,19,2
482703354,0.50701904296875,-0.18218994140625,-0.66668701171875,0.5150146484375,3824,-8043,1071,-5,18,1
482713337,0.5084228515625,-0.183837890625,-0.66546630859375,0.5146484375,3752,-7939,1009,-3,18,0
482723318,0.5098876953125,-0.18511962890625,-0.66424560546875,0.5142822265625,3672,-7836,938,-2,18,-3
482733298,0.511474609375,-0.1861572265625,-0.6630859375,0.51385498046875,3592,-7729,851,-1,17,-5
482743290,0.5130615234375,-0.1868896484375,-0.662109375,0.5133056640625,3514,-7613,764,0,16,-7
482753271,0.51470947265625,-0.187255859375,-0.66119384765625,0.5126953125,3457,-7513,678,1,14,-10
482763255,0.51629638671875,-0.1873779296875,-0.660400390625,0.51202392578125,3433,-7433,602,2,13,-11
482773240,0.517822265625,-0.187255859375,-0.65972900390625,0.5113525390625,3419,-7363,531,2,11,-12
482783229,0.519287109375,-0.18695068359375,-0.6591796875,0.51068115234375,3439,-7309,469,3,9,-13
482793213,0.52069091796875,-0.18646240234375,-0.65875244140625,0.51007080078125,3481,-7252,404,3,8,-13
482803195,0.52191162109375,-0.18585205078125,-0.65838623046875,0.50946044921875,3533,-7226,330,4,6,-12
482813172,0.52294921875,-0.1851806640625,-0.65814208984375,0.50897216796875,3586,-7210,264,4,5,-11
482823148,0.52374267578125,-0.1845703125,-0.65789794921875,0.50872802734375,3636,-7188,197,5,3,-9
482833131,0.5242919921875,-0.18402099609375,-0.65765380859375,0.5086669921875,3671,-7133,133,5,2,-6
482843113,0.524658203125,-0.18359375,-0.65740966796875,0.50872802734375,3696,-7088,72,5,1,-4
482853097,0.52484130859375,-0.1832275390625,-0.65728759765625,0.5089111328125,3732,-7059,25,5,0,-3
482863085,0.52490234375,-0.1827392578125,-0.65716552734375,0.5091552734375,3761,-7021,-2,6,-1,-3
482873063,0.52490234375,-0.1822509765625,-0.65704345703125,0.5093994140625,3791,-6993,-4,6,-2,-3
482883045,0.52496337890625,-0.181640625,-0.65704345703125,0.5096435546875,3826,-6971,10,6,-2,-3
482893029,0.52490234375,-0.18096923828125,-0.65704345703125,0.5098876953125,3866,-6958,18,5,-3,-4
482903017,0.52490234375,-0.18023681640625,-0.6571044921875,0.51007080078125,3912,-6957,32,5,-3,-4
482912992,0.52484130859375,-0.17950439453125,-0.6572265625,0.51025390625,3946,-6948,56,5,-4,-4
482922975,0.5247802734375,-0.17877197265625,-0.65728759765625,0.510498046875,3980,-6927,88,5,-4,-3
482932957,0.5247802734375,-0.17803955078125,-0.65728759765625,0.5107421875,4009,-6916,126,5,-3,-3
482942937,0.52471923828125,-0.17742919921875,-0.6573486328125,0.510986328125,4033,-6887,177,4,-3,-2
482952925,0.524658203125,-0.1768798828125,-0.65728759765625,0.51129150390625,4042,-6863,234,5,-3,-2
482962912,0.52459716796875,-0.1763916015625,-0.65716552734375,0.51165771484375,4038,-6830,302,4,-2,-1
482972898,0.5245361328125,-0.176025390625,-0.65704345703125,0.51202392578125,4028,-6800,378,4,-2,0
482982874,0.5245361328125,-0.17572021484375,-0.6568603515625,0.5123291015625,4010,-6759,461,3,-2,0
482992856,0.52447509765625,-0.17547607421875,-0.65667724609375,0.5126953125,3988,-6751,551,2,-2,0
483002839,0.5245361328125,-0.17523193359375,-0.656494140625,0.512939453125,3983,-6745,631,2,-1,-1
483012822,0.524658203125,-0.17498779296875,-0.65631103515625,0.51318359375,3977,-6748,705,2,-1,-2
483022802,0.5247802734375,-0.17474365234375,-0.65618896484375,0.5133056640625,3955,-6744,763,1,-1,-2
483032792,0.52496337890625,-0.17449951171875,-0.65606689453125,0.51336669921875,3943,-6738,826,0,-1,-3
483042776,0.52520751953125,-0.17425537109375,-0.65594482421875,0.51336669921875,3940,-6746,859,0,-1,-3
483052753,0.52532958984375,-0.17413330078125,-0.6558837890625,0.5133056640625,3937,-6744,914,-1,-1,-2
483062732,0.5255126953125,-0.17401123046875,-0.65582275390625,0.5133056640625,3957,-6759,939,-1,-1,-2
483072717,0.525634765625,-0.17388916015625,-0.65582275390625,0.51318359375,3984,-6781,953,-2,-1,-2
483082704,0.5257568359375,-0.17388916015625,-0.65582275390625,0.5130615234375,4014,-6793,959,-2,0,-2
483092684,0.52581787109375,-0.17401123046875,-0.6558837890625,0.51287841796875,4058,-6821,949,-3,0,-1
483102673,0.52581787109375,-0.1741943359375,-0.65594482421875,0.5126953125,4114,-6869,920,-3,0,0
483112651,0.52581787109375,-0.17449951171875,-0.656005859375,0.5125732421875,4168,-6926,886,-4,0,1
483122635,0.52569580078125,-0.17486572265625,-0.65606689453125,0.512451171875,4192,-6986,858,-4,0,2
483132617,0.52557373046875,-0.1754150390625,-0.65606689453125,0.51239013671875,4207,-7012,813,-4,1,3
483142595,0.525390625,-0.17608642578125,-0.656005859375,0.512451171875,4201,-7024,770,-4,2,5
483152579,0.52520751953125,-0.1768798828125,-0.6558837890625,0.51251220703125,4179,-7033,743,-4,2,5
483162563,0.52496337890625,-0.17767333984375,-0.65582275390625,0.5125732421875,4174,-7055,702,-3,2,5
483172545,0.5247802734375,-0.178466796875,-0.6556396484375,0.5126953125,4179,-7070,671,-3,3,5
483182528,0.524658203125,-0.17926025390625,-0.65545654296875,0.51275634765625,4172,-7072,626,-3,3,5
483192512,0.52459716796875,-0.17999267578125,-0.65533447265625,0.5128173828125,4162,-7070,585,-2,3,4
483202498,0.52459716796875,-0.18060302734375,-0.6551513671875,0.51275634765625,4157,-7059,546,-2,3,3
483212483,0.52471923828125,-0.18115234375,-0.655029296875,0.51263427734375,4152,-7052,509,-2,4,2
483222469,0.52484130859375,-0.181640625,-0.65484619140625,0.51251220703125,4131,-7049,456,-1,4,0
483232454,0.525146484375,-0.18194580078125,-0.65472412109375,0.51226806640625,4110,-7033,429,-1,4,-1
483242432,0.52545166015625,-0.1822509765625,-0.65460205078125,0.51202392578125,4081,-7021,408,-1,4,-1
483252410,0.52581787109375,-0.1824951171875,-0.6544189453125,0.5118408203125,4036,-6987,396,-1,4,-2
483262397,0.526123046875,-0.1827392578125,-0.65423583984375,0.51165771484375,3984,-6949,400,0,4,-1
483272388,0.5263671875,-0.18304443359375,-0.65399169921875,0.5115966796875,3944,-6907,427,0,3,0
483282362,0.52655029296875,-0.18328857421875,-0.65380859375,0.511474609375,3918,-6894,442,-1,3,0
483292343,0.52679443359375,-0.18353271484375,-0.6536865234375,0.5113525390625,3894,-6868,454,-1,3,-1
483302327,0.52703857421875,-0.1837158203125,-0.65362548828125,0.5111083984375,3903,-6887,463,-1,2,-2
483312306,0.52728271484375,-0.1837158203125,-0.6536865234375,0.51080322265625,3936,-6917,478,-1,1,-4
483322290,0.52764892578125,-0.18359375,-0.65374755859375,0.51043701171875,3954,-6951,497,-1,1,-4
483332278,0.5279541015625,-0.18341064453125,-0.65380859375,0.510009765625,3990,-7016,520,-2,1,-5
483342261,0.5281982421875,-0.18328857421875,-0.6539306640625,0.50970458984375,4036,-7069,562,-2,0,-4
483352244,0.5284423828125,-0.18316650390625,-0.6539306640625,0.50946044921875,4059,-7119,597,-1,0,-2
483362240,0.52850341796875,-0.1832275390625,-0.65386962890625,0.50946044921875,4070,-7142,643,0,0,0
483372220,0.5284423828125,-0.1834716796875,-0.6536865234375,0.5096435546875,4082,-7189,692,0,0,2
483382202,0.5283203125,-0.18377685546875,-0.6534423828125,0.510009765625,4079,-7208,720,1,1,3
483392179,0.5281982421875,-0.1842041015625,-0.65313720703125,0.51043701171875,4066,-7192,745,1,1,4
483402155,0.52801513671875,-0.1845703125,-0.6527099609375,0.51092529296875,4038,-7161,770,1,1,4
483412138,0.52789306640625,-0.1849365234375,-0.65234375,0.51141357421875,4003,-7140,780,2,1,4
483422122,0.52777099609375,-0.18524169921875,-0.6519775390625,0.51190185546875,3980,-7106,781,2,1,3
483432104,0.52777099609375,-0.18536376953125,-0.651611328125,0.5123291015625,3957,-7077,772,2,1,1
483442088,0.52777099609375,-0.18536376953125,-0.65142822265625,0.51263427734375,3932,-7046,752,2,0,1
483452075,0.52783203125,-0.18524169921875,-0.65118408203125,0.51287841796875,3917,-7004,739,2,-1,-1
483462049,0.5279541015625,-0.1849365234375,-0.6510009765625,0.51312255859375,3900,-6986,710,3,-1,-2
483472032,0.52801513671875,-0.18450927734375,-0.65087890625,0.5133056640625,3879,-6977,690,3,-2,-3
483482020,0.52813720703125,-0.18402099609375,-0.65087890625,0.513427734375,3886,-6958,672,3,-2,-3
483491997,0.52813720703125,-0.1834716796875,-0.65087890625,0.5135498046875,3903,-6962,643,3,-3,-4
483501978,0.5281982421875,-0.18280029296875,-0.65093994140625,0.513671875,3927,-6963,613,3,-3,-4
483511960,0.52813720703125,-0.18212890625,-0.6510009765625,0.51385498046875,3953,-6958,592,4,-4,-3
483521943,0.528076171875,-0.18145751953125,-0.651123046875,0.5140380859375,3998,-6963,571,4,-4,-3
483531925,0.5279541015625,-0.1807861328125,-0.6512451171875,0.5142822265625,4033,-6959,551,4,-4,-3
483541912,0.52783203125,-0.18011474609375,-0.65130615234375,0.5145263671875,4066,-6949,529,4,-4,-2
483551892,0.5277099609375,-0.179443359375,-0.65142822265625,0.5147705078125,4088,-6946,509,4,-4,-2
483561874,0.527587890625,-0.17877197265625,-0.6514892578125,0.5150146484375,4114,-6972,501,4,-4,-2
483571856,0.52752685546875,-0.1781005859375,-0.651611328125,0.51519775390625,4132,-6959,508,4,-4,-3
483581839,0.5274658203125,-0.1773681640625,-0.651611328125,0.51544189453125,4147,-6948,529,4,-4,-3
483591822,0.5274658203125,-0.1767578125,-0.651611328125,0.51568603515625,4152,-6952,563,4,-3,-2
483601804,0.52740478515625,-0.1761474609375,-0.651611328125,0.51593017578125,4156,-6936,597,4,-3,-2
483611797,0.52740478515625,-0.17559814453125,-0.6514892578125,0.51629638671875,4147,-6933,656,4,-3,-1
483621786,0.52734375,-0.17523193359375,-0.65130615234375,0.51666259765625,4121,-6912,701,3,-3,0
483631759,0.5272216796875,-0.1749267578125,-0.65118408203125,0.51708984375,4099,-6885,741,3,-3,1
483641742,0.527099609375,-0.1746826171875,-0.6510009765625,0.517578125,4075,-6858,780,3,-2,1
483651726,0.52691650390625,-0.174560546875,-0.65081787109375,0.51800537109375,4049,-6828,807,2,-2,2
483661707,0.5267333984375,-0.17437744140625,-0.65069580078125,0.51837158203125,4031,-6795,825,2,-2,1
483671690,0.52667236328125,-0.17425537109375,-0.65057373046875,0.51861572265625,4026,-6756,846,1,-2,0
483681672,0.52655029296875,-0.174072265625,-0.65057373046875,0.518798828125,4004,-6735,849,1,-2,0
483691656,0.52655029296875,-0.17388916015625,-0.65057373046875,0.51885986328125,3990,-6730,841,0,-2,-2
483701636,0.52655029296875,-0.17364501953125,-0.65069580078125,0.518798828125,3993,-6740,832,0,-2,-2
483711620,0.526611328125,-0.17340087890625,-0.65081787109375,0.51873779296875,4003,-6761,830,-1,-2,-2
483721602,0.526611328125,-0.1732177734375,-0.65093994140625,0.51861572265625,4024,-6795,820,-1,-2,-2
483731584,0.52655029296875,-0.173095703125,-0.65106201171875,0.5185546875,4051,-6830,801,-1,-2,-1
483741565,0.5264892578125,-0.1729736328125,-0.65118408203125,0.51849365234375,4072,-6873,799,-1,-2,-1
483751548,0.52630615234375,-0.17291259765625,-0.6513671875,0.51849365234375,4085,-6914,787,-1,-2,-1
483761541,0.52618408203125,-0.1728515625,-0.65142822265625,0.51849365234375,4084,-6960,767,0,-2,0
483771523,0.5260009765625,-0.17279052734375,-0.65155029296875,0.5185546875,4094,-6995,751,0,-2,-1
483781501,0.52593994140625,-0.172607421875,-0.65167236328125,0.5185546875,4110,-7038,728,0,-2,-1
483791483,0.52587890625,-0.17230224609375,-0.65179443359375,0.5185546875,4124,-7086,709,1,-2,-2
483801471,0.52587890625,-0.17193603515625,-0.65185546875,0.5185546875,4138,-7106,699,1,-3,-4
483811454,0.5260009765625,-0.17138671875,-0.6519775390625,0.5185546875,4151,-7128,698,2,-2,-5
483821434,0.5262451171875,-0.1707763671875,-0.6519775390625,0.51849365234375,4171,-7142,712,3,-2,-5
483831411,0.526611328125,-0.17010498046875,-0.65191650390625,0.5184326171875,4190,-7144,740,3,-1,-6
483841394,0.5269775390625,-0.16943359375,-0.6517333984375,0.5184326171875,4205,-7133,780,3,-1,-5
483851385,0.52740478515625,-0.16876220703125,-0.65155029296875,0.5184326171875,4243,-7139,794,4,0,-5
