subject,Joshua Spiesman
arm,right
label,1
hz,100.17432571206317
time,5.360655

timestamp_us,q0,q1,q2,q3,ax,ay,az,gx,gy,gz
103905778,0.65704345703125,-0.684326171875,-0.3070068359375,0.0755615234375,2727,-7180,-1125,4,-2,-3
103915759,0.65728759765625,-0.6839599609375,-0.30731201171875,0.075439453125,2742,-7240,-1093,2,-1,-2
103925754,0.657470703125,-0.68377685546875,-0.3074951171875,0.0753173828125,2754,-7313,-1074,1,0,-1
103935739,0.65753173828125,-0.68377685546875,-0.30743408203125,0.07513427734375,2759,-7405,-1057,0,1,0
103945715,0.6575927734375,-0.683837890625,-0.30718994140625,0.074951171875,2770,-7472,-1025,-1,2,2
103955692,0.6575927734375,-0.68408203125,-0.306640625,0.0748291015625,2751,-7517,-1001,-2,3,5
103965675,0.65753173828125,-0.68450927734375,-0.30572509765625,0.074951171875,2716,-7541,-983,-2,4,8
103975657,0.65753173828125,-0.68499755859375,-0.3045654296875,0.07525634765625,2668,-7530,-949,-3,5,11
103985638,0.657470703125,-0.6856689453125,-0.3031005859375,0.07574462890625,2604,-7532,-928,-3,5,13
103995619,0.65740966796875,-0.68634033203125,-0.301513671875,0.07623291015625,2544,-7533,-899,-3,5,13
104005602,0.6573486328125,-0.68707275390625,-0.29986572265625,0.0767822265625,2464,-7529,-890,-3,5,13
104015586,0.6573486328125,-0.68768310546875,-0.29840087890625,0.07720947265625,2411,-7532,-877,-2,5,11
104025568,0.6573486328125,-0.688232421875,-0.297119140625,0.07745361328125,2348,-7553,-872,-2,5,7
104035552,0.65740966796875,-0.68853759765625,-0.29620361328125,0.077392578125,2311,-7592,-858,-2,5,4
104045539,0.65753173828125,-0.68865966796875,-0.29571533203125,0.076904296875,2295,-7623,-857,-2,5,-1
104055514,0.65777587890625,-0.6885986328125,-0.2955322265625,0.07623291015625,2294,-7653,-860,-1,5,-4
104065502,0.6580810546875,-0.68841552734375,-0.295654296875,0.0753173828125,2302,-7679,-865,0,4,-7
104075481,0.65838623046875,-0.68804931640625,-0.2958984375,0.0743408203125,2305,-7701,-879,1,4,-9
104088989,0.6588134765625,-0.68768310546875,-0.29620361328125,0.0732421875,2337,-7731,-891,1,4,-9
104095447,0.65924072265625,-0.68719482421875,-0.296630859375,0.07220458984375,2367,-7760,-906,1,4,-10
104105425,0.65972900390625,-0.6866455078125,-0.2969970703125,0.0711669921875,2406,-7776,-940,2,4,-9
104115417,0.66021728515625,-0.6861572265625,-0.29730224609375,0.07012939453125,2440,-7796,-971,3,5,-9
104125399,0.66070556640625,-0.6856689453125,-0.2974853515625,0.06915283203125,2469,-7784,-1003,3,5,-8
104135384,0.6612548828125,-0.68524169921875,-0.29754638671875,0.068115234375,2490,-7755,-1008,3,6,-7
104145359,0.66180419921875,-0.684814453125,-0.2974853515625,0.067138671875,2505,-7704,-1011,3,7,-6
104155344,0.662353515625,-0.68450927734375,-0.29730224609375,0.06622314453125,2520,-7652,-1007,2,7,-5
104165324,0.662841796875,-0.6842041015625,-0.2969970703125,0.06524658203125,2517,-7609,-1010,2,8,-4
104175307,0.663330078125,-0.68402099609375,-0.296630859375,0.06414794921875,2510,-7548,-987,1,9,-5
104185290,0.6636962890625,-0.6839599609375,-0.2962646484375,0.06298828125,2500,-7516,-976,0,9,-5
104195272,0.66400146484375,-0.68389892578125,-0.2958984375,0.06170654296875,2479,-7508,-949,-1,9,-6
104205254,0.66424560546875,-0.68389892578125,-0.295654296875,0.0604248046875,2462,-7502,-941,-2,9,-7
104215233,0.6644287109375,-0.6839599609375,-0.2952880859375,0.05908203125,2449,-7516,-931,-3,9,-6
104225224,0.66455078125,-0.68414306640625,-0.294921875,0.05780029296875,2428,-7512,-898,-4,9,-5
104235205,0.66461181640625,-0.6844482421875,-0.2943115234375,0.0567626953125,2409,-7515,-871,-4,9,-2
104245199,0.66455078125,-0.68487548828125,-0.29351806640625,0.0560302734375,2384,-7523,-858,-5,8,1
104255181,0.66448974609375,-0.6854248046875,-0.2926025390625,0.0555419921875,2383,-7541,-835,-5,7,3
104265167,0.66436767578125,-0.68603515625,-0.29150390625,0.05523681640625,2354,-7567,-808,-5,7,5
104275139,0.6641845703125,-0.6866455078125,-0.29046630859375,0.05499267578125,2358,-7584,-809,-6,6,5
104285115,0.66400146484375,-0.687255859375,-0.28948974609375,0.05474853515625,2357,-7606,-807,-6,6,4
104295098,0.66375732421875,-0.6878662109375,-0.2886962890625,0.054443359375,2340,-7641,-816,-5,5,3
104305082,0.66351318359375,-0.68841552734375,-0.28802490234375,0.05413818359375,2326,-7656,-811,-6,4,2
104315063,0.66326904296875,-0.6888427734375,-0.28753662109375,0.05377197265625,2325,-7675,-808,-5,4,1
104325047,0.6630859375,-0.68927001953125,-0.287109375,0.05340576171875,2319,-7706,-815,-5,3,0
104335031,0.662841796875,-0.68963623046875,-0.2867431640625,0.0531005859375,2326,-7741,-832,-4,3,0
104345013,0.6627197265625,-0.68994140625,-0.28643798828125,0.0528564453125,2364,-7783,-848,-4,2,0
104354998,0.66259765625,-0.69012451171875,-0.2861328125,0.05267333984375,2404,-7848,-855,-3,2,0
104364986,0.66253662109375,-0.6903076171875,-0.285888671875,0.052490234375,2440,-7884,-877,-2,2,0
104374969,0.66259765625,-0.6904296875,-0.28564453125,0.0523681640625,2480,-7912,-898,-1,2,0
104384950,0.66265869140625,-0.6904296875,-0.285400390625,0.05218505859375,2511,-7923,-913,0,2,0
104394934,0.662841796875,-0.69036865234375,-0.28521728515625,0.05206298828125,2521,-7925,-929,1,2,-1
104404910,0.6630859375,-0.69024658203125,-0.2850341796875,0.0518798828125,2515,-7901,-944,2,2,-1
104414894,0.66339111328125,-0.69000244140625,-0.284912109375,0.05169677734375,2511,-7852,-941,2,2,-1
104424877,0.66375732421875,-0.689697265625,-0.2847900390625,0.0513916015625,2493,-7815,-933,3,2,-3
104434858,0.66412353515625,-0.68939208984375,-0.28472900390625,0.05108642578125,2480,-7763,-929,3,2,-3
104444838,0.66455078125,-0.68896484375,-0.28485107421875,0.0506591796875,2463,-7733,-919,3,2,-5
104454820,0.66497802734375,-0.68853759765625,-0.28509521484375,0.05010986328125,2465,-7692,-918,3,2,-7
104464803,0.6654052734375,-0.68798828125,-0.285400390625,0.0494384765625,2468,-7684,-919,3,3,-8
104474785,0.665771484375,-0.68756103515625,-0.2857666015625,0.04864501953125,2483,-7665,-917,2,2,-8
104484765,0.6661376953125,-0.68707275390625,-0.28619384765625,0.0478515625,2504,-7651,-911,2,2,-8
104494755,0.66650390625,-0.68658447265625,-0.28656005859375,0.04705810546875,2524,-7616,-876,2,3,-7
104504738,0.6668701171875,-0.68621826171875,-0.28680419921875,0.04644775390625,2537,-7588,-862,2,2,-6
104514726,0.66717529296875,-0.6859130859375,-0.28680419921875,0.04595947265625,2547,-7576,-854,1,2,-4
104524702,0.66741943359375,-0.68572998046875,-0.28680419921875,0.04559326171875,2559,-7559,-839,1,2,-3
104534684,0.6676025390625,-0.68560791015625,-0.28668212890625,0.0452880859375,2575,-7567,-832,0,2,-2
104544668,0.66778564453125,-0.685546875,-0.28662109375,0.04486083984375,2598,-7572,-842,0,2,-2
104554650,0.6678466796875,-0.68548583984375,-0.2864990234375,0.0445556640625,2625,-7574,-844,-1,2,-1
104564637,0.66790771484375,-0.685546875,-0.28631591796875,0.0443115234375,2643,-7583,-850,-1,2,0
104574614,0.66802978515625,-0.68560791015625,-0.2860107421875,0.0440673828125,2665,-7575,-840,-1,2,1
104584597,0.66802978515625,-0.68572998046875,-0.28558349609375,0.04400634765625,2677,-7571,-832,-2,2,3
104594576,0.66802978515625,-0.68597412109375,-0.2850341796875,0.0440673828125,2668,-7566,-811,-2,3,4
104604559,0.66802978515625,-0.686279296875,-0.2843017578125,0.04425048828125,2649,-7558,-820,-2,2,6
104614541,0.66796875,-0.6866455078125,-0.28350830078125,0.04443359375,2630,-7557,-826,-2,3,6
104624524,0.6678466796875,-0.68707275390625,-0.28277587890625,0.04461669921875,2618,-7577,-827,-3,3,6
104634507,0.66778564453125,-0.68743896484375,-0.2821044921875,0.044677734375,2599,-7579,-843,-3,3,4
104644493,0.66766357421875,-0.687744140625,-0.28155517578125,0.0445556640625,2588,-7580,-862,-3,3,2
104654476,0.6676025390625,-0.68798828125,-0.28118896484375,0.0443115234375,2579,-7591,-876,-2,3,1
104664463,0.66754150390625,-0.68817138671875,-0.2808837890625,0.0439453125,2563,-7610,-874,-2,3,-1
104674443,0.66754150390625,-0.688232421875,-0.28070068359375,0.04339599609375,2559,-7613,-871,-2,4,-2
104684428,0.6676025390625,-0.68829345703125,-0.280517578125,0.04278564453125,2566,-7621,-864,-2,4,-3
104694407,0.667724609375,-0.68829345703125,-0.28045654296875,0.04205322265625,2590,-7652,-881,-2,4,-4
104704391,0.66778564453125,-0.68829345703125,-0.28033447265625,0.0413818359375,2609,-7665,-885,-1,4,-4
104714368,0.66796875,-0.68829345703125,-0.2801513671875,0.0406494140625,2641,-7673,-892,-1,5,-3
104724347,0.66815185546875,-0.688232421875,-0.27996826171875,0.03985595703125,2662,-7666,-883,-1,5,-3
104734331,0.6683349609375,-0.68817138671875,-0.27972412109375,0.03912353515625,2683,-7656,-885,-1,6,-3
104744314,0.6685791015625,-0.6881103515625,-0.2794189453125,0.038330078125,2684,-7635,-877,-1,6,-3
104754297,0.66876220703125,-0.6881103515625,-0.27911376953125,0.03753662109375,2680,-7602,-870,-1,6,-3
104764280,0.6689453125,-0.6881103515625,-0.27880859375,0.03662109375,2674,-7569,-869,-1,7,-4
104774261,0.6690673828125,-0.6881103515625,-0.278564453125,0.03558349609375,2679,-7537,-860,-2,7,-4
104784249,0.669189453125,-0.6881103515625,-0.27838134765625,0.0345458984375,2664,-7520,-845,-2,7,-5
104794234,0.66925048828125,-0.68817138671875,-0.2781982421875,0.033447265625,2657,-7517,-839,-3,7,-5
104804216,0.6693115234375,-0.688232421875,-0.27801513671875,0.03240966796875,2649,-7515,-842,-3,7,-5
104814199,0.6693115234375,-0.68841552734375,-0.2777099609375,0.03143310546875,2652,-7535,-868,-3,7,-4
104824187,0.6693115234375,-0.6885986328125,-0.27734375,0.030517578125,2677,-7561,-864,-4,7,-2
104834177,0.6693115234375,-0.6888427734375,-0.27679443359375,0.02978515625,2676,-7578,-868,-4,7,0
104844154,0.66925048828125,-0.689208984375,-0.276123046875,0.0291748046875,2657,-7584,-877,-4,7,1
104854131,0.669189453125,-0.6895751953125,-0.275390625,0.02862548828125,2649,-7587,-898,-4,6,1
104864107,0.66912841796875,-0.68994140625,-0.2747802734375,0.02801513671875,2626,-7590,-899,-4,6,0
104874092,0.66900634765625,-0.6903076171875,-0.27423095703125,0.02734375,2608,-7595,-917,-4,6,-1
104884070,0.66888427734375,-0.69061279296875,-0.27386474609375,0.026611328125,2590,-7616,-939,-4,6,-3
104894053,0.66876220703125,-0.69085693359375,-0.2735595703125,0.02581787109375,2594,-7640,-945,-4,6,-3
104904035,0.668701171875,-0.6910400390625,-0.27325439453125,0.02496337890625,2593,-7636,-944,-3,6,-3
104914018,0.66864013671875,-0.69122314453125,-0.27294921875,0.0242919921875,2584,-7647,-950,-3,6,-2
104924003,0.66864013671875,-0.69146728515625,-0.2725830078125,0.02362060546875,2569,-7635,-960,-3,5,-2
104933990,0.66864013671875,-0.69158935546875,-0.272216796875,0.02294921875,2553,-7634,-972,-2,5,-2
104943974,0.66864013671875,-0.69171142578125,-0.27191162109375,0.0223388671875,2561,-7618,-972,-2,5,-3
104953952,0.66864013671875,-0.69183349609375,-0.271728515625,0.0216064453125,2560,-7612,-980,-2,5,-4
104963933,0.668701171875,-0.69189453125,-0.2716064453125,0.0208740234375,2564,-7596,-997,-2,5,-5
104973918,0.66864013671875,-0.69189453125,-0.27154541015625,0.02008056640625,2579,-7579,-992,-2,4,-5
104983899,0.668701171875,-0.69195556640625,-0.271484375,0.01934814453125,2617,-7573,-986,-2,5,-4
104993881,0.668701171875,-0.69195556640625,-0.27142333984375,0.01861572265625,2633,-7552,-973,-2,4,-4
105003871,0.668701171875,-0.6920166015625,-0.271240234375,0.01800537109375,2633,-7541,-962,-2,4,-3
105013851,0.668701171875,-0.692138671875,-0.27105712890625,0.0174560546875,2632,-7512,-951,-2,4,-3
105023835,0.66864013671875,-0.6922607421875,-0.27093505859375,0.016845703125,2657,-7488,-944,-3,4,-2
105033817,0.6685791015625,-0.6923828125,-0.270751953125,0.01629638671875,2669,-7458,-940,-3,4,-3
105043798,0.66845703125,-0.69256591796875,-0.27069091796875,0.015625,2690,-7428,-939,-3,3,-3
105053778,0.6683349609375,-0.6927490234375,-0.27069091796875,0.01495361328125,2704,-7402,-937,-4,3,-4
105063765,0.6680908203125,-0.69293212890625,-0.27069091796875,0.01422119140625,2712,-7381,-939,-4,3,-4
105073748,0.6678466796875,-0.6932373046875,-0.27069091796875,0.013427734375,2733,-7380,-938,-5,4,-4
105083732,0.66754150390625,-0.6934814453125,-0.270751953125,0.0125732421875,2750,-7399,-950,-5,4,-4
105093707,0.66729736328125,-0.69378662109375,-0.270751953125,0.01177978515625,2778,-7432,-955,-5,3,-4
105103691,0.6669921875,-0.694091796875,-0.270751953125,0.010986328125,2793,-7463,-967,-5,4,-4
105113673,0.6666259765625,-0.6944580078125,-0.2706298828125,0.01025390625,2803,-7507,-990,-6,4,-3
105123657,0.666259765625,-0.69488525390625,-0.27044677734375,0.0096435546875,2808,-7524,-990,-6,4,-2
105133639,0.66595458984375,-0.6953125,-0.27020263671875,0.009033203125,2816,-7543,-996,-6,4,-1
105143622,0.6656494140625,-0.69573974609375,-0.2698974609375,0.008544921875,2811,-7553,-1013,-5,3,-1
105153604,0.665283203125,-0.6961669921875,-0.26959228515625,0.00799560546875,2794,-7552,-1023,-6,4,-1
105163585,0.6649169921875,-0.69659423828125,-0.2694091796875,0.0074462890625,2802,-7560,-1031,-6,3,-2
105173569,0.66461181640625,-0.69696044921875,-0.26922607421875,0.00677490234375,2812,-7571,-1043,-5,4,-2
105183552,0.664306640625,-0.6973876953125,-0.26904296875,0.00616455078125,2799,-7593,-1042,-5,4,-2
105193536,0.66400146484375,-0.69769287109375,-0.2689208984375,0.00555419921875,2781,-7585,-1047,-5,3,-3
105203517,0.6636962890625,-0.69805908203125,-0.268798828125,0.0048828125,2759,-7584,-1065,-5,3,-3
105213498,0.66339111328125,-0.69830322265625,-0.268798828125,0.00421142578125,2751,-7574,-1070,-5,3,-4
105223481,0.66314697265625,-0.698486328125,-0.26885986328125,0.00341796875,2743,-7593,-1078,-4,3,-6
105233464,0.66290283203125,-0.6986083984375,-0.2691650390625,0.00250244140625,2717,-7607,-1083,-4,3,-8
105243446,0.6627197265625,-0.6986083984375,-0.26959228515625,0.00152587890625,2726,-7627,-1083,-3,2,-10
105253425,0.66259765625,-0.69854736328125,-0.27020263671875,0.00048828125,2731,-7648,-1079,-3,2,-11
105263418,0.6624755859375,-0.698486328125,-0.270751953125,-0.00048828125,2732,-7652,-1072,-2,2,-10
105273400,0.66241455078125,-0.69830322265625,-0.271240234375,-0.00128173828125,2743,-7664,-1064,-2,1,-8
105283384,0.662353515625,-0.6982421875,-0.2716064453125,-0.00189208984375,2763,-7672,-1060,-1,1,-7
105293361,0.662353515625,-0.6981201171875,-0.27191162109375,-0.00238037109375,2792,-7666,-1055,-1,1,-5
105303344,0.662353515625,-0.697998046875,-0.27215576171875,-0.00274658203125,2811,-7652,-1062,-1,0,-4
105313332,0.662353515625,-0.69793701171875,-0.27239990234375,-0.0030517578125,2831,-7630,-1060,0,0,-4
105323311,0.662353515625,-0.6978759765625,-0.2725830078125,-0.0032958984375,2839,-7604,-1074,-1,0,-4
105333291,0.66229248046875,-0.69781494140625,-0.27288818359375,-0.003662109375,2848,-7565,-1070,-1,0,-4
105343273,0.6622314453125,-0.69775390625,-0.27313232421875,-0.0040283203125,2848,-7536,-1050,-1,0,-5
105353257,0.6622314453125,-0.69769287109375,-0.27337646484375,-0.00439453125,2861,-7516,-1040,-1,0,-4
105363237,0.662109375,-0.69769287109375,-0.2735595703125,-0.00469970703125,2881,-7500,-1034,-2,0,-3
105373226,0.66204833984375,-0.69769287109375,-0.273681640625,-0.00506591796875,2922,-7488,-1040,-2,1,-3
105383209,0.66192626953125,-0.69781494140625,-0.27374267578125,-0.00531005859375,2951,-7470,-1045,-2,1,-2
105393199,0.6617431640625,-0.69793701171875,-0.27374267578125,-0.00567626953125,2968,-7460,-1064,-2,1,-2
105403181,0.66162109375,-0.6981201171875,-0.273681640625,-0.0059814453125,2990,-7438,-1072,-3,2,-1
105413167,0.661376953125,-0.6983642578125,-0.27349853515625,-0.00640869140625,2988,-7406,-1065,-3,2,-1
105423148,0.66119384765625,-0.6986083984375,-0.2733154296875,-0.0068359375,2988,-7383,-1057,-4,3,-1
105433131,0.6610107421875,-0.69891357421875,-0.2730712890625,-0.00726318359375,3007,-7394,-1051,-4,3,0
105443104,0.6607666015625,-0.69927978515625,-0.272705078125,-0.0076904296875,3022,-7408,-1050,-5,3,0
105453085,0.6605224609375,-0.69970703125,-0.27227783203125,-0.00811767578125,3040,-7445,-1076,-5,4,1
105463065,0.66021728515625,-0.7001953125,-0.271728515625,-0.00848388671875,3051,-7494,-1104,-6,4,2
105473049,0.65985107421875,-0.70068359375,-0.2711181640625,-0.0089111328125,3039,-7531,-1157,-5,5,2
105483031,0.6595458984375,-0.70123291015625,-0.2705078125,-0.00933837890625,3025,-7549,-1179,-6,5,2
105493014,0.65924072265625,-0.70184326171875,-0.269775390625,-0.00970458984375,2994,-7555,-1186,-6,5,3
105502998,0.658935546875,-0.702392578125,-0.2689208984375,-0.010009765625,2947,-7566,-1172,-6,6,3
105512985,0.65869140625,-0.7030029296875,-0.2679443359375,-0.01019287109375,2905,-7635,-1136,-6,6,5
105522968,0.65850830078125,-0.70367431640625,-0.2667236328125,-0.01019287109375,2851,-7773,-1106,-6,5,7
105532945,0.6583251953125,-0.704345703125,-0.265380859375,-0.010009765625,2783,-7961,-1094,-5,5,7
105542926,0.65826416015625,-0.7049560546875,-0.26397705078125,-0.0096435546875,2732,-8190,-1087,-4,5,9
105552910,0.65826416015625,-0.70556640625,-0.262451171875,-0.0091552734375,2679,-8466,-1065,-3,5,9
105562892,0.65838623046875,-0.7060546875,-0.26068115234375,-0.00830078125,2598,-8744,-1028,-2,4,12
105572873,0.65863037109375,-0.70672607421875,-0.2584228515625,-0.0067138671875,2416,-8982,-984,-1,3,19
105582860,0.65887451171875,-0.70758056640625,-0.25531005859375,-0.00396728515625,2147,-9113,-894,0,1,31
105592839,0.65924072265625,-0.70880126953125,-0.25091552734375,0.00042724609375,1838,-9188,-789,1,-2,47
105602820,0.65960693359375,-0.71044921875,-0.2452392578125,0.0064697265625,1577,-9275,-706,2,-5,64
105612804,0.6597900390625,-0.71246337890625,-0.2384033203125,0.01416015625,1305,-9376,-653,3,-8,79
105622788,0.65985107421875,-0.71466064453125,-0.23089599609375,0.02301025390625,1023,-9443,-623,3,-12,88
105632765,0.6597900390625,-0.716796875,-0.22320556640625,0.032470703125,783,-9489,-616,4,-15,91
105642761,0.65960693359375,-0.71868896484375,-0.2159423828125,0.0419921875,574,-9566,-630,5,-17,87
105652742,0.65936279296875,-0.72021484375,-0.20947265625,0.051025390625,401,-9621,-681,7,-19,79
105662718,0.65911865234375,-0.72137451171875,-0.20404052734375,0.0594482421875,253,-9640,-734,7,-20,69
105672702,0.65899658203125,-0.7220458984375,-0.1995849609375,0.067138671875,138,-9677,-782,9,-21,59
105682691,0.65899658203125,-0.722412109375,-0.19573974609375,0.07440185546875,85,-9750,-853,11,-22,54
105692669,0.6590576171875,-0.72259521484375,-0.19219970703125,0.0814208984375,77,-9821,-947,13,-22,52
105702652,0.65924072265625,-0.7225341796875,-0.1885986328125,0.08843994140625,139,-9905,-1045,15,-21,55
105712635,0.6595458984375,-0.722412109375,-0.18450927734375,0.095703125,222,-9996,-1121,17,-21,61
105722619,0.659912109375,-0.72216796875,-0.1798095703125,0.10345458984375,294,-10074,-1190,20,-20,68
105732601,0.660400390625,-0.7218017578125,-0.17437744140625,0.111572265625,354,-10164,-1255,22,-18,75
105742584,0.660888671875,-0.721435546875,-0.16839599609375,0.11993408203125,374,-10212,-1315,24,-17,80
105752566,0.66143798828125,-0.720947265625,-0.16192626953125,0.12841796875,390,-10218,-1359,26,-15,84
105762548,0.6619873046875,-0.72039794921875,-0.155029296875,0.13702392578125,362,-10171,-1381,27,-13,87
105772530,0.66253662109375,-0.7197265625,-0.14788818359375,0.14556884765625,309,-10110,-1361,28,-12,88
105782512,0.66314697265625,-0.7188720703125,-0.1405029296875,0.154052734375,223,-10049,-1319,29,-11,88
105792494,0.663818359375,-0.71783447265625,-0.1331787109375,0.1622314453125,133,-9967,-1251,30,-9,87
105802479,0.66455078125,-0.7166748046875,-0.1258544921875,0.17010498046875,5,-9892,-1164,30,-8,84
105812459,0.665283203125,-0.71539306640625,-0.1187744140625,0.17755126953125,-95,-9846,-1087,30,-6,80
105822443,0.6661376953125,-0.71392822265625,-0.1119384765625,0.1844482421875,-190,-9829,-988,30,-5,76
105832426,0.6669921875,-0.71240234375,-0.105224609375,0.1910400390625,-297,-9789,-884,30,-4,75
105842417,0.66778564453125,-0.71087646484375,-0.09820556640625,0.19769287109375,-417,-9741,-797,30,-2,78
105852400,0.66827392578125,-0.70947265625,-0.090576171875,0.2047119140625,-557,-9630,-704,29,-2,85
105862376,0.66839599609375,-0.7081298828125,-0.082275390625,0.2122802734375,-707,-9513,-587,28,-1,93
105872358,0.668212890625,-0.706787109375,-0.0733642578125,0.22027587890625,-885,-9395,-443,26,-1,98
105882344,0.667724609375,-0.70550537109375,-0.06414794921875,0.2286376953125,-1083,-9294,-301,24,-1,101
105892324,0.66693115234375,-0.70428466796875,-0.05511474609375,0.2369384765625,-1274,-9236,-197,22,-2,100
105902306,0.66595458984375,-0.703125,-0.04638671875,0.244873046875,-1457,-9244,-121,20,-1,96
105912289,0.664794921875,-0.70208740234375,-0.03814697265625,0.2523193359375,-1622,-9319,-54,18,-1,92
105922276,0.66363525390625,-0.70098876953125,-0.0301513671875,0.2593994140625,-1808,-9369,-7,17,0,89
105932256,0.66217041015625,-0.70001220703125,-0.02197265625,0.26654052734375,-1992,-9353,28,16,0,93
105942236,0.6602783203125,-0.698974609375,-0.01312255859375,0.27435302734375,-2203,-9281,83,15,0,102
105952228,0.65789794921875,-0.69793701171875,-0.0035400390625,0.282958984375,-2436,-9213,146,14,-1,112
105962208,0.655029296875,-0.69671630859375,0.00653076171875,0.292236328125,-2657,-9195,209,13,-2,118
105972188,0.65203857421875,-0.69537353515625,0.01654052734375,0.30157470703125,-2862,-9237,238,13,-3,117
105982179,0.64910888671875,-0.69390869140625,0.026123046875,0.31048583984375,-3034,-9310,244,13,-4,112
105992167,0.64630126953125,-0.69232177734375,0.03515625,0.31884765625,-3210,-9358,220,14,-4,107
106002146,0.6436767578125,-0.6905517578125,0.0439453125,0.326904296875,-3367,-9341,223,16,-4,105
106012116,0.6409912109375,-0.68853759765625,0.052978515625,0.3350830078125,-3533,-9265,237,18,-4,109
106022097,0.6380615234375,-0.6861572265625,0.0625,0.34368896484375,-3714,-9181,266,19,-5,115
106032080,0.6348876953125,-0.68341064453125,0.0726318359375,0.3529052734375,-3915,-9094,308,21,-6,122
106042062,0.63165283203125,-0.6802978515625,0.0828857421875,0.36236572265625,-4093,-9071,339,23,-8,123
106052046,0.628662109375,-0.6768798828125,0.0927734375,0.37152099609375,-4267,-9058,320,26,-9,119
106062029,0.6259765625,-0.6732177734375,0.1021728515625,0.380126953125,-4402,-9020,298,28,-10,113
106072012,0.62359619140625,-0.66925048828125,0.11126708984375,0.388427734375,-4549,-8884,293,31,-11,111
106081996,0.62115478515625,-0.66485595703125,0.12054443359375,0.39697265625,-4681,-8680,329,32,-13,115
106091982,0.618408203125,-0.65997314453125,0.13037109375,0.40618896484375,-4819,-8455,364,34,-15,123
106101960,0.615234375,-0.65460205078125,0.14068603515625,0.41607666015625,-4981,-8236,416,35,-17,130
106111941,0.61181640625,-0.64892578125,0.151123046875,0.42626953125,-5147,-8038,451,36,-20,132
106121924,0.6085205078125,-0.64288330078125,0.1612548828125,0.43634033203125,-5321,-7877,477,37,-22,129
106131906,0.60540771484375,-0.63677978515625,0.170654296875,0.44598388671875,-5475,-7752,488,37,-24,123
106141891,0.6025390625,-0.6304931640625,0.17950439453125,0.4552001953125,-5603,-7570,512,38,-26,118
106151875,0.599609375,-0.6240234375,0.1881103515625,0.46441650390625,-5697,-7353,568,38,-27,119
106161855,0.5963134765625,-0.61724853515625,0.1968994140625,0.47393798828125,-5744,-7125,622,37,-29,124
106171839,0.59259033203125,-0.610107421875,0.2059326171875,0.48388671875,-5777,-6892,693,37,-30,130
106181823,0.5885009765625,-0.60260009765625,0.2152099609375,0.49407958984375,-5829,-6708,738,37,-30,134
106191805,0.58416748046875,-0.594970703125,0.2244873046875,0.5042724609375,-5888,-6497,764,38,-31,135
106201789,0.57952880859375,-0.5870361328125,0.23394775390625,0.5145263671875,-5931,-6216,813,38,-31,138
106211768,0.57440185546875,-0.57879638671875,0.24371337890625,0.5250244140625,-5953,-5881,868,38,-31,143
106221759,0.5687255859375,-0.5701904296875,0.25372314453125,0.53570556640625,-5946,-5506,929,37,-31,148
106231742,0.5623779296875,-0.561279296875,0.26416015625,0.54669189453125,-5960,-5131,992,36,-31,154
106241718,0.5555419921875,-0.552001953125,0.27471923828125,0.5577392578125,-5996,-4792,1073,36,-30,157
106251701,0.54852294921875,-0.54266357421875,0.28509521484375,0.568603515625,-6049,-4519,1158,35,-30,155
106261684,0.5416259765625,-0.533447265625,0.29498291015625,0.57879638671875,-6088,-4266,1225,35,-29,149
106271668,0.53497314453125,-0.52435302734375,0.304443359375,0.58831787109375,-6081,-3989,1277,35,-28,143
106281649,0.5281982421875,-0.51531982421875,0.313720703125,0.59747314453125,-6026,-3641,1320,34,-26,141
106291631,0.52099609375,-0.50604248046875,0.3232421875,0.60662841796875,-5946,-3219,1365,34,-25,146
106301614,0.51287841796875,-0.496337890625,0.33331298828125,0.61602783203125,-5883,-2808,1404,34,-24,154
106311599,0.5037841796875,-0.48614501953125,0.34375,0.62579345703125,-5839,-2430,1440,33,-24,162
106321581,0.494140625,-0.47564697265625,0.3543701171875,0.63555908203125,-5808,-2089,1469,32,-23,166
106331563,0.484130859375,-0.4649658203125,0.3648681640625,0.64520263671875,-5772,-1780,1506,32,-22,166
106341545,0.4742431640625,-0.45440673828125,0.37493896484375,0.65423583984375,-5733,-1510,1534,31,-22,160
106351528,0.46490478515625,-0.4443359375,0.38427734375,0.66229248046875,-5647,-1302,1560,30,-20,148
106361512,0.45623779296875,-0.4349365234375,0.3929443359375,0.66949462890625,-5537,-1074,1558,29,-18,138
106371494,0.44775390625,-0.42578125,0.40130615234375,0.67608642578125,-5420,-825,1571,29,-16,133
106381474,0.4390869140625,-0.4166259765625,0.40960693359375,0.68243408203125,-5316,-627,1598,29,-15,134
106391459,0.42999267578125,-0.4073486328125,0.41796875,0.68878173828125,-5242,-479,1611,29,-14,139
106401443,0.42041015625,-0.397705078125,0.426513671875,0.695068359375,-5185,-306,1640,29,-13,143
106411431,0.41033935546875,-0.38787841796875,0.43505859375,0.7012939453125,-5146,-115,1680,29,-12,146
106421413,0.40008544921875,-0.37799072265625,0.443603515625,0.70721435546875,-5090,74,1706,30,-11,145
106431396,0.38970947265625,-0.36810302734375,0.4521484375,0.71282958984375,-4993,287,1701,30,-9,144
106441371,0.37908935546875,-0.35821533203125,0.460693359375,0.7181396484375,-4894,556,1684,31,-8,145
106451354,0.367919921875,-0.3480224609375,0.4693603515625,0.7232666015625,-4790,837,1640,31,-6,149
106461336,0.3560791015625,-0.33740234375,0.478271484375,0.7283935546875,-4669,1162,1581,31,-6,155
106471320,0.34356689453125,-0.32623291015625,0.4874267578125,0.7333984375,-4546,1558,1546,32,-6,160
106481303,0.33050537109375,-0.314453125,0.49664306640625,0.73834228515625,-4417,1977,1532,33,-7,163
106491287,0.31732177734375,-0.30242919921875,0.505615234375,0.7430419921875,-4266,2410,1541,33,-8,162
106501268,0.304443359375,-0.29046630859375,0.51422119140625,0.747314453125,-4109,2840,1563,32,-8,156
106511250,0.29217529296875,-0.27874755859375,0.52227783203125,0.75103759765625,-3929,3251,1571,32,-9,147
106521230,0.28070068359375,-0.26751708984375,0.52984619140625,0.75421142578125,-3758,3639,1569,32,-9,136
106531221,0.26995849609375,-0.2567138671875,0.53680419921875,0.7569580078125,-3569,3990,1554,31,-10,127
106541204,0.2598876953125,-0.2462158203125,0.54345703125,0.75921630859375,-3379,4353,1518,30,-11,120
106551184,0.25030517578125,-0.2359619140625,0.54974365234375,0.76116943359375,-3166,4728,1491,30,-12,114
106561176,0.24114990234375,-0.2259521484375,0.55572509765625,0.7628173828125,-2961,5077,1501,30,-13,108
106571157,0.23260498046875,-0.21624755859375,0.561279296875,0.76422119140625,-2756,5416,1521,29,-13,100
106581134,0.224853515625,-0.20703125,0.56646728515625,0.7652587890625,-2520,5692,1558,28,-13,91
106591112,0.21783447265625,-0.198486328125,0.57122802734375,0.7659912109375,-2282,5924,1572,28,-12,81
106601092,0.21142578125,-0.1904296875,0.57568359375,0.7664794921875,-2056,6152,1588,27,-11,75
106611075,0.2052001953125,-0.18267822265625,0.58001708984375,0.766845703125,-1862,6373,1583,26,-11,72
106621057,0.19891357421875,-0.175048828125,0.58416748046875,0.76708984375,-1719,6563,1576,26,-10,72
106631044,0.1925048828125,-0.16748046875,0.5882568359375,0.767333984375,-1642,6708,1570,25,-10,74
106641023,0.18572998046875,-0.15972900390625,0.59222412109375,0.767578125,-1590,6857,1571,24,-9,77
106651006,0.1787109375,-0.15191650390625,0.5960693359375,0.767822265625,-1542,7018,1571,24,-8,80
106660990,0.1712646484375,-0.14385986328125,0.5999755859375,0.76806640625,-1524,7238,1572,23,-8,83
106670978,0.16351318359375,-0.1357421875,0.60369873046875,0.768310546875,-1511,7488,1616,22,-7,85
106680956,0.1558837890625,-0.1278076171875,0.60723876953125,0.7684326171875,-1506,7738,1668,22,-6,82
106690936,0.1488037109375,-0.1204833984375,0.6104736328125,0.76849365234375,-1492,7942,1744,20,-6,74
106700919,0.14288330078125,-0.1141357421875,0.61328125,0.76837158203125,-1482,8120,1799,19,-6,61
106710901,0.13824462890625,-0.10882568359375,0.61566162109375,0.76806640625,-1446,8263,1830,17,-6,47
106720884,0.134765625,-0.10455322265625,0.61761474609375,0.7677001953125,-1417,8378,1844,14,-6,35
106730864,0.1322021484375,-0.10101318359375,0.61920166015625,0.767333984375,-1370,8441,1835,12,-7,26
106740848,0.13018798828125,-0.0980224609375,0.6204833984375,0.76702880859375,-1320,8463,1835,10,-6,21
106750830,0.12841796875,-0.0953369140625,0.62152099609375,0.766845703125,-1275,8462,1850,7,-6,18
106760812,0.12689208984375,-0.09295654296875,0.62225341796875,0.76678466796875,-1259,8428,1851,6,-5,15
106770796,0.12554931640625,-0.09088134765625,0.6229248046875,0.7667236328125,-1256,8366,1837,4,-5,13
106780778,0.12451171875,-0.08905029296875,0.62335205078125,0.7667236328125,-1291,8275,1790,3,-5,11
106790767,0.12359619140625,-0.08758544921875,0.623779296875,0.7667236328125,-1312,8189,1753,2,-4,9
106800747,0.12274169921875,-0.086181640625,0.6240234375,0.766845703125,-1364,8131,1733,1,-4,8
106810732,0.12176513671875,-0.08489990234375,0.6241455078125,0.76702880859375,-1426,8091,1732,-1,-3,9
106820706,0.12066650390625,-0.08355712890625,0.6241455078125,0.767333984375,-1475,8079,1721,-2,-3,11
106830684,0.11944580078125,-0.082275390625,0.6240234375,0.76776123046875,-1542,8066,1714,-3,-2,11
106840666,0.118408203125,-0.0814208984375,0.62384033203125,0.7681884765625,-1611,8025,1690,-4,-1,8
106850650,0.11785888671875,-0.0811767578125,0.62353515625,0.76849365234375,-1671,7957,1641,-5,1,0
106860632,0.1181640625,-0.08184814453125,0.62310791015625,0.76873779296875,-1737,7858,1609,-6,2,-9
106870614,0.11920166015625,-0.083251953125,0.62255859375,0.7689208984375,-1826,7793,1596,-6,3,-17
106880593,0.12066650390625,-0.08514404296875,0.6219482421875,0.76898193359375,-1914,7751,1587,-6,4,-21
106890576,0.1220703125,-0.08709716796875,0.6212158203125,0.76904296875,-2011,7731,1604,-7,4,-20
106900557,0.1231689453125,-0.08892822265625,0.62060546875,0.76922607421875,-2112,7706,1602,-7,5,-16
106910541,0.12384033203125,-0.0904541015625,0.62005615234375,0.7694091796875,-2201,7655,1600,-6,5,-11
106920523,0.1241455078125,-0.09173583984375,0.6195068359375,0.76959228515625,-2283,7617,1614,-6,5,-8
106930505,0.12432861328125,-0.093017578125,0.61907958984375,0.769775390625,-2362,7565,1628,-6,6,-7
106940488,0.12451171875,-0.09429931640625,0.61865234375,0.76995849609375,-2450,7530,1654,-5,6,-7
106950470,0.12457275390625,-0.09564208984375,0.6182861328125,0.77001953125,-2546,7534,1681,-4,7,-6
106960454,0.12445068359375,-0.096923828125,0.6180419921875,0.77008056640625,-2628,7548,1694,-4,7,-4
106970433,0.1240234375,-0.09796142578125,0.617919921875,0.7701416015625,-2712,7578,1692,-3,8,-1
106980429,0.12335205078125,-0.09881591796875,0.6177978515625,0.770263671875,-2793,7600,1708,-3,8,2
106990411,0.12249755859375,-0.099609375,0.61773681640625,0.77032470703125,-2866,7612,1723,-3,8,3
107000391,0.121826171875,-0.10052490234375,0.61773681640625,0.77032470703125,-2933,7620,1729,-2,8,0
107010369,0.12152099609375,-0.101806640625,0.61767578125,0.770263671875,-2989,7605,1745,-2,8,-4
107020351,0.12152099609375,-0.103271484375,0.61761474609375,0.77008056640625,-3025,7589,1738,-1,8,-7
107030333,0.12164306640625,-0.10479736328125,0.61761474609375,0.7698974609375,-3065,7579,1745,-1,8,-7
107040319,0.1217041015625,-0.106201171875,0.61761474609375,0.7696533203125,-3097,7572,1736,0,8,-5
107050298,0.12139892578125,-0.1072998046875,0.61773681640625,0.76947021484375,-3115,7555,1714,0,7,-1
107060287,0.1207275390625,-0.10797119140625,0.61798095703125,0.769287109375,-3104,7525,1685,0,7,3
107070265,0.119873046875,-0.10833740234375,0.6182861328125,0.76910400390625,-3102,7530,1690,1,6,6
107080249,0.11883544921875,-0.108642578125,0.6185302734375,0.76904296875,-3101,7544,1713,1,6,7
107090238,0.1177978515625,-0.1087646484375,0.61883544921875,0.7689208984375,-3089,7556,1725,1,5,7
107100220,0.1168212890625,-0.10894775390625,0.61907958984375,0.76885986328125,-3089,7579,1748,1,5,7
107110202,0.115966796875,-0.1090087890625,0.61932373046875,0.768798828125,-3085,7596,1748,0,4,6
107120183,0.1151123046875,-0.109130859375,0.61944580078125,0.768798828125,-3079,7621,1764,0,4,6
107130173,0.11444091796875,-0.10919189453125,0.61956787109375,0.768798828125,-3060,7638,1765,-1,3,5
107140157,0.11383056640625,-0.1092529296875,0.61956787109375,0.76885986328125,-3038,7652,1768,-1,2,4
107150134,0.113525390625,-0.10943603515625,0.61944580078125,0.76898193359375,-3020,7684,1765,-2,2,2
107160109,0.1134033203125,-0.10968017578125,0.6192626953125,0.76910400390625,-2978,7700,1760,-3,1,0
107170095,0.11334228515625,-0.10992431640625,0.61907958984375,0.76922607421875,-2939,7709,1770,-3,1,-1
107180081,0.11334228515625,-0.110107421875,0.61883544921875,0.7694091796875,-2913,7720,1782,-3,0,0
107190060,0.1131591796875,-0.110107421875,0.6185302734375,0.7696533203125,-2891,7716,1785,-3,-1,2
107200035,0.11279296875,-0.10980224609375,0.6182861328125,0.76995849609375,-2855,7720,1805,-3,-1,4
107210018,0.11236572265625,-0.109375,0.61798095703125,0.77032470703125,-2827,7720,1812,-4,-2,6
107220000,0.11181640625,-0.1087646484375,0.61773681640625,0.77069091796875,-2783,7717,1800,-4,-2,7
107229990,0.11138916015625,-0.108154296875,0.617431640625,0.7711181640625,-2735,7721,1812,-5,-3,5
107239974,0.11114501953125,-0.107666015625,0.61700439453125,0.771484375,-2667,7725,1823,-5,-3,3
107249956,0.11126708984375,-0.107421875,0.6165771484375,0.7718505859375,-2600,7732,1849,-4,-3,-1
107259929,0.11163330078125,-0.107421875,0.6160888671875,0.772216796875,-2529,7747,1881,-4,-3,-4
107269911,0.11212158203125,-0.10748291015625,0.6156005859375,0.7725830078125,-2451,7754,1903,-5,-3,-6
107279895,0.11273193359375,-0.107666015625,0.61505126953125,0.77288818359375,-2383,7757,1911,-5,-3,-7
107289879,0.11334228515625,-0.10791015625,0.614501953125,0.773193359375,-2330,7746,1916,-5,-2,-7
107299860,0.11395263671875,-0.10809326171875,0.614013671875,0.7734375,-2272,7715,1927,-4,-2,-7
107309842,0.11468505859375,-0.1085205078125,0.61346435546875,0.77374267578125,-2228,7672,1954,-4,-2,-9
107319826,0.1156005859375,-0.109130859375,0.6129150390625,0.77392578125,-2182,7619,1959,-4,-1,-12
107329813,0.11676025390625,-0.11004638671875,0.61248779296875,0.77398681640625,-2166,7576,1955,-3,0,-15
107339792,0.11810302734375,-0.1112060546875,0.612060546875,0.77392578125,-2174,7542,1933,-2,1,-17
107349778,0.1195068359375,-0.11248779296875,0.61163330078125,0.77386474609375,-2216,7525,1944,-2,1,-17
107359763,0.12078857421875,-0.11383056640625,0.611328125,0.77374267578125,-2283,7500,1944,-2,1,-16
107369748,0.1219482421875,-0.11505126953125,0.61102294921875,0.77362060546875,-2365,7474,1948,-1,2,-15
107379730,0.12286376953125,-0.1162109375,0.61077880859375,0.77349853515625,-2453,7482,1957,-1,2,-12
107389705,0.1236572265625,-0.11724853515625,0.610595703125,0.77337646484375,-2548,7495,1964,-1,2,-10
107399688,0.1243896484375,-0.11822509765625,0.6103515625,0.77325439453125,-2653,7500,1972,-1,2,-9
107409671,0.12506103515625,-0.1192626953125,0.61016845703125,0.77313232421875,-2759,7464,1944,-1,2,-9
107419654,0.12567138671875,-0.12030029296875,0.6099853515625,0.77301025390625,-2863,7423,1907,-1,3,-9
107429636,0.12628173828125,-0.121337890625,0.60980224609375,0.77288818359375,-2994,7393,1889,-2,2,-7
107439621,0.12652587890625,-0.1220703125,0.60968017578125,0.7728271484375,-3110,7378,1886,-1,2,-3
107449611,0.12646484375,-0.12249755859375,0.609619140625,0.7728271484375,-3229,7392,1890,-1,2,1
107459586,0.1260986328125,-0.12261962890625,0.60955810546875,0.77294921875,-3318,7399,1895,-2,1,5
107469568,0.12554931640625,-0.12255859375,0.6094970703125,0.7730712890625,-3386,7429,1910,-2,1,6
107479551,0.125,-0.12249755859375,0.60943603515625,0.773193359375,-3440,7464,1908,-2,1,6
107489537,0.124755859375,-0.12255859375,0.609375,0.7733154296875,-3461,7504,1902,-2,1,3
107499522,0.124755859375,-0.12286376953125,0.6092529296875,0.7733154296875,-3434,7535,1885,-2,1,-1
107509501,0.1251220703125,-0.12335205078125,0.609130859375,0.7733154296875,-3384,7577,1887,-2,0,-5
107519480,0.125732421875,-0.12408447265625,0.60888671875,0.77325439453125,-3333,7609,1895,-2,1,-8
107529463,0.1265869140625,-0.125,0.608642578125,0.773193359375,-3276,7625,1912,-2,0,-11
107539446,0.1275634765625,-0.12591552734375,0.60833740234375,0.77313232421875,-3192,7668,1937,-2,1,-12
107549426,0.12860107421875,-0.12689208984375,0.6080322265625,0.7730712890625,-3104,7710,1942,-2,0,-13
107559415,0.12969970703125,-0.1279296875,0.60772705078125,0.77288818359375,-3013,7721,1948,-2,1,-15
107569398,0.13092041015625,-0.129150390625,0.60736083984375,0.77276611328125,-2930,7715,1948,-2,1,-16
107579375,0.13226318359375,-0.13043212890625,0.60699462890625,0.77264404296875,-2852,7675,1943,-2,1,-17
107589357,0.133544921875,-0.13177490234375,0.60662841796875,0.7724609375,-2824,7653,1954,-2,2,-17
107599344,0.1346435546875,-0.13299560546875,0.60626220703125,0.7723388671875,-2837,7638,1946,-2,2,-14
107609322,0.13543701171875,-0.13409423828125,0.60589599609375,0.7723388671875,-2870,7614,1933,-3,2,-11
107619304,0.13580322265625,-0.13482666015625,0.6055908203125,0.77239990234375,-2921,7601,1933,-3,2,-6
107629291,0.13580322265625,-0.13525390625,0.60528564453125,0.77252197265625,-2957,7589,1925,-4,2,-3
107639281,0.13555908203125,-0.13555908203125,0.60498046875,0.77276611328125,-2975,7566,1895,-4,2,0
107649257,0.13525390625,-0.13580322265625,0.6046142578125,0.7730712890625,-2979,7562,1887,-5,2,0
107659234,0.13507080078125,-0.13616943359375,0.6041259765625,0.77337646484375,-2998,7551,1903,-6,2,-2
107669223,0.13519287109375,-0.1368408203125,0.60357666015625,0.773681640625,-3043,7518,1893,-7,2,-5
107679206,0.13555908203125,-0.13775634765625,0.60296630859375,0.77392578125,-3106,7486,1887,-7,2,-8
107689186,0.13616943359375,-0.1387939453125,0.602294921875,0.774169921875,-3181,7444,1870,-7,2,-10
107699178,0.13677978515625,-0.139892578125,0.6015625,0.7744140625,-3265,7406,1865,-7,2,-9
107709161,0.13720703125,-0.14093017578125,0.600830078125,0.77471923828125,-3353,7335,1872,-7,2,-6
107719137,0.13751220703125,-0.14178466796875,0.60015869140625,0.7750244140625,-3428,7271,1861,-7,2,-5
107729115,0.13763427734375,-0.14251708984375,0.599609375,0.77532958984375,-3493,7233,1852,-6,2,-3
107739097,0.1376953125,-0.14312744140625,0.5989990234375,0.775634765625,-3543,7211,1874,-7,1,-2
107749080,0.13775634765625,-0.14361572265625,0.59844970703125,0.7760009765625,-3559,7218,1890,-7,1,-2
107759064,0.13775634765625,-0.1441650390625,0.597900390625,0.77630615234375,-3556,7244,1915,-6,1,-2
107769044,0.13787841796875,-0.14471435546875,0.5972900390625,0.77667236328125,-3551,7259,1952,-7,1,-3
107779028,0.1380615234375,-0.14532470703125,0.59661865234375,0.77703857421875,-3560,7281,2000,-6,1,-4
107789009,0.13824462890625,-0.14599609375,0.59600830078125,0.77734375,-3560,7297,2016,-6,1,-4
107798993,0.13836669921875,-0.14666748046875,0.59539794921875,0.7777099609375,-3569,7310,2031,-6,1,-3
107808981,0.1383056640625,-0.14715576171875,0.5948486328125,0.77801513671875,-3551,7331,2051,-6,2,-1
107818968,0.137939453125,-0.1474609375,0.5943603515625,0.77838134765625,-3497,7358,2068,-6,2,1
107828943,0.13720703125,-0.1475830078125,0.593994140625,0.77880859375,-3431,7393,2092,-6,3,4
107838924,0.13629150390625,-0.1475830078125,0.5936279296875,0.7791748046875,-3336,7431,2106,-6,3,5
107848906,0.1353759765625,-0.14764404296875,0.59332275390625,0.77960205078125,-3237,7454,2125,-6,4,4
107858889,0.134521484375,-0.14788818359375,0.593017578125,0.7799072265625,-3124,7467,2131,-5,5,1
107868875,0.13385009765625,-0.14837646484375,0.59271240234375,0.78021240234375,-2983,7449,2134,-5,6,-1
107878853,0.13330078125,-0.1490478515625,0.59234619140625,0.7803955078125,-2829,7453,2140,-5,7,-4
107888836,0.13287353515625,-0.14990234375,0.592041015625,0.78057861328125,-2670,7456,2149,-5,8,-6
107898819,0.13250732421875,-0.15087890625,0.59173583984375,0.7806396484375,-2483,7476,2129,-4,9,-7
107908802,0.13201904296875,-0.1519775390625,0.591552734375,0.78070068359375,-2299,7530,2106,-4,10,-8
107918784,0.13128662109375,-0.1529541015625,0.59136962890625,0.78070068359375,-2087,7614,2078,-4,11,-7
107928764,0.1302490234375,-0.15386962890625,0.59136962890625,0.78076171875,-1862,7685,2050,-4,12,-5
107938757,0.1290283203125,-0.15472412109375,0.59130859375,0.78082275390625,-1635,7729,2013,-5,13,-5
107948738,0.1278076171875,-0.15570068359375,0.59124755859375,0.7808837890625,-1417,7753,1977,-5,14,-7
107958714,0.12677001953125,-0.1571044921875,0.59112548828125,0.7808837890625,-1222,7773,1952,-6,16,-12
107968696,0.12628173828125,-0.15924072265625,0.59075927734375,0.78076171875,-1047,7757,1916,-6,17,-21
107978680,0.12664794921875,-0.1622314453125,0.5902099609375,0.780517578125,-895,7733,1887,-7,20,-32
107988663,0.12811279296875,-0.1663818359375,0.58929443359375,0.78009033203125,-773,7704,1843,-9,21,-45
107998648,0.13055419921875,-0.17156982421875,0.5880126953125,0.779541015625,-680,7667,1802,-10,23,-58
108008630,0.134033203125,-0.17779541015625,0.5863037109375,0.77880859375,-629,7625,1760,-11,25,-70
108018613,0.1383056640625,-0.18499755859375,0.584228515625,0.7779541015625,-609,7559,1728,-14,26,-80
108028595,0.14324951171875,-0.19293212890625,0.58172607421875,0.77703857421875,-616,7472,1696,-15,28,-88
108038581,0.14862060546875,-0.2015380859375,0.578857421875,0.7760009765625,-626,7353,1660,-18,30,-94
108048563,0.15435791015625,-0.21063232421875,0.57562255859375,0.77484130859375,-667,7185,1606,-19,31,-99
108058546,0.1605224609375,-0.220458984375,0.572021484375,0.7735595703125,-731,6956,1527,-21,33,-106
108068529,0.16729736328125,-0.23101806640625,0.56793212890625,0.77197265625,-838,6703,1432,-23,34,-114
108078511,0.17486572265625,-0.242431640625,0.56341552734375,0.7701416015625,-974,6422,1348,-24,35,-124
108091989,0.1832275390625,-0.254638671875,0.558349609375,0.7679443359375,-1146,6126,1254,-25,36,-133
108098478,0.19219970703125,-0.26739501953125,0.5528564453125,0.765380859375,-1372,5786,1187,-27,37,-139
108108460,0.2017822265625,-0.28076171875,0.54681396484375,0.762451171875,-1612,5443,1115,-27,37,-145
108118444,0.211669921875,-0.29443359375,0.5404052734375,0.75921630859375,-1861,5087,1039,-28,37,-149
108128424,0.22186279296875,-0.3082275390625,0.5335693359375,0.755615234375,-2126,4719,951,-28,36,-153
108138415,0.23248291015625,-0.32220458984375,0.52642822265625,0.75164794921875,-2407,4350,881,-27,36,-156
108148398,0.24346923828125,-0.3363037109375,0.51885986328125,0.74725341796875,-2728,3972,831,-27,35,-159
108158374,0.2548828125,-0.3505859375,0.51080322265625,0.74237060546875,-3100,3556,775,-27,34,-163
108168356,0.266845703125,-0.3651123046875,0.5023193359375,0.7369384765625,-3499,3113,709,-26,33,-168
108178344,0.279296875,-0.37969970703125,0.49322509765625,0.7310791015625,-3885,2700,693,-26,31,-172
108188322,0.29193115234375,-0.39398193359375,0.4837646484375,0.72491455078125,-4213,2316,697,-25,29,-172
108198305,0.30426025390625,-0.40753173828125,0.4742431640625,0.71856689453125,-4504,1939,703,-24,26,-167
108208289,0.31634521484375,-0.42047119140625,0.4647216796875,0.71209716796875,-4769,1477,701,-22,24,-162
108218272,0.32830810546875,-0.43292236328125,0.4552001953125,0.70538330078125,-4984,991,692,-20,22,-160
108228254,0.340576171875,-0.4451904296875,0.4454345703125,0.6981201171875,-5157,523,655,-17,22,-163
108238232,0.3531494140625,-0.4573974609375,0.4354248046875,0.690185546875,-5311,151,622,-15,22,-167
108248224,0.36566162109375,-0.46923828125,0.4254150390625,0.6820068359375,-5487,-56,669,-14,21,-166
108258206,0.377685546875,-0.480224609375,0.41546630859375,0.673828125,-5687,-304,745,-13,19,-159
108268186,0.3892822265625,-0.49053955078125,0.405517578125,0.66583251953125,-5908,-707,796,-12,16,-153
108278178,0.40093994140625,-0.50042724609375,0.39532470703125,0.65765380859375,-6104,-1186,812,-11,13,-152
108288167,0.41290283203125,-0.510009765625,0.38482666015625,0.6490478515625,-6217,-1597,825,-9,11,-157
108298140,0.4254150390625,-0.5196533203125,0.373779296875,0.63970947265625,-6216,-1871,819,-8,11,-166
108308113,0.4384765625,-0.529296875,0.36212158203125,0.629638671875,-6151,-2013,825,-7,12,-176
108318095,0.45166015625,-0.53887939453125,0.34991455078125,0.61895751953125,-6138,-2019,837,-8,12,-181
108328078,0.46435546875,-0.548095703125,0.337646484375,0.608154296875,-6174,-1991,876,-9,11,-179
108338061,0.47637939453125,-0.55670166015625,0.32525634765625,0.5977783203125,-6293,-2227,950,-12,7,-172
108348044,0.4879150390625,-0.56475830078125,0.3125,0.58758544921875,-6438,-2707,954,-13,4,-167
108358023,0.49932861328125,-0.57257080078125,0.29925537109375,0.5772705078125,-6530,-3165,953,-14,1,-168
108368007,0.51068115234375,-0.5799560546875,0.2855224609375,0.56683349609375,-6504,-3459,949,-15,-2,-169
108377989,0.5216064453125,-0.58685302734375,0.27166748046875,0.5565185546875,-6389,-3528,955,-16,-4,-168
108387976,0.53192138671875,-0.59326171875,0.2578125,0.54644775390625,-6265,-3551,963,-19,-6,-165
108397951,0.54156494140625,-0.599365234375,0.2437744140625,0.53668212890625,-6187,-3733,965,-22,-8,-162
108407933,0.55084228515625,-0.6053466796875,0.22918701171875,0.52679443359375,-6136,-4133,985,-26,-9,-162
108417918,0.55999755859375,-0.61151123046875,0.21368408203125,0.51641845703125,-6094,-4531,930,-29,-11,-168
108427900,0.5689697265625,-0.61761474609375,0.19757080078125,0.5057373046875,-5983,-4769,848,-32,-12,-172
108437883,0.5775146484375,-0.6234130859375,0.18109130859375,0.49505615234375,-5787,-4895,807,-33,-15,-172
108447865,0.5855712890625,-0.628662109375,0.16461181640625,0.48455810546875,-5535,-5095,760,-34,-17,-168
108457848,0.59344482421875,-0.6336669921875,0.147705078125,0.4737548828125,-5239,-5585,708,-35,-18,-170
108467829,0.6015625,-0.63873291015625,0.1297607421875,0.46185302734375,-4962,-6384,610,-34,-17,-180
108477812,0.6103515625,-0.6439208984375,0.1102294921875,0.4478759765625,-4696,-7234,517,-34,-14,-200
108487797,0.61956787109375,-0.64898681640625,0.08953857421875,0.4322509765625,-4431,-7804,459,-34,-12,-214
108497778,0.6282958984375,-0.6536865234375,0.06890869140625,0.4161376953125,-4197,-8056,424,-35,-10,-212
108507759,0.63568115234375,-0.65777587890625,0.04949951171875,0.40093994140625,-3973,-8136,414,-37,-10,-195
108517748,0.64141845703125,-0.661376953125,0.0318603515625,0.38751220703125,-3761,-8202,400,-38,-12,-171
108527731,0.64569091796875,-0.6644287109375,0.01611328125,0.37591552734375,-3563,-8460,385,-37,-13,-148
108537709,0.64910888671875,-0.66717529296875,0.00140380859375,0.3653564453125,-3360,-8845,345,-37,-13,-136
108547691,0.65228271484375,-0.66973876953125,-0.0130615234375,0.35467529296875,-3148,-9180,294,-36,-12,-137
108557673,0.6556396484375,-0.67205810546875,-0.028076171875,0.3431396484375,-2919,-9334,234,-36,-10,-148
108567655,0.6591796875,-0.67401123046875,-0.043701171875,0.33050537109375,-2721,-9293,204,-35,-9,-159
108577638,0.66278076171875,-0.67572021484375,-0.059814453125,0.31707763671875,-2545,-9209,208,-36,-8,-167
108587621,0.66619873046875,-0.677001953125,-0.076171875,0.3033447265625,-2364,-9356,264,-36,-9,-170
108597604,0.66943359375,-0.67791748046875,-0.0928955078125,0.28924560546875,-2182,-9745,279,-36,-9,-174
108607587,0.6724853515625,-0.67840576171875,-0.10986328125,0.2747802734375,-1959,-10200,254,-36,-10,-176
108617570,0.67523193359375,-0.678466796875,-0.12689208984375,0.2601318359375,-1693,-10560,202,-35,-10,-177
108627552,0.67767333984375,-0.6781005859375,-0.14349365234375,0.24566650390625,-1404,-10781,150,-33,-11,-172
108637536,0.6796875,-0.67742919921875,-0.1593017578125,0.23193359375,-1120,-10837,139,-31,-11,-164
108647518,0.68133544921875,-0.67645263671875,-0.17401123046875,0.218994140625,-832,-10803,144,-30,-11,-153
108657499,0.6824951171875,-0.67529296875,-0.1878662109375,0.20703125,-554,-10784,163,-29,-12,-143
108667484,0.68328857421875,-0.674072265625,-0.20086669921875,0.19573974609375,-336,-10778,201,-29,-12,-136
108677466,0.6837158203125,-0.6728515625,-0.21337890625,0.18499755859375,-108,-10794,217,-30,-13,-131
108687448,0.683837890625,-0.67156982421875,-0.2255859375,0.17449951171875,123,-10818,209,-31,-13,-128
108697429,0.68365478515625,-0.67022705078125,-0.23773193359375,0.1640625,343,-10830,185,-32,-14,-129
108707419,0.68316650390625,-0.66876220703125,-0.25,0.15350341796875,556,-10784,136,-33,-14,-131
108717403,0.68255615234375,-0.6669921875,-0.262451171875,0.1427001953125,782,-10710,61,-33,-15,-134
108727385,0.68170166015625,-0.6650390625,-0.27520751953125,0.1314697265625,1028,-10638,5,-34,-15,-139
108737362,0.6806640625,-0.66278076171875,-0.28814697265625,0.119873046875,1297,-10564,-88,-34,-15,-142
108747344,0.679443359375,-0.6602783203125,-0.30108642578125,0.10809326171875,1586,-10482,-156,-35,-14,-143
108757329,0.67791748046875,-0.65777587890625,-0.3138427734375,0.0963134765625,1848,-10405,-220,-36,-14,-141
108767312,0.6761474609375,-0.65521240234375,-0.32611083984375,0.084716796875,2082,-10332,-268,-37,-13,-138
108777295,0.67413330078125,-0.65277099609375,-0.3377685546875,0.073486328125,2267,-10239,-286,-37,-12,-133
108787277,0.67193603515625,-0.65032958984375,-0.34881591796875,0.0626220703125,2479,-10103,-253,-38,-11,-128
108797259,0.669677734375,-0.64794921875,-0.35919189453125,0.05169677734375,2712,-9965,-186,-40,-7,-125
108807239,0.6673583984375,-0.64569091796875,-0.36895751953125,0.040283203125,2974,-9877,-75,-43,-2,-124
108817234,0.6650390625,-0.64349365234375,-0.3780517578125,0.0281982421875,3246,-9823,37,-46,6,-124
108827214,0.66265869140625,-0.64154052734375,-0.3861083984375,0.0155029296875,3509,-9798,161,-51,14,-121
108837199,0.66021728515625,-0.64013671875,-0.392822265625,0.00250244140625,3733,-9788,240,-55,23,-113
108847186,0.6578369140625,-0.63946533203125,-0.39776611328125,-0.0103759765625,3895,-9763,294,-58,32,-100
108857169,0.65545654296875,-0.6397705078125,-0.4007568359375,-0.0228271484375,3976,-9717,274,-62,40,-86
108867150,0.65301513671875,-0.6409912109375,-0.40191650390625,-0.03466796875,3977,-9649,204,-65,46,-71
108877121,0.65057373046875,-0.64306640625,-0.40142822265625,-0.0458984375,3946,-9645,110,-67,52,-57
108887104,0.648193359375,-0.6458740234375,-0.3994140625,-0.0562744140625,3942,-9727,-19,-68,55,-44
108897087,0.64593505859375,-0.64923095703125,-0.39617919921875,-0.065673828125,3990,-9858,-180,-67,57,-31
108907070,0.643798828125,-0.6531982421875,-0.3917236328125,-0.07391357421875,4074,-9939,-367,-65,57,-16
108917054,0.64190673828125,-0.6575927734375,-0.38604736328125,-0.08074951171875,4162,-9979,-560,-62,57,1
108927031,0.6402587890625,-0.66253662109375,-0.379150390625,-0.0859375,4194,-9931,-759,-58,55,18
108937016,0.63897705078125,-0.6678466796875,-0.37115478515625,-0.08935546875,4131,-9801,-934,-53,52,35
108946998,0.637939453125,-0.6734619140625,-0.36224365234375,-0.0911865234375,3985,-9621,-1080,-48,49,49
108956988,0.63720703125,-0.67913818359375,-0.3526611328125,-0.09161376953125,3809,-9401,-1209,-43,45,59
108966970,0.6365966796875,-0.68475341796875,-0.34295654296875,-0.09088134765625,3613,-9151,-1307,-38,41,66
108976948,0.63616943359375,-0.69012451171875,-0.3333740234375,-0.08929443359375,3382,-8896,-1408,-33,36,68
108986930,0.6357421875,-0.695068359375,-0.32427978515625,-0.087158203125,3182,-8640,-1481,-28,31,66
108996913,0.6353759765625,-0.699462890625,-0.31597900390625,-0.08477783203125,2982,-8391,-1555,-24,26,61
109006894,0.635009765625,-0.703369140625,-0.3087158203125,-0.082275390625,2832,-8171,-1631,-20,20,55
109016877,0.6346435546875,-0.70660400390625,-0.3026123046875,-0.0799560546875,2702,-7960,-1685,-16,15,46
109026859,0.63421630859375,-0.70928955078125,-0.2977294921875,-0.0777587890625,2619,-7790,-1746,-13,10,37
109036843,0.6337890625,-0.71142578125,-0.29412841796875,-0.0758056640625,2568,-7673,-1796,-10,5,28
109046825,0.63330078125,-0.7130126953125,-0.29156494140625,-0.07403564453125,2567,-7555,-1850,-7,1,20
109056808,0.6329345703125,-0.7142333984375,-0.2900390625,-0.0723876953125,2573,-7450,-1869,-4,-3,14
109066786,0.63250732421875,-0.71502685546875,-0.289306640625,-0.0706787109375,2588,-7354,-1887,-1,-7,9
109076769,0.63214111328125,-0.71551513671875,-0.28924560546875,-0.06884765625,2624,-7281,-1893,1,-12,6
109086759,0.6318359375,-0.7158203125,-0.28973388671875,-0.06683349609375,2669,-7256,-1907,3,-15,3
109096737,0.6314697265625,-0.7158203125,-0.29083251953125,-0.06475830078125,2749,-7268,-1919,5,-19,0
109106717,0.6312255859375,-0.71563720703125,-0.29248046875,-0.06256103515625,2871,-7294,-1959,7,-22,-3
109116695,0.6309814453125,-0.7152099609375,-0.29449462890625,-0.060302734375,3006,-7333,-2003,9,-24,-4
109126677,0.630859375,-0.714599609375,-0.29669189453125,-0.05780029296875,3130,-7381,-2050,11,-26,-4
109136660,0.63079833984375,-0.7138671875,-0.299072265625,-0.05517578125,3230,-7393,-2094,13,-27,-4
109146644,0.63079833984375,-0.71307373046875,-0.30145263671875,-0.0523681640625,3290,-7394,-2127,14,-28,-4
109156629,0.6309814453125,-0.71209716796875,-0.30389404296875,-0.049560546875,3336,-7370,-2137,15,-28,-4
109166608,0.63116455078125,-0.7110595703125,-0.30645751953125,-0.046875,3369,-7337,-2139,16,-28,-6
109176591,0.63134765625,-0.70977783203125,-0.30926513671875,-0.04443359375,3400,-7319,-2123,16,-27,-9
109186573,0.63165283203125,-0.70831298828125,-0.31231689453125,-0.04248046875,3436,-7346,-2073,16,-26,-14
109196556,0.6319580078125,-0.7066650390625,-0.315673828125,-0.04095458984375,3502,-7372,-2012,16,-25,-18
109206538,0.63232421875,-0.70477294921875,-0.31915283203125,-0.03985595703125,3622,-7394,-1971,16,-22,-20
109216523,0.6328125,-0.70294189453125,-0.32244873046875,-0.03900146484375,3775,-7418,-1937,15,-20,-19
109226505,0.63336181640625,-0.701171875,-0.32525634765625,-0.0382080078125,3906,-7412,-1911,16,-17,-15
109236485,0.634033203125,-0.69964599609375,-0.32733154296875,-0.0372314453125,3989,-7370,-1872,15,-14,-9
109246469,0.63482666015625,-0.69830322265625,-0.32867431640625,-0.03607177734375,4031,-7322,-1815,15,-11,-3
109256457,0.6357421875,-0.69732666015625,-0.32928466796875,-0.03466796875,4034,-7263,-1774,14,-8,3
109266433,0.63665771484375,-0.696533203125,-0.32928466796875,-0.03314208984375,4003,-7188,-1704,13,-6,7
