subject,Joshua Spiesman
arm,left
label,3
hz,100.17501820899335
time,5.380583

timestamp_us,q0,q1,q2,q3,ax,ay,az,gx,gy,gz
163020910,-0.13848876953125,0.68450927734375,-0.26849365234375,0.66339111328125,6754,-4400,-670,-2,0,0
163030892,-0.13836669921875,0.68450927734375,-0.26861572265625,0.66339111328125,6764,-4410,-671,-2,0,0
163040873,-0.1383056640625,0.68450927734375,-0.26873779296875,0.663330078125,6779,-4418,-674,-2,0,0
163050861,-0.13818359375,0.68450927734375,-0.268798828125,0.663330078125,6791,-4423,-658,-2,0,-1
163060837,-0.1380615234375,0.68450927734375,-0.26885986328125,0.663330078125,6792,-4437,-657,-1,0,-1
163070821,-0.137939453125,0.68450927734375,-0.2689208984375,0.663330078125,6791,-4442,-669,-1,0,-1
163080806,-0.13787841796875,0.68450927734375,-0.26898193359375,0.663330078125,6793,-4464,-673,-1,-1,-1
163090784,-0.1378173828125,0.6845703125,-0.26898193359375,0.66326904296875,6791,-4460,-681,-1,-1,-1
163100768,-0.1376953125,0.68463134765625,-0.26904296875,0.66326904296875,6793,-4455,-688,-1,0,-1
163110761,-0.1376953125,0.68463134765625,-0.26910400390625,0.6632080078125,6790,-4465,-695,-1,0,0
163120740,-0.1376953125,0.68463134765625,-0.2691650390625,0.6632080078125,6791,-4466,-694,-1,-1,0
163130731,-0.13775634765625,0.6845703125,-0.26922607421875,0.66314697265625,6790,-4473,-686,0,0,0
163140707,-0.1378173828125,0.6845703125,-0.269287109375,0.6632080078125,6785,-4455,-676,0,0,0
163150688,-0.13787841796875,0.68450927734375,-0.269287109375,0.6632080078125,6771,-4435,-668,0,-1,0
163160670,-0.137939453125,0.68450927734375,-0.269287109375,0.6632080078125,6758,-4434,-667,0,-1,-1
163170648,-0.13787841796875,0.6845703125,-0.2691650390625,0.6632080078125,6736,-4426,-664,0,-1,-1
163180635,-0.13787841796875,0.68463134765625,-0.26910400390625,0.66314697265625,6709,-4431,-668,0,-1,-2
163190610,-0.1378173828125,0.68475341796875,-0.2689208984375,0.6630859375,6695,-4420,-677,0,-2,-2
163200595,-0.13775634765625,0.6849365234375,-0.268798828125,0.66302490234375,6689,-4423,-690,0,-1,-2
163210577,-0.13775634765625,0.68505859375,-0.2686767578125,0.66290283203125,6690,-4423,-705,0,-2,-1
163220557,-0.1378173828125,0.6851806640625,-0.26861572265625,0.66278076171875,6693,-4416,-715,0,-2,-1
163230544,-0.13800048828125,0.68536376953125,-0.26861572265625,0.66259765625,6692,-4424,-722,0,-3,0
163240524,-0.1383056640625,0.68548583984375,-0.2686767578125,0.66241455078125,6679,-4449,-730,1,-3,1
163250506,-0.1385498046875,0.68560791015625,-0.2686767578125,0.6622314453125,6700,-4453,-736,1,-3,0
163260488,-0.1387939453125,0.685791015625,-0.26849365234375,0.66204833984375,6765,-4475,-721,1,-3,0
163270472,-0.13897705078125,0.68597412109375,-0.26824951171875,0.66192626953125,6853,-4506,-702,2,-3,-2
163280451,-0.1390380859375,0.6861572265625,-0.2677001953125,0.661865234375,6959,-4553,-696,3,-3,-4
163290429,-0.13897705078125,0.6864013671875,-0.26690673828125,0.6619873046875,7093,-4605,-691,4,-2,-6
163300420,-0.13873291015625,0.68670654296875,-0.26580810546875,0.66217041015625,7287,-4660,-688,4,-2,-9
163310405,-0.1383056640625,0.68701171875,-0.2642822265625,0.66253662109375,7551,-4643,-646,6,-1,-12
163320392,-0.1375732421875,0.687255859375,-0.26226806640625,0.66326904296875,7873,-4538,-562,8,0,-15
163330365,-0.136474609375,0.6875,-0.259521484375,0.664306640625,8213,-4324,-442,10,2,-19
163340347,-0.1346435546875,0.68780517578125,-0.255859375,0.665771484375,8548,-4106,-291,12,4,-28
163350329,-0.13177490234375,0.68829345703125,-0.2509765625,0.667724609375,8899,-3952,-136,12,5,-43
163360313,-0.12750244140625,0.68896484375,-0.24456787109375,0.670166015625,9294,-3828,-4,13,8,-61
163370295,-0.1214599609375,0.69000244140625,-0.2364501953125,0.6732177734375,9655,-3699,105,13,11,-81
163380280,-0.11358642578125,0.6912841796875,-0.2265625,0.67669677734375,9956,-3524,191,14,14,-102
163390262,-0.10382080078125,0.69268798828125,-0.21490478515625,0.6805419921875,10204,-3312,255,13,17,-123
163400250,-0.0924072265625,0.69427490234375,-0.20184326171875,0.6845703125,10450,-3054,287,12,20,-139
163410234,-0.07989501953125,0.69573974609375,-0.18792724609375,0.68865966796875,10665,-2754,286,11,22,-148
163420216,-0.06707763671875,0.69683837890625,-0.1737060546875,0.69256591796875,10861,-2484,305,11,24,-150
163430199,-0.05438232421875,0.6976318359375,-0.1595458984375,0.6962890625,11036,-2209,329,11,24,-147
163440187,-0.04217529296875,0.69793701171875,-0.1458740234375,0.6998291015625,11173,-1964,348,12,25,-141
163450170,-0.0306396484375,0.6978759765625,-0.13275146484375,0.70306396484375,11279,-1733,353,13,26,-135
163460151,-0.01971435546875,0.697509765625,-0.12005615234375,0.70611572265625,11389,-1506,363,13,26,-129
163470124,-0.00927734375,0.6968994140625,-0.1077880859375,0.7088623046875,11466,-1318,332,14,26,-125
163480106,0.00079345703125,0.69610595703125,-0.09564208984375,0.71148681640625,11542,-1148,299,15,27,-124
163490089,0.01080322265625,0.695068359375,-0.0833740234375,0.7139892578125,11613,-980,276,16,28,-125
163500071,0.0211181640625,0.69384765625,-0.0706787109375,0.71630859375,11698,-804,272,17,28,-131
163510057,0.03173828125,0.69244384765625,-0.0574951171875,0.71844482421875,11785,-693,269,18,29,-137
163520045,0.04278564453125,0.6907958984375,-0.043701171875,0.72039794921875,11895,-587,255,19,30,-145
163530025,0.05413818359375,0.68902587890625,-0.0294189453125,0.7220458984375,11990,-498,220,20,30,-150
163540009,0.0657958984375,0.68707275390625,-0.01458740234375,0.72344970703125,12073,-387,169,22,31,-157
163549990,0.07763671875,0.68475341796875,0.000732421875,0.72454833984375,12148,-246,112,23,32,-161
163559978,0.08941650390625,0.68218994140625,0.01629638671875,0.7254638671875,12190,-79,55,24,34,-163
163569954,0.1011962890625,0.67919921875,0.0321044921875,0.72613525390625,12209,154,27,26,35,-164
163579938,0.11285400390625,0.6759033203125,0.04815673828125,0.72662353515625,12183,445,16,27,36,-166
163589920,0.12451171875,0.67230224609375,0.0643310546875,0.726806640625,12105,767,12,27,37,-168
163599902,0.1365966796875,0.6683349609375,0.08087158203125,0.7266845703125,11919,1123,24,27,38,-173
163609884,0.1494140625,0.66387939453125,0.09783935546875,0.72613525390625,11687,1486,70,25,37,-181
163619871,0.16302490234375,0.658935546875,0.115234375,0.72515869140625,11460,1822,114,23,37,-189
163629851,0.1771240234375,0.6536865234375,0.1328125,0.7236328125,11242,2146,138,21,36,-194
163639832,0.1915283203125,0.6480712890625,0.15020751953125,0.7215576171875,10931,2455,178,18,34,-196
163649814,0.206298828125,0.64215087890625,0.16754150390625,0.718994140625,10526,2758,207,16,33,-199
163659798,0.22161865234375,0.63592529296875,0.184814453125,0.7156982421875,10022,3046,254,13,30,-204
163669780,0.23785400390625,0.62921142578125,0.20233154296875,0.711669921875,9404,3315,351,10,26,-212
163679768,0.255126953125,0.6219482421875,0.21990966796875,0.706787109375,8812,3546,469,6,23,-221
163689752,0.27313232421875,0.61431884765625,0.2374267578125,0.70111083984375,8322,3748,557,2,20,-226
163699733,0.29095458984375,0.60650634765625,0.2540283203125,0.69488525390625,7988,3881,591,-1,16,-222
163709706,0.30792236328125,0.59881591796875,0.2694091796875,0.68841552734375,7689,3987,599,-3,13,-210
163719690,0.3236083984375,0.591552734375,0.2833251953125,0.681884765625,7364,4048,596,-4,11,-196
163729672,0.33819580078125,0.5845947265625,0.29608154296875,0.67535400390625,6939,4089,576,-4,8,-184
163739655,0.352294921875,0.57769775390625,0.30828857421875,0.6685791015625,6449,4125,610,-4,6,-179
163749637,0.36639404296875,0.570556640625,0.32025146484375,0.66143798828125,5968,4174,648,-4,4,-181
163759623,0.38079833984375,0.5631103515625,0.33221435546875,0.65380859375,5588,4226,697,-5,3,-185
163769603,0.39508056640625,0.555419921875,0.343994140625,0.645751953125,5319,4304,712,-5,2,-185
163779587,0.408935546875,0.54766845703125,0.3553466796875,0.63751220703125,5131,4373,692,-6,2,-181
163789569,0.4219970703125,0.54022216796875,0.365966796875,0.62933349609375,4958,4433,673,-5,1,-173
163799548,0.4342041015625,0.532958984375,0.37591552734375,0.621337890625,4728,4492,672,-4,1,-165
163809536,0.44586181640625,0.5257568359375,0.38543701171875,0.61328125,4478,4585,675,-4,0,-160
163819516,0.45721435546875,0.51861572265625,0.3946533203125,0.6051025390625,4255,4716,675,-4,-1,-158
163829495,0.468505859375,0.51123046875,0.40374755859375,0.5966796875,3981,4840,699,-4,-1,-159
163839476,0.47998046875,0.50341796875,0.41290283203125,0.58782958984375,3656,4945,710,-4,-1,-164
163849459,0.49176025390625,0.49517822265625,0.42236328125,0.578369140625,3311,5013,716,-4,-2,-169
163859443,0.50360107421875,0.486572265625,0.431884765625,0.56829833984375,2993,5033,711,-3,-2,-173
163869431,0.5155029296875,0.477783203125,0.4415283203125,0.5576171875,2647,5038,684,-2,-4,-175
163879416,0.5272216796875,0.46893310546875,0.4510498046875,0.54644775390625,2289,5083,657,0,-6,-176
163889397,0.53875732421875,0.4600830078125,0.46044921875,0.5347900390625,1961,5151,659,2,-8,-175
163899374,0.54998779296875,0.45135498046875,0.46942138671875,0.5228271484375,1660,5242,682,3,-10,-173
163909356,0.56060791015625,0.4429931640625,0.47784423828125,0.5108642578125,1455,5371,648,5,-12,-166
163919344,0.57037353515625,0.4354248046875,0.4854736328125,0.49920654296875,1290,5484,642,6,-14,-156
163929321,0.5794677734375,0.42840576171875,0.49237060546875,0.48797607421875,1076,5565,660,7,-16,-146
163939304,0.58795166015625,0.42181396484375,0.498779296875,0.4769287109375,836,5633,671,8,-16,-141
163949287,0.5963134765625,0.41522216796875,0.50494384765625,0.46575927734375,567,5690,724,8,-18,-140
163959266,0.604736328125,0.4083251953125,0.51104736328125,0.45416259765625,269,5720,788,9,-19,-144
163969251,0.61346435546875,0.40093994140625,0.51715087890625,0.44195556640625,-16,5696,848,8,-20,-150
163979239,0.62237548828125,0.39300537109375,0.52337646484375,0.42913818359375,-300,5636,899,8,-20,-155
163989221,0.63128662109375,0.38458251953125,0.529541015625,0.4158935546875,-563,5524,927,7,-20,-159
163999203,0.64007568359375,0.37591552734375,0.53564453125,0.40240478515625,-846,5350,947,7,-20,-160
164009183,0.6485595703125,0.3670654296875,0.5416259765625,0.38873291015625,-1125,5130,969,8,-19,-159
164019175,0.65679931640625,0.35809326171875,0.54742431640625,0.375,-1452,4893,1006,8,-18,-156
164029160,0.6646728515625,0.3489990234375,0.552978515625,0.36126708984375,-1803,4657,1053,8,-18,-154
164039137,0.672119140625,0.3399658203125,0.55828857421875,0.34759521484375,-2148,4403,1095,8,-17,-150
164049113,0.67913818359375,0.33111572265625,0.56329345703125,0.33428955078125,-2509,4145,1130,8,-16,-143
164059097,0.6854248046875,0.3226318359375,0.56787109375,0.32159423828125,-2853,3886,1188,9,-15,-132
164069077,0.69097900390625,0.31500244140625,0.5718994140625,0.31005859375,-3135,3651,1255,9,-13,-118
164079061,0.69573974609375,0.30816650390625,0.57525634765625,0.29986572265625,-3380,3443,1360,8,-11,-101
164089045,0.69964599609375,0.3021240234375,0.57818603515625,0.291259765625,-3561,3252,1506,6,-6,-86
164099027,0.7027587890625,0.29669189453125,0.58056640625,0.28448486328125,-3661,3068,1720,2,-1,-69
164109012,0.70501708984375,0.29180908203125,0.58251953125,0.2799072265625,-3671,2870,1968,-2,7,-51
164118990,0.70611572265625,0.28765869140625,0.584228515625,0.27783203125,-3642,2622,2159,-8,16,-28
164131989,0.705810546875,0.284423828125,0.58575439453125,0.2786865234375,-3687,2314,2218,-14,26,-2
164138952,0.7041015625,0.28228759765625,0.58721923828125,0.28216552734375,-3879,1981,2168,-18,34,25
164148934,0.70098876953125,0.28143310546875,0.58843994140625,0.28814697265625,-4144,1675,2042,-19,41,51
164158917,0.69659423828125,0.28192138671875,0.5894775390625,0.29608154296875,-4455,1422,1862,-19,46,74
164168897,0.69110107421875,0.2838134765625,0.59027099609375,0.3055419921875,-4752,1253,1652,-17,49,92
164178879,0.68463134765625,0.28680419921875,0.59075927734375,0.3160400390625,-5070,1186,1468,-15,50,107
164188864,0.67755126953125,0.2908935546875,0.59088134765625,0.32720947265625,-5328,1220,1303,-12,49,119
164198848,0.669921875,0.29583740234375,0.59051513671875,0.33892822265625,-5525,1322,1192,-10,47,128
164208834,0.66192626953125,0.30169677734375,0.58953857421875,0.3509521484375,-5659,1501,1087,-8,44,135
164218815,0.65362548828125,0.308349609375,0.587890625,0.36328125,-5706,1721,1007,-6,40,143
164228799,0.64508056640625,0.31585693359375,0.58538818359375,0.3759765625,-5677,1980,971,-5,35,151
164238782,0.63629150390625,0.32421875,0.5819091796875,0.38897705078125,-5572,2268,941,-5,29,160
164248761,0.627197265625,0.3336181640625,0.5772705078125,0.4024658203125,-5360,2549,930,-5,23,170
164258752,0.61767578125,0.34393310546875,0.57147216796875,0.41650390625,-5049,2849,935,-5,17,180
164268735,0.6077880859375,0.3551025390625,0.56451416015625,0.43096923828125,-4670,3140,931,-6,12,189
164278711,0.59747314453125,0.36688232421875,0.556396484375,0.44580078125,-4249,3430,917,-8,7,196
164288693,0.5867919921875,0.37908935546875,0.5472412109375,0.46075439453125,-3798,3715,895,-9,3,202
164298677,0.57574462890625,0.391845703125,0.53717041015625,0.47576904296875,-3272,3974,879,-10,-2,207
164308654,0.56402587890625,0.40521240234375,0.52587890625,0.490966796875,-2688,4176,876,-9,-7,216
164318637,0.5516357421875,0.419189453125,0.513427734375,0.5062255859375,-2089,4324,862,-9,-11,223
164328619,0.53887939453125,0.43310546875,0.50030517578125,0.52117919921875,-1533,4467,850,-10,-13,221
164338602,0.52642822265625,0.44635009765625,0.4869384765625,0.53515625,-932,4642,836,-12,-16,211
164348586,0.5145263671875,0.458740234375,0.4736328125,0.548095703125,-220,4849,813,-13,-17,198
164358568,0.50286865234375,0.4705810546875,0.46014404296875,0.5601806640625,598,5033,799,-14,-19,190
164368549,0.490966796875,0.48236083984375,0.44622802734375,0.5718994140625,1346,5157,778,-14,-22,191
164378536,0.47845458984375,0.49432373046875,0.43157958984375,0.5833740234375,1931,5165,764,-13,-23,197
164388515,0.46527099609375,0.50640869140625,0.4163818359375,0.5946044921875,2397,5116,788,-12,-25,202
164398498,0.4517822265625,0.5181884765625,0.40093994140625,0.60540771484375,2943,5098,794,-11,-25,200
164408480,0.438232421875,0.52947998046875,0.3853759765625,0.6156005859375,3693,5174,807,-12,-24,193
164418464,0.4244384765625,0.540283203125,0.3697509765625,0.6253662109375,4694,5344,760,-12,-22,189
164428446,0.41009521484375,0.5509033203125,0.353759765625,0.6348876953125,5648,5504,702,-13,-20,190
164438425,0.3955078125,0.56085205078125,0.3375244140625,0.6441650390625,6201,5567,708,-13,-19,190
164448416,0.38134765625,0.56976318359375,0.3218994140625,0.65283203125,6350,5508,768,-14,-16,182
164458398,0.3682861328125,0.57745361328125,0.30712890625,0.66064453125,6246,5350,896,-14,-15,168
164468375,0.356689453125,0.5838623046875,0.29351806640625,0.66754150390625,6177,5143,1024,-16,-14,152
164478358,0.34576416015625,0.589599609375,0.2802734375,0.67388916015625,6520,4918,1080,-17,-13,143
164488344,0.333984375,0.59552001953125,0.2662353515625,0.6802978515625,7184,4714,1092,-18,-13,153
164498324,0.31982421875,0.60198974609375,0.25042724609375,0.68743896484375,7852,4454,1075,-16,-11,179
164508304,0.302490234375,0.60888671875,0.23223876953125,0.69549560546875,8358,4139,1073,-14,-8,213
164518287,0.28216552734375,0.615966796875,0.2120361328125,0.7042236328125,8605,3782,1084,-12,-5,241
164528269,0.259765625,0.62255859375,0.19061279296875,0.71307373046875,8674,3395,1102,-9,-1,258
164538256,0.23651123046875,0.62835693359375,0.16900634765625,0.72149658203125,8816,2980,1116,-7,1,259
164548235,0.2130126953125,0.63323974609375,0.1478271484375,0.72918701171875,9297,2568,1085,-3,4,253
164558230,0.1893310546875,0.637451171875,0.12713623046875,0.73590087890625,9957,2184,1028,0,6,248
164568210,0.16552734375,0.6409912109375,0.10711669921875,0.74169921875,10501,1797,981,4,6,244
164578189,0.14208984375,0.6439208984375,0.0880126953125,0.74658203125,10717,1483,984,8,6,236
164588181,0.11968994140625,0.64617919921875,0.0703125,0.75042724609375,10646,1264,1046,11,4,222
164598167,0.09918212890625,0.6478271484375,0.05438232421875,0.7532958984375,10500,1126,1195,11,1,203
164608149,0.08074951171875,0.6490478515625,0.0401611328125,0.75531005859375,10594,958,1336,10,-2,180
164618115,0.064208984375,0.65020751953125,0.02734375,0.75653076171875,10965,786,1417,9,-4,162
164628098,0.049072265625,0.65130615234375,0.015380859375,0.75701904296875,11311,637,1472,7,-7,151
164638078,0.03497314453125,0.65240478515625,0.0040283203125,0.75701904296875,11492,471,1502,4,-10,143
164648061,0.0218505859375,0.65350341796875,-0.0068359375,0.7564697265625,11468,319,1508,3,-12,135
164658045,0.00982666015625,0.6546630859375,-0.01708984375,0.755615234375,11253,221,1513,0,-15,126
164668027,-0.00103759765625,0.65570068359375,-0.02667236328125,0.7545166015625,10964,133,1519,-3,-16,117
164678008,-0.010986328125,0.65667724609375,-0.03582763671875,0.753173828125,10757,30,1529,-5,-17,110
164687990,-0.02044677734375,0.65777587890625,-0.0450439453125,0.75152587890625,10661,-131,1521,-8,-19,109
164697980,-0.030029296875,0.65875244140625,-0.0546875,0.74969482421875,10624,-310,1514,-10,-19,114
164707955,-0.0401611328125,0.65966796875,-0.06512451171875,0.74761962890625,10628,-542,1467,-12,-20,122
164717937,-0.051025390625,0.660400390625,-0.07635498046875,0.7452392578125,10638,-788,1389,-13,-20,132
164727919,-0.0626220703125,0.66094970703125,-0.0885009765625,0.74249267578125,10553,-1040,1286,-14,-20,141
164737902,-0.07476806640625,0.6612548828125,-0.10113525390625,0.739501953125,10409,-1289,1167,-14,-20,146
164747885,-0.0870361328125,0.6612548828125,-0.1138916015625,0.73626708984375,10203,-1516,1056,-14,-19,147
164757871,-0.0989990234375,0.6610107421875,-0.12652587890625,0.73291015625,9989,-1727,968,-15,-19,145
164767849,-0.11041259765625,0.66058349609375,-0.1387939453125,0.72943115234375,9781,-1944,882,-16,-18,139
164777832,-0.12115478515625,0.66009521484375,-0.15069580078125,0.725830078125,9617,-2176,807,-17,-17,134
164787815,-0.1312255859375,0.65948486328125,-0.162109375,0.72216796875,9511,-2422,726,-18,-17,128
164797798,-0.140869140625,0.65875244140625,-0.17333984375,0.7183837890625,9481,-2678,630,-19,-16,125
164807782,-0.15032958984375,0.65789794921875,-0.18450927734375,0.7144775390625,9500,-2927,510,-20,-16,126
164817762,-0.15966796875,0.65692138671875,-0.19580078125,0.71026611328125,9542,-3172,386,-21,-15,127
164827756,-0.1690673828125,0.65576171875,-0.20733642578125,0.7059326171875,9585,-3395,253,-22,-15,130
164837739,-0.17840576171875,0.65435791015625,-0.218994140625,0.70135498046875,9670,-3581,139,-22,-14,132
164847715,-0.18756103515625,0.65277099609375,-0.23065185546875,0.69671630859375,9743,-3733,94,-24,-13,132
164857699,-0.1962890625,0.65106201171875,-0.24200439453125,0.69207763671875,9777,-3850,73,-25,-12,129
164867679,-0.2041015625,0.64923095703125,-0.2529296875,0.6876220703125,9750,-3943,63,-26,-11,121
164877662,-0.21087646484375,0.64752197265625,-0.26300048828125,0.68341064453125,9668,-4066,24,-27,-9,109
164887646,-0.2161865234375,0.64605712890625,-0.2720947265625,0.6795654296875,9528,-4164,-30,-28,-7,93
164897631,-0.21990966796875,0.64501953125,-0.27984619140625,0.6761474609375,9368,-4211,-91,-29,-5,75
164907614,-0.2220458984375,0.6444091796875,-0.2861328125,0.67340087890625,9224,-4182,-109,-29,-4,57
164917595,-0.22259521484375,0.6441650390625,-0.2911376953125,0.67132568359375,9109,-4102,-78,-29,-2,41
164927578,-0.22186279296875,0.6441650390625,-0.294921875,0.669921875,9037,-4009,7,-29,1,27
164937559,-0.22021484375,0.644287109375,-0.29791259765625,0.66900634765625,8987,-3942,101,-29,3,19
164947541,-0.21807861328125,0.6444091796875,-0.30035400390625,0.66851806640625,8981,-3893,184,-27,5,13
164957524,-0.2156982421875,0.64447021484375,-0.30242919921875,0.6683349609375,9020,-3841,224,-26,6,11
164967506,-0.21337890625,0.64434814453125,-0.30438232421875,0.66827392578125,9090,-3768,227,-24,8,12
164977489,-0.211181640625,0.64410400390625,-0.30615234375,0.66839599609375,9198,-3670,268,-21,9,13
164987471,-0.20904541015625,0.6436767578125,-0.30767822265625,0.6688232421875,9304,-3562,344,-19,10,12
164997454,-0.20684814453125,0.64306640625,-0.308837890625,0.66949462890625,9412,-3472,456,-17,11,9
165007432,-0.20440673828125,0.642578125,-0.30938720703125,0.6705322265625,9498,-3413,574,-15,12,3
165017419,-0.201416015625,0.64215087890625,-0.30908203125,0.67193603515625,9544,-3371,695,-12,13,-6
165027400,-0.19769287109375,0.64202880859375,-0.30767822265625,0.67376708984375,9575,-3318,808,-10,13,-19
165037383,-0.19293212890625,0.64239501953125,-0.30487060546875,0.67608642578125,9619,-3225,901,-7,13,-33
165047359,-0.18701171875,0.64324951171875,-0.30072021484375,0.6788330078125,9689,-3109,987,-6,14,-49
165057344,-0.179931640625,0.64453125,-0.295166015625,0.68194580078125,9782,-2988,1080,-4,14,-64
165067324,-0.17169189453125,0.64617919921875,-0.28839111328125,0.6854248046875,9945,-2900,1210,-4,14,-78
165077308,-0.16259765625,0.6480712890625,-0.2806396484375,0.68902587890625,10177,-2882,1306,-3,14,-88
165087288,-0.1529541015625,0.6500244140625,-0.27227783203125,0.6927490234375,10447,-2910,1355,-1,14,-94
165097275,-0.14306640625,0.65203857421875,-0.26336669921875,0.6964111328125,10723,-2947,1294,1,15,-99
165107254,-0.13299560546875,0.65399169921875,-0.2540283203125,0.70001220703125,10993,-2989,1146,3,16,-103
165117236,-0.12261962890625,0.65582275390625,-0.24420166015625,0.70367431640625,11236,-3039,1038,5,18,-109
165127228,-0.11163330078125,0.65753173828125,-0.2335205078125,0.70751953125,11411,-3069,1015,7,21,-119
165137210,-0.09979248046875,0.65911865234375,-0.2216796875,0.71160888671875,11614,-3104,1029,10,23,-132
165147190,-0.0869140625,0.66058349609375,-0.208740234375,0.71588134765625,11817,-3147,1048,11,25,-146
165157182,-0.0732421875,0.66180419921875,-0.19482421875,0.72015380859375,12036,-3175,1021,13,28,-155
165167167,-0.0592041015625,0.66278076171875,-0.18035888671875,0.724365234375,12302,-3198,938,15,31,-161
165177149,-0.045166015625,0.66326904296875,-0.16558837890625,0.7283935546875,12561,-3204,825,17,34,-162
165187118,-0.03118896484375,0.663330078125,-0.15069580078125,0.7322998046875,12744,-3163,733,19,36,-164
165197100,-0.01702880859375,0.6629638671875,-0.1353759765625,0.73602294921875,12841,-3078,676,20,38,-169
165207082,-0.00244140625,0.6622314453125,-0.119384765625,0.73968505859375,12868,-2966,674,21,40,-177
165217066,0.012939453125,0.66119384765625,-0.10272216796875,0.74298095703125,12848,-2825,682,21,41,-188
165227047,0.02899169921875,0.65985107421875,-0.0855712890625,0.745849609375,12842,-2680,711,20,41,-195
165237032,0.04534912109375,0.65826416015625,-0.06817626953125,0.748291015625,12863,-2532,722,19,41,-198
165247016,0.0616455078125,0.6563720703125,-0.05108642578125,0.7501220703125,12871,-2360,705,18,40,-197
165257000,0.0775146484375,0.654296875,-0.03436279296875,0.75140380859375,12827,-2169,688,17,38,-194
165266988,0.09326171875,0.652099609375,-0.01806640625,0.7520751953125,12745,-1948,679,15,36,-193
165276970,0.1090087890625,0.64971923828125,-0.00189208984375,0.75225830078125,12619,-1707,702,14,33,-194
165286948,0.1251220703125,0.64727783203125,0.0142822265625,0.751708984375,12448,-1474,756,12,30,-200
165296930,0.141845703125,0.6446533203125,0.03076171875,0.75048828125,12281,-1233,827,11,27,-206
165306913,0.158935546875,0.6419677734375,0.04730224609375,0.74853515625,12174,-975,893,9,24,-211
165316895,0.17633056640625,0.6390380859375,0.06390380859375,0.74591064453125,12065,-686,947,8,22,-213
165326877,0.19366455078125,0.635986328125,0.0802001953125,0.74261474609375,11990,-394,950,7,19,-213
165336859,0.210693359375,0.6328125,0.09613037109375,0.73876953125,11920,-99,927,6,17,-211
165346843,0.22747802734375,0.62957763671875,0.11181640625,0.734375,11751,198,901,6,15,-210
165356825,0.2445068359375,0.62603759765625,0.12750244140625,0.72930908203125,11413,493,914,5,13,-214
165366807,0.261962890625,0.62213134765625,0.1435546875,0.72357177734375,11024,781,921,5,11,-220
165376787,0.280029296875,0.6177978515625,0.159912109375,0.71710205078125,10620,1093,943,3,9,-228
165386769,0.29840087890625,0.613037109375,0.1763916015625,0.70989990234375,10220,1389,957,3,9,-231
165396760,0.31689453125,0.6077880859375,0.19293212890625,0.7020263671875,9802,1660,951,2,8,-234
165406742,0.33526611328125,0.60211181640625,0.20928955078125,0.69366455078125,9389,1901,951,1,7,-234
165416726,0.35321044921875,0.5960693359375,0.22528076171875,0.68487548828125,8973,2143,936,1,7,-230
165426703,0.37060546875,0.58966064453125,0.2408447265625,0.6759033203125,8518,2350,944,1,8,-226
165436684,0.3873291015625,0.58294677734375,0.25592041015625,0.666748046875,8051,2537,954,0,8,-220
165446668,0.4034423828125,0.57598876953125,0.27032470703125,0.657470703125,7583,2707,956,-1,8,-214
165456646,0.4188232421875,0.56878662109375,0.28424072265625,0.648193359375,7093,2892,932,-1,9,-207
165466630,0.43389892578125,0.56121826171875,0.2977294921875,0.63873291015625,6546,3028,934,-3,9,-205
165476614,0.44891357421875,0.55322265625,0.31103515625,0.62896728515625,5986,3137,969,-4,9,-205
165486596,0.46392822265625,0.54461669921875,0.3240966796875,0.618896484375,5514,3246,1005,-6,10,-207
165496579,0.47869873046875,0.53570556640625,0.3367919921875,0.6085205078125,5123,3364,1010,-8,9,-204
165506561,0.492919921875,0.52667236328125,0.3487548828125,0.5982666015625,4870,3499,1000,-10,9,-198
165516543,0.5059814453125,0.51800537109375,0.359619140625,0.58837890625,4662,3651,945,-11,9,-184
165526525,0.5179443359375,0.5096435546875,0.36944580078125,0.5791015625,4337,3778,930,-12,8,-170
165536506,0.52911376953125,0.50152587890625,0.37835693359375,0.5703125,3926,3859,935,-12,7,-159
165546490,0.539794921875,0.493408203125,0.38677978515625,0.5616455078125,3484,3884,929,-13,6,-154
165556472,0.5504150390625,0.4852294921875,0.39495849609375,0.552734375,3098,3904,923,-14,5,-155
165566456,0.56097412109375,0.47686767578125,0.40301513671875,0.54345703125,2792,3925,897,-14,4,-156
165576443,0.5712890625,0.468505859375,0.41082763671875,0.5340576171875,2546,3923,874,-13,3,-154
165586425,0.58111572265625,0.46026611328125,0.41839599609375,0.524658203125,2348,3935,826,-12,3,-150
165596407,0.5902099609375,0.45257568359375,0.4254150390625,0.5155029296875,2159,3945,795,-11,2,-141
165606392,0.59857177734375,0.44525146484375,0.43194580078125,0.5067138671875,1891,3933,799,-9,1,-132
165616368,0.60638427734375,0.438232421875,0.438232421875,0.498046875,1557,3937,818,-7,1,-127
165626348,0.61407470703125,0.43115234375,0.4444580078125,0.48919677734375,1251,3971,850,-5,1,-128
165636337,0.6217041015625,0.42401123046875,0.4508056640625,0.47991943359375,1016,4007,865,-4,0,-131
165646315,0.629150390625,0.41680908203125,0.457275390625,0.4703369140625,784,4057,873,-3,1,-132
165656296,0.6363525390625,0.4095458984375,0.4637451171875,0.46051025390625,517,4104,898,-1,1,-132
165666287,0.64337158203125,0.4022216796875,0.4703369140625,0.45050048828125,190,4138,960,1,1,-131
165676266,0.65020751953125,0.394775390625,0.47686767578125,0.4403076171875,-147,4154,1057,2,2,-131
165686250,0.6568603515625,0.38714599609375,0.4835205078125,0.4298095703125,-528,4152,1153,3,3,-132
165696238,0.6634521484375,0.37921142578125,0.49017333984375,0.4190673828125,-934,4157,1274,4,3,-133
165706220,0.669921875,0.37109375,0.49676513671875,0.408203125,-1345,4148,1394,4,4,-133
165716203,0.67608642578125,0.36279296875,0.5032958984375,0.3973388671875,-1735,4124,1511,4,5,-130
165726184,0.68182373046875,0.3546142578125,0.50958251953125,0.3868408203125,-2097,4081,1588,4,7,-125
165736176,0.686767578125,0.34686279296875,0.5155029296875,0.37701416015625,-2442,3990,1630,4,9,-114
165746159,0.69091796875,0.3397216796875,0.52105712890625,0.36822509765625,-2784,3899,1668,5,11,-100
165756135,0.69415283203125,0.3333740234375,0.52618408203125,0.36053466796875,-3136,3814,1709,6,13,-86
165766111,0.69671630859375,0.32757568359375,0.531005859375,0.35382080078125,-3531,3720,1746,6,15,-74
165776093,0.69866943359375,0.322265625,0.53564453125,0.34783935546875,-3932,3618,1796,6,17,-65
165786076,0.7001953125,0.317138671875,0.5401611328125,0.3424072265625,-4338,3503,1845,7,19,-59
165796060,0.701416015625,0.31219482421875,0.54461669921875,0.33746337890625,-4715,3391,1915,6,21,-53
165806045,0.70220947265625,0.3074951171875,0.54888916015625,0.3331298828125,-5071,3272,1978,6,23,-46
165816023,0.70257568359375,0.30316162109375,0.552978515625,0.32952880859375,-5389,3150,2036,5,25,-37
165826005,0.70245361328125,0.29937744140625,0.5567626953125,0.326904296875,-5690,3023,2100,5,26,-26
165835989,0.70184326171875,0.2962646484375,0.56011962890625,0.3253173828125,-5986,2904,2166,4,26,-13
165845978,0.70068359375,0.29400634765625,0.5628662109375,0.32501220703125,-6234,2790,2209,3,26,3
165855950,0.698974609375,0.29290771484375,0.56500244140625,0.32611083984375,-6417,2697,2248,3,25,20
165865934,0.69647216796875,0.29327392578125,0.56622314453125,0.32891845703125,-6513,2640,2263,4,24,42
165875916,0.693115234375,0.29522705078125,0.566650390625,0.33349609375,-6553,2592,2280,4,23,63
165885900,0.68902587890625,0.2987060546875,0.56622314453125,0.339599609375,-6557,2601,2277,5,22,82
165895882,0.68414306640625,0.30352783203125,0.56494140625,0.34710693359375,-6523,2634,2260,6,20,100
165905864,0.67864990234375,0.30950927734375,0.56304931640625,0.3555908203125,-6451,2695,2235,7,18,112
165915846,0.67279052734375,0.31634521484375,0.560546875,0.3646240234375,-6354,2766,2196,9,16,121
165925832,0.6666259765625,0.32373046875,0.5574951171875,0.3740234375,-6205,2828,2143,9,13,127
165935814,0.66021728515625,0.33160400390625,0.55401611328125,0.38348388671875,-5978,2889,2080,10,10,130
165945796,0.6536865234375,0.33990478515625,0.54998779296875,0.39312744140625,-5685,2982,2012,10,7,134
165955779,0.6468505859375,0.34869384765625,0.54541015625,0.40301513671875,-5303,3062,1936,10,5,138
165965767,0.6396484375,0.3580322265625,0.5401611328125,0.4132080078125,-4938,3136,1855,10,2,145
165975747,0.63201904296875,0.367919921875,0.53424072265625,0.42376708984375,-4507,3200,1739,10,-1,152
165985725,0.62384033203125,0.3785400390625,0.52764892578125,0.43475341796875,-4023,3255,1625,11,-3,160
165995703,0.614990234375,0.38983154296875,0.52020263671875,0.4461669921875,-3482,3289,1509,12,-6,168
166005685,0.60552978515625,0.4017333984375,0.51202392578125,0.4578857421875,-2925,3316,1403,12,-8,174
166015668,0.5955810546875,0.4139404296875,0.503173828125,0.46966552734375,-2361,3364,1304,13,-10,178
166025651,0.58514404296875,0.42633056640625,0.4940185546875,0.4813232421875,-1768,3430,1194,14,-10,178
166035632,0.5743408203125,0.43878173828125,0.4844970703125,0.49273681640625,-1111,3489,1010,15,-11,178
166045615,0.562744140625,0.45159912109375,0.47467041015625,0.50390625,-442,3546,816,17,-12,180
166055597,0.55059814453125,0.46466064453125,0.46441650390625,0.514892578125,91,3607,690,19,-13,183
166065582,0.53839111328125,0.47747802734375,0.4541015625,0.5252685546875,458,3702,645,21,-15,179
166075564,0.5264892578125,0.4896240234375,0.44390869140625,0.53466796875,829,3836,623,21,-16,169
166085546,0.51495361328125,0.50128173828125,0.43389892578125,0.54327392578125,1487,4018,512,21,-18,160
166095530,0.5030517578125,0.5130615234375,0.42352294921875,0.55157470703125,2392,4227,311,20,-18,159
166105514,0.48992919921875,0.525390625,0.4122314453125,0.56024169921875,3281,4409,85,21,-18,170
166115498,0.47552490234375,0.53826904296875,0.39990234375,0.56927490234375,3971,4550,-100,22,-19,184
166125480,0.4600830078125,0.55126953125,0.38677978515625,0.57861328125,4412,4678,-159,23,-18,194
166135462,0.44415283203125,0.56396484375,0.373046875,0.587646484375,4821,4803,-154,23,-19,196
166145444,0.4283447265625,0.57598876953125,0.35931396484375,0.59625244140625,5343,4970,-187,21,-18,190
166155425,0.41278076171875,0.58721923828125,0.34576416015625,0.604248046875,6080,5179,-284,19,-16,181
166165415,0.397216796875,0.59783935546875,0.33197021484375,0.6119384765625,7063,5374,-468,16,-14,178
166175397,0.380859375,0.6082763671875,0.317626953125,0.61968994140625,8019,5464,-724,15,-12,183
166185374,0.36358642578125,0.61834716796875,0.302490234375,0.6275634765625,8661,5483,-869,14,-9,192
166195356,0.34588623046875,0.6278076171875,0.2869873046875,0.63543701171875,8927,5441,-889,14,-7,197
166205344,0.3284912109375,0.63629150390625,0.271728515625,0.642822265625,8936,5381,-849,13,-5,193
166215322,0.31201171875,0.64373779296875,0.2572021484375,0.64959716796875,8860,5302,-719,11,-4,181
166225304,0.29681396484375,0.6500244140625,0.24359130859375,0.65570068359375,8986,5254,-644,8,-2,167
166235287,0.28240966796875,0.6556396484375,0.23028564453125,0.6612548828125,9349,5184,-654,5,-1,159
166245273,0.26806640625,0.66070556640625,0.21685791015625,0.66668701171875,9714,5063,-679,2,1,159
166255250,0.25341796875,0.66534423828125,0.20294189453125,0.67218017578125,9942,4828,-694,1,3,164
166265238,0.23834228515625,0.66961669921875,0.1884765625,0.6776123046875,9998,4522,-667,0,5,170
166275220,0.2227783203125,0.6734619140625,0.17364501953125,0.68304443359375,9827,4215,-585,1,6,175
166285205,0.2071533203125,0.67681884765625,0.158935546875,0.68817138671875,9464,3951,-410,2,6,175
166295184,0.1920166015625,0.67962646484375,0.1446533203125,0.69293212890625,8979,3757,-191,2,6,170
166305177,0.1776123046875,0.68194580078125,0.131103515625,0.697265625,8645,3598,41,1,5,162
166315160,0.16387939453125,0.683837890625,0.1177978515625,0.70111083984375,8663,3486,203,-1,4,158
166325133,0.150146484375,0.68560791015625,0.104248046875,0.70458984375,8822,3348,328,-2,2,160
166335109,0.13592529296875,0.68731689453125,0.08990478515625,0.707763671875,9035,3135,376,-4,1,168
166345090,0.120849609375,0.68890380859375,0.0745849609375,0.71075439453125,9218,2857,381,-5,1,177
166355075,0.10504150390625,0.6903076171875,0.0584716796875,0.71337890625,9221,2558,401,-5,-1,186
166365056,0.0888671875,0.6915283203125,0.0419921875,0.715576171875,9058,2243,446,-5,-2,189
166375037,0.072998046875,0.6923828125,0.02569580078125,0.71734619140625,8849,1934,510,-6,-4,185
166385020,0.0577392578125,0.6929931640625,0.00982666015625,0.718505859375,8858,1611,502,-7,-5,178
166395002,0.0428466796875,0.6934814453125,-0.005859375,0.7191162109375,9080,1280,445,-8,-7,175
166404990,0.02801513671875,0.69390869140625,-0.02166748046875,0.7191162109375,9337,901,375,-9,-9,176
166414972,0.01300048828125,0.69415283203125,-0.037841796875,0.7186279296875,9581,457,288,-11,-11,179
166424949,-0.00225830078125,0.6942138671875,-0.05438232421875,0.7176513671875,9787,4,179,-12,-12,183
166434930,-0.0177001953125,0.69403076171875,-0.0712890625,0.71612548828125,9928,-437,90,-13,-13,186
166444913,-0.03302001953125,0.69354248046875,-0.0885009765625,0.714111328125,10004,-858,-20,-15,-14,187
166454897,-0.048095703125,0.69281005859375,-0.10565185546875,0.711669921875,10079,-1292,-128,-17,-14,185
166464879,-0.06280517578125,0.6917724609375,-0.122802734375,0.708740234375,10251,-1724,-234,-19,-15,184
166474861,-0.0772705078125,0.69049072265625,-0.13995361328125,0.70538330078125,10468,-2141,-344,-21,-15,184
166484843,-0.09161376953125,0.68890380859375,-0.1572265625,0.70159912109375,10684,-2542,-444,-22,-15,186
166494824,-0.1058349609375,0.6868896484375,-0.17462158203125,0.6973876953125,10875,-2914,-548,-23,-15,188
166504808,-0.119873046875,0.6845703125,-0.19207763671875,0.69287109375,11059,-3266,-645,-25,-15,189
166514790,-0.13360595703125,0.68182373046875,-0.20947265625,0.68798828125,11180,-3594,-721,-26,-14,189
166524778,-0.14678955078125,0.6788330078125,-0.2264404296875,0.682861328125,11249,-3895,-792,-27,-14,184
166534762,-0.1590576171875,0.6756591796875,-0.24273681640625,0.67767333984375,11307,-4181,-838,-28,-12,176
166544744,-0.16998291015625,0.67236328125,-0.258056640625,0.67254638671875,11343,-4395,-852,-29,-11,164
166554728,-0.17950439453125,0.66925048828125,-0.27203369140625,0.667724609375,11316,-4554,-850,-30,-9,149
166564703,-0.1873779296875,0.66632080078125,-0.28436279296875,0.663330078125,11218,-4647,-839,-29,-7,130
166574686,-0.19354248046875,0.6636962890625,-0.29498291015625,0.6595458984375,11061,-4686,-803,-28,-5,110
166584669,-0.19793701171875,0.6614990234375,-0.3037109375,0.65643310546875,10888,-4646,-709,-27,-2,89
166594656,-0.20068359375,0.6597900390625,-0.31048583984375,0.6541748046875,10710,-4566,-536,-25,0,68
166604636,-0.20196533203125,0.658447265625,-0.3154296875,0.65277099609375,10528,-4447,-262,-22,1,48
166614618,-0.2020263671875,0.65753173828125,-0.31842041015625,0.65228271484375,10328,-4310,85,-18,2,30
166624600,-0.201171875,0.656982421875,-0.31964111328125,0.6524658203125,10142,-4174,469,-14,1,14
166634582,-0.19976806640625,0.65679931640625,-0.31939697265625,0.6531982421875,9939,-4037,846,-8,0,2
166644562,-0.1982421875,0.65692138671875,-0.31793212890625,0.65423583984375,9726,-3879,1171,-3,-3,-6
166654546,-0.1968994140625,0.6573486328125,-0.31549072265625,0.6553955078125,9536,-3657,1429,3,-6,-10
166664526,-0.1959228515625,0.6580810546875,-0.31231689453125,0.65643310546875,9403,-3408,1603,8,-11,-12
166674510,-0.19537353515625,0.65911865234375,-0.30853271484375,0.6573486328125,9382,-3134,1688,13,-15,-11
166684493,-0.19512939453125,0.660400390625,-0.3043212890625,0.65814208984375,9522,-2890,1664,17,-17,-11
166694475,-0.19500732421875,0.66180419921875,-0.29974365234375,0.65887451171875,9793,-2709,1564,19,-18,-11
166704456,-0.19464111328125,0.663330078125,-0.29473876953125,0.65966796875,10075,-2571,1379,21,-17,-15
166714443,-0.1937255859375,0.6650390625,-0.2891845703125,0.66070556640625,10341,-2466,1158,23,-15,-22
166724424,-0.1920166015625,0.6668701171875,-0.28289794921875,0.66204833984375,10578,-2397,899,23,-12,-32
166734409,-0.18927001953125,0.66900634765625,-0.27581787109375,0.6636962890625,10784,-2355,624,23,-9,-45
166744390,-0.18511962890625,0.67138671875,-0.267578125,0.66583251953125,10971,-2332,380,23,-6,-60
166754368,-0.17938232421875,0.674072265625,-0.258056640625,0.66845703125,11128,-2315,187,22,-3,-79
166764356,-0.17181396484375,0.67706298828125,-0.24700927734375,0.67156982421875,11288,-2301,43,20,0,-100
166774335,-0.162353515625,0.680419921875,-0.23443603515625,0.675048828125,11454,-2298,-114,19,3,-121
166784321,-0.15130615234375,0.683837890625,-0.2205810546875,0.67877197265625,11620,-2299,-261,18,5,-138
166794301,-0.13897705078125,0.68731689453125,-0.20574951171875,0.68255615234375,11782,-2353,-437,16,7,-151
166804287,-0.12579345703125,0.690673828125,-0.190185546875,0.686279296875,11936,-2450,-598,16,8,-161
166814268,-0.1119384765625,0.69378662109375,-0.1741943359375,0.689697265625,12066,-2575,-726,15,9,-169
166824250,-0.09771728515625,0.6966552734375,-0.1578369140625,0.69293212890625,12156,-2646,-783,14,10,-175
166834230,-0.08294677734375,0.69921875,-0.14117431640625,0.69586181640625,12163,-2671,-801,12,10,-181
166844222,-0.06781005859375,0.70147705078125,-0.124267578125,0.69842529296875,12131,-2636,-785,11,9,-185
166854203,-0.0523681640625,0.70343017578125,-0.107177734375,0.70062255859375,12087,-2601,-760,10,9,-189
166864182,-0.036865234375,0.70513916015625,-0.09014892578125,0.7022705078125,12081,-2573,-737,9,7,-190
166874176,-0.0216064453125,0.70660400390625,-0.0732421875,0.70343017578125,12082,-2525,-727,9,6,-189
166884157,-0.006591796875,0.707763671875,-0.0565185546875,0.7041015625,12116,-2451,-723,10,5,-188
166894134,0.00836181640625,0.708740234375,-0.039794921875,0.70428466796875,12132,-2334,-721,9,3,-190
166904112,0.02337646484375,0.70941162109375,-0.02294921875,0.7039794921875,12161,-2208,-737,10,2,-193
166914094,0.03863525390625,0.7098388671875,-0.00579833984375,0.70318603515625,12150,-2057,-739,10,1,-197
166924077,0.0540771484375,0.71002197265625,0.0115966796875,0.70196533203125,12084,-1893,-730,10,0,-202
166934059,0.06982421875,0.7098388671875,0.02935791015625,0.7001953125,11992,-1692,-696,10,-1,-206
166944045,0.08563232421875,0.70928955078125,0.047119140625,0.69805908203125,11898,-1461,-664,9,-2,-207
166954023,0.10125732421875,0.70843505859375,0.06475830078125,0.6954345703125,11823,-1215,-641,10,-3,-207
166964005,0.11663818359375,0.7071533203125,0.08221435546875,0.69244384765625,11744,-924,-623,10,-3,-205
166973989,0.13165283203125,0.70556640625,0.099365234375,0.68914794921875,11737,-633,-634,10,-3,-202
166983978,0.14617919921875,0.70367431640625,0.1160888671875,0.68548583984375,11751,-302,-659,10,-2,-198
166993952,0.16033935546875,0.70135498046875,0.1324462890625,0.68170166015625,11695,36,-641,10,-2,-195
167003936,0.17425537109375,0.69866943359375,0.14862060546875,0.677734375,11517,380,-612,9,-1,-194
167013923,0.1883544921875,0.69549560546875,0.16473388671875,0.6734619140625,11266,744,-539,8,0,-196
167023901,0.20269775390625,0.6917724609375,0.18096923828125,0.6689453125,10981,1115,-484,7,0,-199
167033885,0.21728515625,0.6875,0.19744873046875,0.66412353515625,10642,1502,-457,6,2,-202
167043871,0.2322998046875,0.6826171875,0.21405029296875,0.65887451171875,10296,1891,-422,5,2,-207
167053849,0.24761962890625,0.67718505859375,0.2308349609375,0.6531982421875,9929,2314,-391,3,2,-211
167063832,0.26336669921875,0.6712646484375,0.2476806640625,0.64697265625,9519,2721,-345,1,1,-214
167073815,0.27935791015625,0.66473388671875,0.264404296875,0.640380859375,9115,3133,-296,-1,1,-215
167083797,0.2952880859375,0.65777587890625,0.28057861328125,0.6334228515625,8777,3526,-244,-4,0,-213
167093779,0.31085205078125,0.65069580078125,0.2958984375,0.62628173828125,8466,3933,-242,-6,-2,-207
167103763,0.325927734375,0.64349365234375,0.31036376953125,0.6190185546875,8075,4302,-221,-8,-3,-200
167113747,0.34100341796875,0.63604736328125,0.32427978515625,0.6114501953125,7573,4601,-161,-11,-5,-198
167123730,0.3564453125,0.62811279296875,0.3380126953125,0.6033935546875,7031,4853,-98,-13,-6,-202
167133706,0.3724365234375,0.61944580078125,0.351806640625,0.5947265625,6515,5058,-35,-16,-7,-209
167143689,0.38885498046875,0.6102294921875,0.365478515625,0.58544921875,6152,5248,-21,-18,-9,-213
167153670,0.40496826171875,0.60076904296875,0.378662109375,0.57586669921875,5892,5428,-49,-20,-10,-211
167163652,0.4205322265625,0.59124755859375,0.39093017578125,0.56622314453125,5570,5574,-72,-21,-11,-204
167173635,0.43560791015625,0.58172607421875,0.4024658203125,0.5565185546875,5162,5662,-79,-22,-12,-198
167183619,0.45037841796875,0.57208251953125,0.41339111328125,0.54669189453125,4716,5721,-57,-24,-14,-195
167193602,0.46514892578125,0.56207275390625,0.4239501953125,0.5364990234375,4259,5763,-33,-25,-15,-194
167203584,0.47967529296875,0.55181884765625,0.43426513671875,0.52606201171875,3830,5819,-11,-26,-15,-194
167213567,0.49395751953125,0.54132080078125,0.44403076171875,0.51544189453125,3471,5873,-13,-27,-16,-191
167223550,0.5076904296875,0.53082275390625,0.4532470703125,0.5048828125,3170,5937,-32,-27,-15,-186
167233536,0.52069091796875,0.52056884765625,0.461669921875,0.49456787109375,2873,5953,-71,-28,-16,-177
167243513,0.53302001953125,0.5106201171875,0.46929931640625,0.48455810546875,2545,5936,-69,-28,-17,-169
167253495,0.54473876953125,0.5008544921875,0.476318359375,0.4747314453125,2178,5872,-35,-27,-17,-162
167263480,0.55609130859375,0.4912109375,0.4827880859375,0.46502685546875,1811,5782,17,-27,-18,-156
167273465,0.56707763671875,0.4815673828125,0.48895263671875,0.455322265625,1485,5670,54,-28,-18,-154
167283447,0.577880859375,0.47174072265625,0.494873046875,0.445556640625,1185,5573,78,-28,-18,-153
167293427,0.58843994140625,0.46173095703125,0.5006103515625,0.43560791015625,927,5493,79,-28,-18,-154
167303417,0.5987548828125,0.45172119140625,0.50616455078125,0.425537109375,701,5410,82,-28,-18,-152
167313399,0.6087646484375,0.44171142578125,0.51141357421875,0.41546630859375,436,5314,86,-28,-19,-149
167323383,0.61834716796875,0.43182373046875,0.516357421875,0.40545654296875,114,5179,122,-27,-19,-145
167333359,0.62774658203125,0.42193603515625,0.52093505859375,0.3953857421875,-256,5031,210,-26,-20,-142
167343344,0.636962890625,0.412109375,0.5252685546875,0.38531494140625,-562,4926,246,-26,-21,-140
167353327,0.64569091796875,0.40252685546875,0.5291748046875,0.3753662109375,-760,4812,235,-25,-21,-135
167363307,0.6539306640625,0.39349365234375,0.5325927734375,0.36572265625,-900,4709,224,-24,-23,-128
167373291,0.66156005859375,0.38507080078125,0.53558349609375,0.35650634765625,-1063,4608,212,-22,-23,-120
167383275,0.66864013671875,0.377197265625,0.5382080078125,0.34759521484375,-1260,4500,242,-19,-23,-113
167393257,0.6754150390625,0.36968994140625,0.5406494140625,0.3387451171875,-1486,4370,313,-16,-23,-109
167403236,0.681884765625,0.36236572265625,0.54302978515625,0.3297119140625,-1747,4246,416,-14,-23,-108
167413227,0.68829345703125,0.35504150390625,0.54541015625,0.3203125,-2022,4138,513,-11,-24,-110
167423210,0.6947021484375,0.3475341796875,0.54791259765625,0.31036376953125,-2323,4041,626,-9,-24,-114
167433199,0.70111083984375,0.3397216796875,0.550537109375,0.29974365234375,-2651,3945,746,-7,-25,-118
167443184,0.7073974609375,0.33184814453125,0.55316162109375,0.2886962890625,-2981,3854,851,-5,-25,-120
167453167,0.71343994140625,0.3240966796875,0.5557861328125,0.27740478515625,-3258,3716,949,-3,-25,-119
167463151,0.7191162109375,0.316650390625,0.5582275390625,0.26629638671875,-3510,3545,1061,0,-24,-112
167473120,0.72430419921875,0.30975341796875,0.56036376953125,0.25567626953125,-3740,3396,1222,1,-23,-105
167483103,0.72900390625,0.3031005859375,0.562255859375,0.24578857421875,-3950,3283,1450,1,-19,-98
167493085,0.73321533203125,0.29656982421875,0.56414794921875,0.23687744140625,-4129,3211,1713,-2,-14,-91
167503066,0.73687744140625,0.289794921875,0.5660400390625,0.22918701171875,-4269,3136,2030,-7,-6,-83
167513053,0.7398681640625,0.28289794921875,0.56793212890625,0.22332763671875,-4388,3039,2348,-14,4,-70
167523031,0.741943359375,0.27630615234375,0.56982421875,0.22003173828125,-4552,2870,2578,-22,14,-48
167533011,0.7427978515625,0.27044677734375,0.5716552734375,0.21966552734375,-4784,2595,2635,-28,23,-21
167542996,0.74237060546875,0.2659912109375,0.57318115234375,0.22247314453125,-5086,2295,2566,-32,29,10
167552983,0.74072265625,0.26336669921875,0.57427978515625,0.22821044921875,-5407,2015,2431,-34,34,42
167562958,0.73797607421875,0.26263427734375,0.57470703125,0.23663330078125,-5723,1755,2253,-33,35,72
167572941,0.7342529296875,0.2637939453125,0.57452392578125,0.24713134765625,-5971,1521,2066,-31,36,97
167582923,0.72967529296875,0.266845703125,0.5736083984375,0.25927734375,-6100,1343,1859,-28,34,119
167592906,0.72430419921875,0.271484375,0.572021484375,0.272705078125,-6074,1218,1661,-24,33,136
167602888,0.7181396484375,0.2777099609375,0.56982421875,0.28704833984375,-5946,1141,1488,-18,32,149
167612873,0.71124267578125,0.28509521484375,0.567138671875,0.30181884765625,-5787,1128,1351,-14,30,159
167622856,0.70379638671875,0.2933349609375,0.5640869140625,0.31671142578125,-5601,1193,1265,-8,29,165
167632839,0.69586181640625,0.30230712890625,0.56060791015625,0.33160400390625,-5424,1338,1220,-4,27,168
167642824,0.68768310546875,0.311767578125,0.55682373046875,0.34613037109375,-5254,1570,1215,0,24,169
167652803,0.67926025390625,0.3214111328125,0.5526123046875,0.36029052734375,-5119,1861,1255,2,21,168
167662786,0.67083740234375,0.33123779296875,0.54791259765625,0.37408447265625,-4971,2160,1320,3,18,168
167672765,0.6622314453125,0.3414306640625,0.54266357421875,0.3876953125,-4735,2444,1376,5,14,170
167682757,0.6533203125,0.35205078125,0.53662109375,0.4013671875,-4410,2663,1419,6,10,176
167692740,0.64404296875,0.3634033203125,0.52972412109375,0.415283203125,-4046,2873,1436,6,6,182
167702715,0.6343994140625,0.375,0.522216796875,0.4290771484375,-3710,3078,1482,7,2,184
167712700,0.6248779296875,0.38641357421875,0.51422119140625,0.44232177734375,-3405,3296,1553,7,-1,179
167722679,0.61566162109375,0.39739990234375,0.50604248046875,0.45477294921875,-3051,3531,1592,6,-4,171
167732663,0.60675048828125,0.40789794921875,0.49761962890625,0.46661376953125,-2668,3731,1626,5,-7,165
167742645,0.5977783203125,0.41845703125,0.48870849609375,0.4781494140625,-2186,3909,1623,4,-10,166
167752629,0.58819580078125,0.42962646484375,0.47894287109375,0.48992919921875,-1632,4051,1589,4,-13,175
167762610,0.57769775390625,0.44146728515625,0.46807861328125,0.50213623046875,-1180,4154,1557,5,-16,186
167772591,0.5667724609375,0.4534912109375,0.45660400390625,0.5142822265625,-919,4257,1575,5,-19,189
167782575,0.55615234375,0.46502685546875,0.44488525390625,0.5257568359375,-670,4377,1606,3,-22,182
167792558,0.5460205078125,0.475830078125,0.4332275390625,0.5362548828125,-205,4538,1567,1,-24,171
167802540,0.5361328125,0.4864501953125,0.42138671875,0.546142578125,530,4710,1434,0,-26,164
167812523,0.52581787109375,0.4971923828125,0.408935546875,0.55584716796875,1329,4818,1240,-1,-28,167
167822503,0.5145263671875,0.5084228515625,0.39569091796875,0.56573486328125,2002,4809,1047,-1,-28,176
167832488,0.50213623046875,0.52001953125,0.38153076171875,0.57598876953125,2462,4766,948,1,-29,190
167842469,0.48876953125,0.53173828125,0.366455078125,0.58648681640625,2775,4731,909,1,-30,199
167852454,0.47491455078125,0.543212890625,0.35101318359375,0.5966796875,3106,4734,886,1,-31,201
167862433,0.46075439453125,0.554443359375,0.3350830078125,0.6065673828125,3775,4865,795,-1,-31,200
167872423,0.4459228515625,0.56549072265625,0.31842041015625,0.6163330078125,4802,5116,633,-4,-30,203
167882406,0.42987060546875,0.57659912109375,0.300537109375,0.6263427734375,5956,5338,414,-6,-28,213
167892387,0.41241455078125,0.58746337890625,0.28143310546875,0.63677978515625,6870,5417,254,-9,-25,225
167902364,0.39410400390625,0.5975341796875,0.26141357421875,0.6474609375,7372,5374,206,-11,-20,234
167912345,0.37554931640625,0.6064453125,0.2412109375,0.657958984375,7629,5220,223,-14,-16,235
167922330,0.35723876953125,0.614013671875,0.22125244140625,0.6680908203125,7849,5029,267,-16,-12,229
167932312,0.3394775390625,0.620361328125,0.2017822265625,0.67755126953125,8328,4829,234,-19,-7,218
167942294,0.3218994140625,0.62579345703125,0.18255615234375,0.6865234375,9048,4629,124,-20,-2,212
167952279,0.30401611328125,0.63043212890625,0.16326904296875,0.69525146484375,9745,4409,24,-21,2,212
167962263,0.285888671875,0.6341552734375,0.14404296875,0.7037353515625,10156,4152,-27,-21,7,213
167972250,0.26800537109375,0.63677978515625,0.125244140625,0.7119140625,10162,3848,31,-21,12,208
167982234,0.25103759765625,0.63836669921875,0.10748291015625,0.7196044921875,9915,3542,156,-21,14,198
167992216,0.2353515625,0.63897705078125,0.09100341796875,0.7265625,9570,3238,270,-21,16,182
168002199,0.2210693359375,0.63909912109375,0.0758056640625,0.732666015625,9454,2918,333,-21,16,166
168012180,0.20758056640625,0.63909912109375,0.06121826171875,0.73797607421875,9768,2638,350,-21,13,157
168022171,0.1939697265625,0.6392822265625,0.04669189453125,0.7425537109375,10133,2427,371,-20,10,159
168032153,0.17974853515625,0.6395263671875,0.03155517578125,0.74676513671875,10273,2220,458,-19,6,168
168042123,0.16497802734375,0.63970947265625,0.0159912109375,0.75048828125,10169,2050,595,-20,2,174
168052108,0.150146484375,0.6397705078125,0.0001220703125,0.75372314453125,9941,1930,773,-21,-2,176
168062087,0.1357421875,0.63970947265625,-0.01568603515625,0.75628662109375,9776,1823,960,-24,-5,174
168072070,0.12200927734375,0.63958740234375,-0.03155517578125,0.75823974609375,9926,1663,1107,-28,-9,169
168082051,0.108642578125,0.63946533203125,-0.047607421875,0.759521484375,10339,1483,1259,-31,-12,169
168092033,0.09527587890625,0.63934326171875,-0.0640869140625,0.76025390625,10730,1242,1393,-34,-15,170
168102014,0.0821533203125,0.6390380859375,-0.08074951171875,0.76043701171875,10911,931,1500,-37,-17,169
168111997,0.06976318359375,0.63861083984375,-0.09722900390625,0.76007080078125,10869,608,1539,-39,-19,162
168121985,0.05859375,0.63818359375,-0.1129150390625,0.75927734375,10619,286,1568,-42,-20,149
168134989,0.049072265625,0.6376953125,-0.1275634765625,0.75799560546875,10312,-24,1583,-44,-21,132
168141945,0.04132080078125,0.63739013671875,-0.1407470703125,0.75640869140625,10086,-333,1572,-45,-21,113
168151928,0.03497314453125,0.63726806640625,-0.1529541015625,0.75445556640625,10005,-635,1560,-45,-22,100
168161912,0.02947998046875,0.63726806640625,-0.1641845703125,0.7523193359375,9982,-922,1564,-44,-22,92
168171894,0.02410888671875,0.63726806640625,-0.1751708984375,0.75006103515625,9954,-1227,1552,-43,-23,90
168181878,0.0185546875,0.63720703125,-0.1859130859375,0.74761962890625,9878,-1504,1547,-41,-24,91
168191861,0.01251220703125,0.6370849609375,-0.19671630859375,0.7451171875,9741,-1773,1531,-39,-25,95
168201842,0.0059814453125,0.63677978515625,-0.20770263671875,0.742431640625,9583,-2009,1517,-38,-26,98
168211826,-0.0009765625,0.63629150390625,-0.21868896484375,0.73974609375,9515,-2250,1530,-36,-26,102
168221808,-0.00836181640625,0.63555908203125,-0.22979736328125,0.7369384765625,9576,-2535,1542,-35,-26,106
168231791,-0.0162353515625,0.63458251953125,-0.24102783203125,0.734130859375,9663,-2806,1537,-33,-26,111
168241778,-0.024658203125,0.6331787109375,-0.25244140625,0.731201171875,9726,-3088,1493,-31,-24,115
168251762,-0.0335693359375,0.6314697265625,-0.26385498046875,0.728271484375,9759,-3363,1399,-29,-23,119
168261743,-0.04278564453125,0.62945556640625,-0.27520751953125,0.725341796875,9791,-3630,1274,-27,-21,121
168271727,-0.05206298828125,0.627197265625,-0.28619384765625,0.72247314453125,9774,-3873,1171,-24,-19,120
168281702,-0.06109619140625,0.6246337890625,-0.2967529296875,0.7197265625,9735,-4087,1086,-22,-17,116
168291685,-0.06964111328125,0.62200927734375,-0.306640625,0.717041015625,9682,-4274,1003,-20,-15,110
168301669,-0.07745361328125,0.61944580078125,-0.31561279296875,0.714599609375,9614,-4412,960,-18,-13,101
168311650,-0.08447265625,0.616943359375,-0.32354736328125,0.71240234375,9541,-4500,982,-17,-12,91
168321634,-0.09075927734375,0.6146240234375,-0.33062744140625,0.71038818359375,9430,-4598,1040,-15,-11,82
168331619,-0.096435546875,0.61248779296875,-0.3367919921875,0.70855712890625,9284,-4683,1124,-13,-11,74
168341601,-0.10162353515625,0.61065673828125,-0.3421630859375,0.70684814453125,9137,-4768,1212,-11,-12,67
168351582,-0.1065673828125,0.609130859375,-0.3468017578125,0.7052001953125,8965,-4860,1296,-9,-15,61
168361566,-0.11126708984375,0.6080322265625,-0.3507080078125,0.7034912109375,8763,-4933,1372,-6,-18,54
168371549,-0.11566162109375,0.6075439453125,-0.3536376953125,0.70172119140625,8551,-5002,1426,-3,-22,44
168381536,-0.11962890625,0.60772705078125,-0.35546875,0.699951171875,8328,-5071,1519,0,-26,34
168391510,-0.12310791015625,0.608642578125,-0.35595703125,0.69830322265625,8109,-5168,1580,5,-30,21
168401493,-0.12603759765625,0.61041259765625,-0.35498046875,0.69671630859375,7965,-5299,1569,11,-34,8
