subject,Joshua Spiesman
arm,left
label,1
hz,100.17551631121604
time,4.542028

timestamp_us,q0,q1,q2,q3,ax,ay,az,gx,gy,gz
123320457,0.73150634765625,-0.49072265625,0.4447021484375,-0.16217041015625,-4757,-6177,1322,-3,3,-18
123330435,0.7310791015625,-0.49151611328125,0.4439697265625,-0.16357421875,-4697,-6106,1404,-3,3,-20
123340426,0.73065185546875,-0.4923095703125,0.4432373046875,-0.1651611328125,-4603,-6026,1500,-4,3,-21
123350410,0.730224609375,-0.49322509765625,0.4423828125,-0.16668701171875,-4507,-5973,1604,-5,2,-20
123360393,0.72979736328125,-0.49407958984375,0.44158935546875,-0.16802978515625,-4413,-5921,1716,-5,2,-18
123370369,0.72943115234375,-0.49481201171875,0.44091796875,-0.16912841796875,-4341,-5878,1828,-6,2,-16
123380351,0.7291259765625,-0.49554443359375,0.4403076171875,-0.169921875,-4266,-5861,1902,-7,2,-13
123390332,0.728759765625,-0.4962158203125,0.43994140625,-0.17047119140625,-4193,-5823,1953,-8,2,-11
123400316,0.7283935546875,-0.49688720703125,0.439697265625,-0.1707763671875,-4136,-5805,2006,-10,2,-9
123410299,0.72796630859375,-0.49761962890625,0.43951416015625,-0.17095947265625,-4063,-5794,2034,-10,2,-8
123420283,0.7274169921875,-0.49847412109375,0.43939208984375,-0.171142578125,-4001,-5790,2066,-12,2,-8
123430264,0.72686767578125,-0.49932861328125,0.43927001953125,-0.17132568359375,-3995,-5798,2119,-12,3,-9
123440245,0.72625732421875,-0.50030517578125,0.439208984375,-0.17144775390625,-4007,-5812,2149,-13,3,-9
123450237,0.72552490234375,-0.50128173828125,0.43914794921875,-0.17144775390625,-4017,-5865,2178,-14,3,-8
123460218,0.724853515625,-0.5023193359375,0.43914794921875,-0.17132568359375,-4020,-5919,2178,-15,2,-7
123470206,0.72418212890625,-0.5032958984375,0.439208984375,-0.17108154296875,-4007,-5998,2158,-15,2,-6
123480191,0.72344970703125,-0.50439453125,0.439208984375,-0.1708984375,-3961,-6115,2117,-15,2,-6
123490174,0.72265625,-0.50567626953125,0.4390869140625,-0.17083740234375,-3862,-6218,2039,-15,2,-8
123500155,0.72161865234375,-0.50726318359375,0.43878173828125,-0.17132568359375,-3709,-6338,1904,-15,3,-13
123510125,0.7203369140625,-0.50921630859375,0.43817138671875,-0.17254638671875,-3525,-6467,1748,-14,5,-19
123520108,0.71881103515625,-0.511474609375,0.437255859375,-0.17462158203125,-3346,-6582,1613,-13,7,-27
123530090,0.717041015625,-0.513916015625,0.43609619140625,-0.1776123046875,-3255,-6648,1586,-12,9,-33
123540071,0.71527099609375,-0.5162353515625,0.4349365234375,-0.1807861328125,-3194,-6675,1574,-11,11,-34
123550055,0.71356201171875,-0.51837158203125,0.43389892578125,-0.183837890625,-3099,-6683,1506,-11,11,-31
123560039,0.71185302734375,-0.52032470703125,0.43310546875,-0.186767578125,-3000,-6666,1488,-10,12,-28
123570019,0.7103271484375,-0.52197265625,0.43255615234375,-0.1893310546875,-2927,-6667,1490,-9,12,-24
123580002,0.708984375,-0.52325439453125,0.43231201171875,-0.19146728515625,-2866,-6708,1461,-9,11,-18
123589991,0.707763671875,-0.52423095703125,0.432373046875,-0.193115234375,-2813,-6784,1394,-8,11,-12
123599967,0.7066650390625,-0.52490234375,0.43280029296875,-0.1942138671875,-2770,-6871,1317,-8,10,-6
123609950,0.70574951171875,-0.52532958984375,0.4334716796875,-0.19488525390625,-2749,-6940,1223,-7,9,-2
123619940,0.7049560546875,-0.52569580078125,0.43426513671875,-0.19525146484375,-2737,-6976,1126,-7,8,0
123629921,0.7042236328125,-0.5260009765625,0.4349365234375,-0.19561767578125,-2720,-6994,1033,-6,8,-1
123639898,0.70343017578125,-0.5264892578125,0.435302734375,-0.1961669921875,-2693,-6985,927,-6,6,-4
123649881,0.70257568359375,-0.52734375,0.435302734375,-0.1971435546875,-2655,-6978,844,-6,5,-10
123659862,0.7015380859375,-0.528564453125,0.4346923828125,-0.1986083984375,-2591,-6972,752,-6,4,-17
123669845,0.7003173828125,-0.5303955078125,0.43353271484375,-0.20062255859375,-2509,-7012,645,-7,3,-25
123679831,0.6988525390625,-0.53271484375,0.431884765625,-0.20318603515625,-2424,-7059,525,-8,2,-32
123689812,0.697265625,-0.535400390625,0.42974853515625,-0.20611572265625,-2335,-7095,408,-8,1,-37
123699796,0.6954345703125,-0.53851318359375,0.42724609375,-0.2093505859375,-2247,-7115,274,-9,0,-42
123709784,0.69342041015625,-0.5419921875,0.4244384765625,-0.21270751953125,-2145,-7120,137,-11,-2,-45
123719765,0.6912841796875,-0.54583740234375,0.4212646484375,-0.21612548828125,-2033,-7122,-4,-12,-3,-48
123729748,0.68896484375,-0.5499267578125,0.41790771484375,-0.219482421875,-1940,-7126,-151,-13,-5,-50
123739723,0.68658447265625,-0.55426025390625,0.4144287109375,-0.22271728515625,-1856,-7166,-315,-15,-7,-50
123749707,0.6842041015625,-0.5587158203125,0.410888671875,-0.22552490234375,-1781,-7223,-484,-16,-9,-48
123759687,0.68182373046875,-0.5631103515625,0.40753173828125,-0.22784423828125,-1714,-7263,-632,-17,-11,-45
123769670,0.67950439453125,-0.5675048828125,0.40423583984375,-0.22955322265625,-1658,-7308,-790,-19,-14,-40
123779652,0.6773681640625,-0.5718994140625,0.401123046875,-0.23065185546875,-1587,-7372,-945,-20,-16,-36
123789636,0.67523193359375,-0.57623291015625,0.39813232421875,-0.23114013671875,-1531,-7413,-1104,-21,-18,-32
123799617,0.6732177734375,-0.58062744140625,0.395263671875,-0.2310791015625,-1470,-7427,-1255,-23,-21,-28
123809602,0.6712646484375,-0.5850830078125,0.39227294921875,-0.2305908203125,-1430,-7452,-1378,-24,-24,-28
123819582,0.66937255859375,-0.589599609375,0.38909912109375,-0.22998046875,-1397,-7481,-1485,-24,-25,-28
123829564,0.66741943359375,-0.59429931640625,0.3857421875,-0.229248046875,-1368,-7506,-1561,-24,-28,-29
123839546,0.66552734375,-0.59906005859375,0.38201904296875,-0.22857666015625,-1351,-7564,-1609,-25,-29,-31
123849531,0.66363525390625,-0.6038818359375,0.378173828125,-0.227783203125,-1361,-7646,-1653,-25,-31,-32
123859513,0.66180419921875,-0.60870361328125,0.37408447265625,-0.22686767578125,-1352,-7754,-1689,-24,-32,-32
123869496,0.66015625,-0.61346435546875,0.3699951171875,-0.22576904296875,-1338,-7871,-1729,-24,-34,-30
123879482,0.6585693359375,-0.6180419921875,0.365966796875,-0.22442626953125,-1320,-8023,-1786,-24,-35,-27
123889461,0.65716552734375,-0.62249755859375,0.36199951171875,-0.22271728515625,-1302,-8177,-1845,-23,-36,-24
123899449,0.6558837890625,-0.62677001953125,0.35821533203125,-0.22064208984375,-1308,-8344,-1896,-22,-37,-21
123909432,0.65478515625,-0.63079833984375,0.35455322265625,-0.21826171875,-1367,-8531,-1940,-22,-38,-18
123919415,0.65386962890625,-0.63458251953125,0.35107421875,-0.215576171875,-1443,-8703,-1966,-21,-39,-16
123929398,0.65313720703125,-0.63824462890625,0.34747314453125,-0.2127685546875,-1517,-8865,-1975,-20,-40,-16
123939374,0.65252685546875,-0.641845703125,0.34381103515625,-0.20989990234375,-1592,-9029,-1996,-19,-41,-15
123949357,0.6519775390625,-0.645263671875,0.340087890625,-0.2069091796875,-1659,-9161,-2040,-17,-42,-15
123959339,0.65167236328125,-0.6485595703125,0.33624267578125,-0.20391845703125,-1722,-9268,-2080,-15,-43,-15
123969322,0.65155029296875,-0.6517333984375,0.33221435546875,-0.20086669921875,-1770,-9344,-2117,-14,-45,-15
123979305,0.65155029296875,-0.65478515625,0.32806396484375,-0.19769287109375,-1788,-9369,-2112,-12,-46,-15
123989293,0.65179443359375,-0.65765380859375,0.32379150390625,-0.19451904296875,-1789,-9324,-2101,-11,-47,-15
123999272,0.65203857421875,-0.66046142578125,0.3193359375,-0.19134521484375,-1782,-9248,-2088,-10,-48,-16
124009256,0.65240478515625,-0.6632080078125,0.314697265625,-0.188232421875,-1749,-9157,-2079,-9,-48,-17
124019244,0.65283203125,-0.66595458984375,0.30999755859375,-0.18505859375,-1717,-9045,-2050,-8,-49,-17
124029226,0.65338134765625,-0.66851806640625,0.30517578125,-0.18182373046875,-1665,-8924,-1977,-8,-50,-15
124039206,0.6539306640625,-0.67095947265625,0.300537109375,-0.17852783203125,-1617,-8800,-1894,-8,-49,-14
124049188,0.654541015625,-0.67327880859375,0.2960205078125,-0.175048828125,-1589,-8666,-1797,-8,-49,-12
124059178,0.65521240234375,-0.67547607421875,0.2916259765625,-0.1715087890625,-1565,-8543,-1710,-8,-49,-11
124069159,0.65576171875,-0.6776123046875,0.287353515625,-0.16778564453125,-1554,-8476,-1655,-9,-48,-9
124079130,0.6563720703125,-0.67974853515625,0.2833251953125,-0.1639404296875,-1548,-8443,-1627,-9,-48,-7
124089112,0.65692138671875,-0.68170166015625,0.2796630859375,-0.1597900390625,-1544,-8405,-1618,-9,-48,-3
124101995,0.65740966796875,-0.68359375,0.2763671875,-0.1552734375,-1552,-8362,-1611,-10,-48,2
124109078,0.65789794921875,-0.68536376953125,0.27337646484375,-0.1505126953125,-1536,-8304,-1594,-12,-47,5
124119059,0.65838623046875,-0.68707275390625,0.2706298828125,-0.1455078125,-1547,-8242,-1555,-12,-47,7
124129041,0.6588134765625,-0.688720703125,0.26806640625,-0.140380859375,-1544,-8189,-1508,-13,-46,9
124139024,0.6591796875,-0.69036865234375,0.265625,-0.13525390625,-1548,-8134,-1480,-14,-45,9
124149006,0.65936279296875,-0.692138671875,0.26318359375,-0.1302490234375,-1544,-8069,-1456,-15,-45,8
124158996,0.65936279296875,-0.6939697265625,0.26055908203125,-0.12548828125,-1534,-8034,-1430,-15,-44,5
124168976,0.6593017578125,-0.69586181640625,0.25775146484375,-0.1209716796875,-1529,-8016,-1416,-16,-43,3
124178953,0.6591796875,-0.69781494140625,0.2547607421875,-0.11669921875,-1545,-8022,-1400,-16,-43,0
124188934,0.65899658203125,-0.69976806640625,0.251708984375,-0.1126708984375,-1577,-8037,-1386,-16,-42,-1
124198917,0.65875244140625,-0.70172119140625,0.24859619140625,-0.1087646484375,-1591,-8072,-1375,-16,-41,-3
124208899,0.658447265625,-0.70367431640625,0.24542236328125,-0.10504150390625,-1594,-8131,-1396,-15,-40,-3
124218881,0.65814208984375,-0.70556640625,0.24237060546875,-0.101318359375,-1578,-8200,-1405,-16,-40,-2
124228864,0.6578369140625,-0.7073974609375,0.23944091796875,-0.09759521484375,-1565,-8254,-1410,-15,-39,-1
124238854,0.65753173828125,-0.7091064453125,0.236572265625,-0.0938720703125,-1547,-8315,-1395,-15,-38,0
124248831,0.6573486328125,-0.710693359375,0.2337646484375,-0.09027099609375,-1532,-8399,-1358,-14,-38,0
124258815,0.6571044921875,-0.71221923828125,0.23101806640625,-0.08685302734375,-1501,-8489,-1340,-13,-36,-1
124268794,0.65692138671875,-0.71368408203125,0.22808837890625,-0.08367919921875,-1475,-8579,-1313,-12,-35,-3
124278773,0.65679931640625,-0.715087890625,0.22503662109375,-0.0809326171875,-1446,-8699,-1292,-11,-34,-6
124288765,0.65667724609375,-0.71649169921875,0.22186279296875,-0.07855224609375,-1421,-8822,-1278,-10,-33,-9
124298749,0.65655517578125,-0.71783447265625,0.21844482421875,-0.07659912109375,-1397,-8935,-1277,-9,-31,-12
124308723,0.65655517578125,-0.71917724609375,0.21484375,-0.074951171875,-1360,-9006,-1270,-8,-30,-15
124318708,0.65655517578125,-0.72039794921875,0.21099853515625,-0.07373046875,-1301,-9068,-1261,-6,-29,-18
124328693,0.65667724609375,-0.7215576171875,0.2069091796875,-0.072998046875,-1220,-9142,-1235,-5,-28,-22
124338674,0.6568603515625,-0.72265625,0.20257568359375,-0.07275390625,-1110,-9241,-1197,-3,-27,-25
124348654,0.65716552734375,-0.72369384765625,0.1978759765625,-0.07281494140625,-988,-9448,-1143,-2,-26,-27
124358641,0.6575927734375,-0.72454833984375,0.193115234375,-0.07318115234375,-886,-9736,-1093,0,-26,-28
124368621,0.6580810546875,-0.72528076171875,0.18841552734375,-0.0736083984375,-819,-10055,-1088,1,-25,-28
124378603,0.65869140625,-0.725830078125,0.18377685546875,-0.0740966796875,-788,-10328,-1095,3,-24,-28
124388586,0.659423828125,-0.72637939453125,0.1788330078125,-0.0748291015625,-749,-10520,-1114,4,-24,-33
124398570,0.66009521484375,-0.7269287109375,0.17315673828125,-0.076416015625,-642,-10638,-1109,7,-23,-43
124408552,0.66082763671875,-0.72760009765625,0.16619873046875,-0.07928466796875,-480,-10725,-1076,8,-23,-58
124418534,0.66156005859375,-0.72833251953125,0.15765380859375,-0.08355712890625,-258,-10861,-1032,10,-23,-74
124428516,0.6622314453125,-0.7291259765625,0.14776611328125,-0.0892333984375,-34,-11097,-951,13,-22,-89
124438500,0.66290283203125,-0.72979736328125,0.1368408203125,-0.095947265625,171,-11359,-873,14,-21,-99
124448481,0.66363525390625,-0.730224609375,0.12518310546875,-0.1033935546875,375,-11564,-779,17,-21,-108
124458465,0.66436767578125,-0.73040771484375,0.11297607421875,-0.11138916015625,602,-11721,-727,20,-20,-114
124468449,0.6650390625,-0.73028564453125,0.1002197265625,-0.11981201171875,860,-11799,-684,22,-20,-119
124478437,0.6656494140625,-0.7298583984375,0.08697509765625,-0.12884521484375,1178,-11829,-621,25,-19,-125
124488419,0.666259765625,-0.7291259765625,0.0732421875,-0.1383056640625,1503,-11815,-585,27,-19,-129
124498402,0.66668701171875,-0.72808837890625,0.05926513671875,-0.14801025390625,1793,-11747,-520,29,-18,-133
124508380,0.6671142578125,-0.72662353515625,0.0450439453125,-0.157958984375,2083,-11645,-414,30,-17,-135
124518362,0.66741943359375,-0.72479248046875,0.03082275390625,-0.16802978515625,2373,-11554,-328,32,-17,-136
124528343,0.667724609375,-0.72259521484375,0.01678466796875,-0.17803955078125,2660,-11439,-253,34,-15,-134
124538326,0.66790771484375,-0.7200927734375,0.00299072265625,-0.18792724609375,2941,-11326,-188,35,-14,-133
124548308,0.66802978515625,-0.71728515625,-0.01068115234375,-0.19781494140625,3235,-11171,-130,36,-13,-132
124558293,0.66796875,-0.71417236328125,-0.0242919921875,-0.20782470703125,3504,-10973,-67,36,-11,-134
124568274,0.66766357421875,-0.71075439453125,-0.03814697265625,-0.21832275390625,3756,-10732,25,37,-9,-139
124578256,0.66693115234375,-0.70697021484375,-0.05242919921875,-0.2294921875,3998,-10504,97,36,-7,-147
124588237,0.66571044921875,-0.70294189453125,-0.0670166015625,-0.2413330078125,4229,-10277,161,36,-4,-154
124598227,0.66412353515625,-0.69854736328125,-0.081787109375,-0.25372314453125,4464,-10047,209,35,-2,-159
124608212,0.662109375,-0.69378662109375,-0.09649658203125,-0.26641845703125,4688,-9811,224,35,1,-161
124618192,0.6597900390625,-0.68878173828125,-0.11102294921875,-0.27923583984375,4906,-9536,245,35,3,-161
124628184,0.6572265625,-0.68341064453125,-0.12518310546875,-0.29205322265625,5068,-9209,280,35,6,-161
124638165,0.65435791015625,-0.677734375,-0.13916015625,-0.30511474609375,5211,-8856,318,34,9,-163
124648143,0.651123046875,-0.6717529296875,-0.15301513671875,-0.31842041015625,5316,-8539,360,32,11,-166
124658121,0.6475830078125,-0.66546630859375,-0.16656494140625,-0.33184814453125,5438,-8346,387,33,14,-166
124668103,0.6439208984375,-0.65899658203125,-0.1795654296875,-0.3448486328125,5553,-8230,404,32,15,-162
124678086,0.64044189453125,-0.65234375,-0.19158935546875,-0.357177734375,5628,-8093,426,32,17,-153
124688068,0.6370849609375,-0.64569091796875,-0.20281982421875,-0.368896484375,5728,-7934,442,33,18,-146
124698051,0.6339111328125,-0.63885498046875,-0.2135009765625,-0.38018798828125,5807,-7717,464,33,20,-142
124708034,0.630615234375,-0.63177490234375,-0.223876953125,-0.391357421875,5865,-7485,458,33,22,-142
124718015,0.62701416015625,-0.6243896484375,-0.2342529296875,-0.4027099609375,5919,-7266,472,33,23,-145
124727997,0.62298583984375,-0.61669921875,-0.24468994140625,-0.41436767578125,5971,-7049,458,32,25,-150
124737988,0.61865234375,-0.6087646484375,-0.25506591796875,-0.42620849609375,6005,-6832,458,32,27,-152
124747964,0.614013671875,-0.6004638671875,-0.265380859375,-0.438232421875,6055,-6606,474,32,29,-154
124757946,0.6092529296875,-0.59185791015625,-0.275390625,-0.4501953125,6135,-6418,498,31,30,-153
124767927,0.60443115234375,-0.583251953125,-0.2850341796875,-0.46185302734375,6229,-6229,510,30,31,-150
124777911,0.59967041015625,-0.5745849609375,-0.2940673828125,-0.47308349609375,6305,-6047,517,30,32,-146
124787892,0.59478759765625,-0.56597900390625,-0.302734375,-0.484130859375,6293,-5792,525,29,33,-144
124797878,0.58953857421875,-0.55706787109375,-0.31134033203125,-0.49517822265625,6251,-5455,543,27,33,-147
124807858,0.583740234375,-0.54779052734375,-0.3201904296875,-0.50665283203125,6139,-5034,559,27,34,-153
124817840,0.57708740234375,-0.53802490234375,-0.3294677734375,-0.5186767578125,6040,-4603,599,25,35,-161
124827824,0.56976318359375,-0.52777099609375,-0.33892822265625,-0.53106689453125,5971,-4243,624,24,36,-167
124837806,0.56207275390625,-0.517333984375,-0.34820556640625,-0.54339599609375,5927,-3966,641,23,36,-167
124847788,0.55438232421875,-0.50701904296875,-0.35693359375,-0.55523681640625,5900,-3684,665,21,36,-162
124857771,0.54693603515625,-0.49688720703125,-0.36505126953125,-0.56634521484375,5841,-3381,692,21,36,-153
124867762,0.53973388671875,-0.487060546875,-0.37249755859375,-0.5767822265625,5761,-3088,726,19,35,-145
124877746,0.532958984375,-0.4776611328125,-0.3792724609375,-0.58648681640625,5673,-2815,768,18,34,-136
124887720,0.5264892578125,-0.46856689453125,-0.38555908203125,-0.5955810546875,5599,-2591,820,17,33,-129
124897704,0.5201416015625,-0.45977783203125,-0.391357421875,-0.60406494140625,5534,-2399,862,16,32,-124
124907688,0.513671875,-0.45111083984375,-0.3970947265625,-0.61236572265625,5491,-2227,902,15,30,-124
124917670,0.50689697265625,-0.4425048828125,-0.40277099609375,-0.62054443359375,5427,-2063,932,15,29,-126
124927653,0.4996337890625,-0.43365478515625,-0.40863037109375,-0.6287841796875,5316,-1815,988,14,27,-130
124937636,0.4915771484375,-0.42449951171875,-0.414794921875,-0.6373291015625,5226,-1570,1041,13,26,-137
124947617,0.48284912109375,-0.4151611328125,-0.421142578125,-0.64593505859375,5140,-1356,1104,12,24,-141
124957601,0.4737548828125,-0.40570068359375,-0.427490234375,-0.6544189453125,5085,-1198,1151,12,22,-143
124967583,0.4644775390625,-0.39642333984375,-0.43377685546875,-0.66253662109375,5035,-1013,1195,11,20,-141
124977565,0.45513916015625,-0.38739013671875,-0.43994140625,-0.6702880859375,4974,-811,1255,11,18,-138
124987546,0.4456787109375,-0.37835693359375,-0.44598388671875,-0.67779541015625,4883,-552,1323,11,16,-137
124997528,0.43585205078125,-0.3692626953125,-0.4521484375,-0.68505859375,4775,-241,1383,11,14,-138
125007512,0.42559814453125,-0.36004638671875,-0.4583740234375,-0.6922607421875,4607,88,1447,11,13,-140
125017494,0.4149169921875,-0.3505859375,-0.46466064453125,-0.69940185546875,4410,472,1528,10,11,-142
125027476,0.4036865234375,-0.34088134765625,-0.470947265625,-0.70648193359375,4208,850,1606,10,10,-144
125037460,0.39208984375,-0.33099365234375,-0.4771728515625,-0.7135009765625,4001,1233,1706,9,9,-145
125047438,0.3804931640625,-0.3212890625,-0.483154296875,-0.72015380859375,3823,1545,1784,8,7,-141
125057430,0.36932373046875,-0.31201171875,-0.4886474609375,-0.726318359375,3600,1805,1853,8,6,-132
125067414,0.3590087890625,-0.3033447265625,-0.49365234375,-0.73175048828125,3358,2050,1929,8,5,-120
125077396,0.349609375,-0.29547119140625,-0.4981689453125,-0.7364501953125,3138,2291,1992,8,3,-108
125087371,0.341064453125,-0.28826904296875,-0.502197265625,-0.74053955078125,2937,2516,2063,8,3,-96
125097355,0.33331298828125,-0.28167724609375,-0.5059814453125,-0.7440185546875,2720,2731,2115,9,1,-86
125107333,0.326171875,-0.2755126953125,-0.50958251953125,-0.7470703125,2485,2982,2166,10,0,-80
125117317,0.3192138671875,-0.26953125,-0.51318359375,-0.74981689453125,2250,3259,2224,11,-1,-75
125127298,0.3125,-0.263671875,-0.516845703125,-0.75213623046875,2041,3557,2274,13,-3,-71
125137280,0.30621337890625,-0.25823974609375,-0.52056884765625,-0.75408935546875,1889,3860,2316,15,-4,-65
125147262,0.30035400390625,-0.25311279296875,-0.5242919921875,-0.755615234375,1786,4185,2365,17,-5,-59
125157243,0.29498291015625,-0.2481689453125,-0.528076171875,-0.7567138671875,1754,4536,2418,20,-5,-55
125167235,0.29010009765625,-0.2431640625,-0.53192138671875,-0.75750732421875,1744,4894,2496,22,-3,-50
125177222,0.285888671875,-0.2381591796875,-0.53570556640625,-0.758056640625,1759,5249,2590,25,0,-44
125187206,0.282958984375,-0.23333740234375,-0.539306640625,-0.75811767578125,1783,5622,2647,27,4,-32
125197189,0.28143310546875,-0.2291259765625,-0.54254150390625,-0.75762939453125,1781,6024,2697,28,6,-17
125207174,0.2816162109375,-0.22576904296875,-0.5452880859375,-0.756591796875,1789,6425,2737,28,8,2
125217143,0.28363037109375,-0.2236328125,-0.54730224609375,-0.7550048828125,1774,6785,2737,26,9,22
125227125,0.28741455078125,-0.22296142578125,-0.548583984375,-0.75286865234375,1796,7078,2732,23,9,43
125237107,0.29290771484375,-0.223876953125,-0.54901123046875,-0.75018310546875,1851,7289,2714,19,7,63
125247087,0.29974365234375,-0.2261962890625,-0.54864501953125,-0.74700927734375,1955,7433,2670,15,6,79
125257070,0.3076171875,-0.229736328125,-0.547607421875,-0.7435302734375,2099,7519,2613,11,5,91
125267054,0.316162109375,-0.2342529296875,-0.54583740234375,-0.73980712890625,2295,7529,2550,7,4,101
125277035,0.32537841796875,-0.23956298828125,-0.54339599609375,-0.73583984375,2515,7480,2494,3,4,109
125287017,0.3350830078125,-0.2457275390625,-0.540283203125,-0.7318115234375,2729,7348,2432,-2,3,116
125296999,0.3453369140625,-0.25262451171875,-0.536376953125,-0.7275390625,2950,7130,2366,-7,3,125
125306987,0.35626220703125,-0.260498046875,-0.53155517578125,-0.7230224609375,3183,6821,2309,-12,3,134
125316963,0.36785888671875,-0.26922607421875,-0.52587890625,-0.7181396484375,3433,6448,2273,-17,3,144
125326946,0.3800048828125,-0.27874755859375,-0.519287109375,-0.71295166015625,3662,6036,2233,-22,3,151
125336927,0.39239501953125,-0.28875732421875,-0.511962890625,-0.70758056640625,3889,5623,2199,-26,3,154
125346911,0.404541015625,-0.29876708984375,-0.50408935546875,-0.7021484375,4074,5214,2154,-29,4,153
125356893,0.4161376953125,-0.30853271484375,-0.49591064453125,-0.697021484375,4216,4797,2112,-32,5,147
125366878,0.42706298828125,-0.31781005859375,-0.48748779296875,-0.69207763671875,4351,4327,2049,-34,6,140
125376858,0.4375,-0.32696533203125,-0.47894287109375,-0.68731689453125,4496,3799,1984,-36,7,135
125386841,0.44775390625,-0.336181640625,-0.4700927734375,-0.68231201171875,4651,3289,1927,-37,6,136
125396823,0.45819091796875,-0.345703125,-0.46075439453125,-0.677001953125,4803,2759,1902,-38,6,140
125406804,0.468994140625,-0.355712890625,-0.4508056640625,-0.6710205078125,4927,2235,1867,-40,6,148
125416787,0.48046875,-0.3663330078125,-0.440185546875,-0.66424560546875,5005,1698,1817,-40,5,158
125426768,0.4923095703125,-0.37725830078125,-0.4290771484375,-0.65667724609375,5060,1201,1757,-40,5,164
125436759,0.5040283203125,-0.3880615234375,-0.417724609375,-0.64874267578125,5097,728,1714,-39,5,162
125446741,0.5152587890625,-0.39837646484375,-0.406494140625,-0.64080810546875,5133,260,1689,-38,5,156
125456718,0.52587890625,-0.408203125,-0.39544677734375,-0.6328125,5182,-222,1677,-37,5,150
125466702,0.5360107421875,-0.417724609375,-0.384521484375,-0.62481689453125,5244,-624,1702,-35,4,146
125476683,0.54583740234375,-0.42706298828125,-0.37353515625,-0.6165771484375,5294,-969,1763,-35,3,146
125486668,0.55548095703125,-0.43634033203125,-0.36248779296875,-0.6080322265625,5312,-1256,1786,-35,2,147
125496648,0.56500244140625,-0.44561767578125,-0.351318359375,-0.59906005859375,5278,-1450,1800,-35,1,149
125506636,0.5740966796875,-0.45458984375,-0.34027099609375,-0.5899658203125,5251,-1616,1831,-35,0,147
125516612,0.5826416015625,-0.46319580078125,-0.3292236328125,-0.5810546875,5300,-1907,1819,-36,1,141
125526596,0.59075927734375,-0.47161865234375,-0.3182373046875,-0.57220458984375,5373,-2188,1824,-36,2,137
125536579,0.598388671875,-0.47967529296875,-0.30712890625,-0.5634765625,5384,-2518,1856,-37,2,134
125546562,0.6058349609375,-0.48785400390625,-0.29571533203125,-0.55462646484375,5350,-2895,1830,-39,2,135
125556544,0.61297607421875,-0.49615478515625,-0.2841796875,-0.54534912109375,5258,-3135,1803,-40,0,137
125566527,0.61968994140625,-0.50439453125,-0.27252197265625,-0.53607177734375,5150,-3170,1813,-43,-1,135
125576505,0.62548828125,-0.51226806640625,-0.26141357421875,-0.52728271484375,5036,-3084,1830,-45,-2,127
125586489,0.630126953125,-0.5196533203125,-0.2508544921875,-0.51959228515625,4917,-3053,1859,-47,-1,113
125596474,0.63372802734375,-0.52667236328125,-0.24078369140625,-0.51287841796875,4913,-3435,1808,-50,0,100
125606454,0.63702392578125,-0.5340576171875,-0.2303466796875,-0.5059814453125,5018,-4206,1678,-50,1,101
125616434,0.6409912109375,-0.54180908203125,-0.21875,-0.49774169921875,5119,-5019,1567,-50,2,116
125626425,0.64599609375,-0.5499267578125,-0.205810546875,-0.48779296875,5126,-5686,1463,-48,2,136
125636408,0.65191650390625,-0.5579833984375,-0.19189453125,-0.476318359375,5045,-6062,1393,-46,2,151
125646391,0.65802001953125,-0.5655517578125,-0.177734375,-0.46429443359375,4916,-6144,1384,-43,2,154
125656366,0.66375732421875,-0.5723876953125,-0.1640625,-0.45269775390625,4764,-6164,1409,-41,3,147
125666364,0.66876220703125,-0.5784912109375,-0.151123046875,-0.44195556640625,4638,-6386,1429,-40,5,134
125676343,0.67315673828125,-0.5841064453125,-0.13873291015625,-0.43182373046875,4602,-6880,1389,-38,6,126
125686324,0.6773681640625,-0.589599609375,-0.12628173828125,-0.42144775390625,4582,-7506,1350,-36,6,127
125696309,0.681884765625,-0.59490966796875,-0.11334228515625,-0.4102783203125,4526,-8037,1300,-34,5,135
125706293,0.68670654296875,-0.599853515625,-0.10015869140625,-0.3983154296875,4439,-8288,1305,-31,4,143
125716273,0.6915283203125,-0.60430908203125,-0.0870361328125,-0.3861083984375,4316,-8233,1373,-30,3,143
125726256,0.6959228515625,-0.608154296875,-0.07470703125,-0.37457275390625,4208,-7985,1478,-29,3,135
125736242,0.6995849609375,-0.6114501953125,-0.0634765625,-0.36431884765625,4087,-7762,1610,-28,5,121
125746227,0.7025146484375,-0.6143798828125,-0.05316162109375,-0.35528564453125,3981,-7800,1700,-28,6,107
125756207,0.7049560546875,-0.6171875,-0.04296875,-0.3468017578125,3917,-8177,1727,-28,8,103
125766187,0.70751953125,-0.61993408203125,-0.0322265625,-0.3377685546875,3848,-8658,1725,-28,9,111
125776179,0.71044921875,-0.62249755859375,-0.0205078125,-0.32757568359375,3716,-8995,1705,-27,10,125
125786162,0.71380615234375,-0.62481689453125,-0.00787353515625,-0.3162841796875,3510,-9106,1698,-26,10,136
125796139,0.71722412109375,-0.626708984375,0.0050048828125,-0.30462646484375,3275,-9004,1713,-25,10,139
125806114,0.72052001953125,-0.628173828125,0.017578125,-0.29327392578125,3033,-8864,1749,-23,11,134
125816096,0.723388671875,-0.6292724609375,0.02960205078125,-0.2825927734375,2828,-8963,1771,-22,12,127
125826080,0.72589111328125,-0.6302490234375,0.0413818359375,-0.272216796875,2643,-9381,1777,-22,13,124
125836061,0.72833251953125,-0.631103515625,0.053466796875,-0.261474609375,2494,-9967,1747,-21,13,129
125846045,0.7308349609375,-0.6317138671875,0.06610107421875,-0.2498779296875,2297,-10463,1715,-20,12,137
125856027,0.7332763671875,-0.632080078125,0.0789794921875,-0.2376708984375,2045,-10713,1694,-20,11,141
125866011,0.73553466796875,-0.6322021484375,0.0914306640625,-0.22564697265625,1786,-10712,1701,-20,10,136
125875995,0.7374267578125,-0.63214111328125,0.10284423828125,-0.214599609375,1565,-10486,1753,-19,9,123
125885982,0.73870849609375,-0.63201904296875,0.1126708984375,-0.20526123046875,1375,-10111,1841,-20,9,104
125895956,0.73944091796875,-0.63201904296875,0.120849609375,-0.19781494140625,1216,-9762,1949,-20,9,83
125905940,0.73968505859375,-0.6322021484375,0.1275634765625,-0.1920166015625,1095,-9484,2067,-20,10,66
125915922,0.7396240234375,-0.63250732421875,0.13330078125,-0.1873779296875,995,-9239,2167,-21,10,57
125925904,0.73931884765625,-0.6329345703125,0.138671875,-0.18310546875,845,-8994,2230,-22,10,52
125935887,0.73895263671875,-0.63336181640625,0.14410400390625,-0.17877197265625,675,-8818,2257,-22,9,54
125945868,0.73870849609375,-0.63372802734375,0.14990234375,-0.173828125,520,-8744,2248,-22,9,61
125955850,0.738525390625,-0.63397216796875,0.156494140625,-0.16778564453125,339,-8697,2178,-23,8,73
125965833,0.73858642578125,-0.6339111328125,0.1640625,-0.160400390625,106,-8655,2087,-23,7,87
125975815,0.73876953125,-0.633544921875,0.172607421875,-0.15179443359375,-158,-8593,1973,-22,6,99
125985797,0.739013671875,-0.6329345703125,0.18182373046875,-0.1422119140625,-419,-8529,1867,-22,6,107
125995784,0.7392578125,-0.6319580078125,0.1915283203125,-0.13201904296875,-683,-8500,1763,-21,6,113
126005768,0.739501953125,-0.63067626953125,0.20159912109375,-0.12127685546875,-962,-8497,1642,-20,6,118
126015751,0.7396240234375,-0.629150390625,0.2120361328125,-0.11016845703125,-1240,-8556,1516,-20,6,123
126025733,0.7396240234375,-0.62738037109375,0.22271728515625,-0.0987548828125,-1530,-8662,1382,-19,7,126
126035710,0.73944091796875,-0.62530517578125,0.23382568359375,-0.0870361328125,-1845,-8822,1234,-19,8,131
126045691,0.739013671875,-0.62298583984375,0.24517822265625,-0.074951171875,-2169,-9019,1102,-18,9,134
126055676,0.7384033203125,-0.620361328125,0.25677490234375,-0.06268310546875,-2461,-9250,974,-18,10,138
126065659,0.73760986328125,-0.61749267578125,0.26861572265625,-0.05035400390625,-2708,-9527,867,-18,11,140
126075641,0.73651123046875,-0.6143798828125,0.2803955078125,-0.03802490234375,-2921,-9785,771,-17,12,142
126085623,0.7352294921875,-0.61102294921875,0.2921142578125,-0.02593994140625,-3086,-9952,708,-17,13,141
126095606,0.7337646484375,-0.607666015625,0.303466796875,-0.0142822265625,-3231,-9997,660,-16,14,136
126105589,0.732177734375,-0.6043701171875,0.3140869140625,-0.00372314453125,-3350,-9943,623,-15,15,125
126115572,0.73046875,-0.6014404296875,0.32354736328125,0.00531005859375,-3437,-9798,596,-14,17,109
126125555,0.7286376953125,-0.59906005859375,0.3316650390625,0.012451171875,-3504,-9602,566,-13,18,88
126135542,0.72686767578125,-0.59747314453125,0.33807373046875,0.01739501953125,-3552,-9389,550,-12,19,65
126145518,0.7252197265625,-0.59674072265625,0.3428955078125,0.0201416015625,-3575,-9182,532,-11,20,41
126155501,0.72357177734375,-0.59674072265625,0.34613037109375,0.02093505859375,-3563,-8996,522,-10,20,21
126165482,0.72210693359375,-0.597412109375,0.34814453125,0.02001953125,-3525,-8815,521,-9,20,4
126175461,0.72076416015625,-0.59857177734375,0.34912109375,0.01788330078125,-3464,-8667,513,-8,20,-8
126185436,0.71942138671875,-0.60003662109375,0.349365234375,0.01495361328125,-3381,-8518,490,-7,20,-16
126195430,0.71826171875,-0.60162353515625,0.34930419921875,0.0115966796875,-3317,-8402,454,-6,19,-20
126205412,0.71710205078125,-0.60321044921875,0.3489990234375,0.00830078125,-3255,-8322,413,-6,18,-20
126215392,0.716064453125,-0.60455322265625,0.34881591796875,0.0052490234375,-3215,-8246,380,-5,17,-16
126225369,0.715087890625,-0.605712890625,0.348876953125,0.0028076171875,-3208,-8198,351,-5,15,-11
126235352,0.7142333984375,-0.60650634765625,0.34930419921875,0.0009765625,-3218,-8151,319,-4,13,-5
126245342,0.7135009765625,-0.60693359375,0.35009765625,-6.103515625e-05,-3244,-8121,287,-4,11,2
126255319,0.71282958984375,-0.6070556640625,0.35125732421875,-0.00042724609375,-3297,-8089,254,-3,10,8
126265300,0.71221923828125,-0.60687255859375,0.35272216796875,-0.00018310546875,-3364,-8045,211,-3,8,14
126275284,0.711669921875,-0.60662841796875,0.35430908203125,0.00048828125,-3430,-7993,169,-3,7,16
126285266,0.711181640625,-0.60626220703125,0.35589599609375,0.00140380859375,-3524,-7932,145,-3,5,17
126295256,0.71075439453125,-0.60589599609375,0.3572998046875,0.00244140625,-3622,-7874,119,-4,3,15
126305238,0.71038818359375,-0.605712890625,0.35833740234375,0.0032958984375,-3710,-7806,85,-4,2,12
126315214,0.7099609375,-0.60577392578125,0.3590087890625,0.00396728515625,-3802,-7732,75,-4,1,6
126325206,0.7095947265625,-0.606201171875,0.35906982421875,0.00421142578125,-3879,-7672,41,-5,-1,0
126335185,0.70928955078125,-0.60687255859375,0.35858154296875,0.00408935546875,-3950,-7610,34,-6,-2,-6
126345165,0.70892333984375,-0.60784912109375,0.35760498046875,0.003662109375,-3985,-7555,22,-6,-4,-11
126355141,0.70855712890625,-0.609130859375,0.35614013671875,0.0029296875,-4003,-7522,6,-7,-5,-16
126365119,0.708251953125,-0.610595703125,0.35430908203125,0.001953125,-4028,-7480,14,-8,-6,-19
126375100,0.7078857421875,-0.6121826171875,0.3521728515625,0.00091552734375,-4028,-7434,16,-8,-7,-22
126385084,0.70758056640625,-0.6138916015625,0.34991455078125,-0.0001220703125,-4021,-7406,16,-9,-8,-22
126395065,0.707275390625,-0.61553955078125,0.34765625,-0.0010986328125,-4009,-7385,40,-9,-8,-22
126405051,0.70697021484375,-0.61712646484375,0.345458984375,-0.00177001953125,-4002,-7372,66,-9,-9,-19
126415030,0.706787109375,-0.61846923828125,0.34344482421875,-0.002197265625,-3970,-7376,89,-9,-9,-16
126425012,0.7066650390625,-0.61956787109375,0.34173583984375,-0.0023193359375,-3949,-7387,126,-7,-9,-11
126434995,0.70660400390625,-0.62030029296875,0.34039306640625,-0.00213623046875,-3910,-7413,163,-6,-9,-6
126444983,0.7066650390625,-0.62078857421875,0.33935546875,-0.0015869140625,-3871,-7424,199,-5,-8,-2
126454963,0.706787109375,-0.62103271484375,0.33868408203125,-0.0008544921875,-3825,-7418,234,-4,-8,2
126464944,0.70697021484375,-0.62103271484375,0.3382568359375,-6.103515625e-05,-3780,-7408,270,-3,-7,4
126474921,0.70721435546875,-0.62091064453125,0.3380126953125,0.00067138671875,-3750,-7391,295,-2,-6,4
126484909,0.70751953125,-0.62066650390625,0.33795166015625,0.0013427734375,-3730,-7386,315,0,-4,5
126494893,0.707763671875,-0.62030029296875,0.3380126953125,0.0018310546875,-3713,-7356,337,1,-2,5
126504878,0.7080078125,-0.61993408203125,0.33819580078125,0.002197265625,-3695,-7335,338,1,-1,5
126514860,0.708251953125,-0.6195068359375,0.3385009765625,0.00238037109375,-3678,-7320,343,2,0,4
126524839,0.70849609375,-0.61895751953125,0.33892822265625,0.00250244140625,-3672,-7318,339,3,2,5
126534819,0.708740234375,-0.618408203125,0.3394775390625,0.0025634765625,-3672,-7312,329,3,2,6
126544803,0.708984375,-0.61773681640625,0.3402099609375,0.002685546875,-3722,-7331,301,4,3,7
126554784,0.70916748046875,-0.61700439453125,0.341064453125,0.0028076171875,-3819,-7337,270,4,4,6
126564773,0.7093505859375,-0.61639404296875,0.34185791015625,0.00274658203125,-3941,-7345,204,4,4,4
126574756,0.70953369140625,-0.61578369140625,0.34246826171875,0.0025634765625,-4038,-7318,133,5,3,1
126584742,0.70977783203125,-0.61541748046875,0.3427734375,0.00213623046875,-4123,-7263,72,5,2,-2
126594714,0.71002197265625,-0.61505126953125,0.3427734375,0.00152587890625,-4181,-7201,19,5,1,-5
126604695,0.71038818359375,-0.61480712890625,0.342529296875,0.00091552734375,-4197,-7136,-17,5,0,-6
126614679,0.71075439453125,-0.6146240234375,0.3421630859375,0.0003662109375,-4185,-7087,-39,5,-2,-6
126624660,0.71112060546875,-0.61431884765625,0.341796875,0.0001220703125,-4168,-7031,-71,5,-3,-4
126634642,0.7115478515625,-0.614013671875,0.341552734375,0.0001220703125,-4129,-6985,-84,4,-4,-1
126644627,0.7119140625,-0.61370849609375,0.34130859375,0.0003662109375,-4077,-6929,-100,3,-5,0
126654608,0.7122802734375,-0.61346435546875,0.34100341796875,0.00067138671875,-4018,-6884,-88,2,-5,0
126664595,0.712646484375,-0.61334228515625,0.34051513671875,0.00091552734375,-3960,-6881,-75,2,-5,-1
126674575,0.71295166015625,-0.61328125,0.3399658203125,0.00103759765625,-3906,-6881,-66,1,-5,-3
126684558,0.713134765625,-0.61334228515625,0.33935546875,0.0009765625,-3855,-6885,-61,1,-4,-4
126694542,0.71331787109375,-0.613525390625,0.33880615234375,0.00079345703125,-3804,-6886,-42,0,-3,-5
126704522,0.71337890625,-0.61376953125,0.33819580078125,0.00042724609375,-3757,-6889,-35,0,-3,-5
126714504,0.71337890625,-0.61395263671875,0.3377685546875,6.103515625e-05,-3724,-6894,-32,0,-1,-5
126724487,0.71337890625,-0.61419677734375,0.33740234375,-0.00030517578125,-3714,-6920,-25,0,-1,-4
126734473,0.71331787109375,-0.61431884765625,0.3372802734375,-0.00067138671875,-3723,-6949,-15,0,1,-3
126744454,0.7132568359375,-0.6143798828125,0.33734130859375,-0.00103759765625,-3727,-6994,15,0,2,-2
126754434,0.71319580078125,-0.61431884765625,0.3375244140625,-0.00140380859375,-3752,-7024,49,0,3,-1
126764423,0.713134765625,-0.6142578125,0.33782958984375,-0.00177001953125,-3777,-7041,102,1,4,-1
126774406,0.71307373046875,-0.6141357421875,0.33819580078125,-0.002197265625,-3805,-7033,140,1,4,-1
126784390,0.7130126953125,-0.61395263671875,0.33856201171875,-0.002685546875,-3834,-7030,183,1,5,-1
126794365,0.71295166015625,-0.61383056640625,0.33892822265625,-0.00323486328125,-3877,-7052,219,1,5,-2
126804350,0.712890625,-0.6136474609375,0.33935546875,-0.0037841796875,-3927,-7080,242,1,5,-2
126814329,0.712890625,-0.61346435546875,0.33978271484375,-0.0042724609375,-4006,-7124,231,2,5,-1
126824313,0.712890625,-0.61322021484375,0.3402099609375,-0.00469970703125,-4081,-7187,204,2,4,-1
126834297,0.71295166015625,-0.6129150390625,0.340576171875,-0.005126953125,-4131,-7262,165,3,3,-1
126844285,0.7130126953125,-0.61260986328125,0.3409423828125,-0.00543212890625,-4177,-7322,138,3,2,0
126854264,0.71319580078125,-0.61224365234375,0.34124755859375,-0.00567626953125,-4204,-7369,118,4,2,0
126864242,0.7135009765625,-0.61181640625,0.34136962890625,-0.0059814453125,-4195,-7381,107,4,1,-1
126874229,0.7138671875,-0.61138916015625,0.34136962890625,-0.00634765625,-4188,-7398,107,5,0,-2
126884211,0.7142333984375,-0.61102294921875,0.3411865234375,-0.0068359375,-4164,-7378,90,6,0,-4
126894191,0.71466064453125,-0.6107177734375,0.3408203125,-0.00750732421875,-4098,-7344,79,6,-1,-6
126904181,0.71514892578125,-0.6104736328125,0.3402099609375,-0.00830078125,-4030,-7301,82,6,-1,-7
126914164,0.7156982421875,-0.61016845703125,0.339599609375,-0.0091552734375,-3954,-7242,90,6,-2,-8
126924139,0.71624755859375,-0.60992431640625,0.33892822265625,-0.010009765625,-3862,-7170,92,6,-2,-8
126934117,0.71673583984375,-0.60968017578125,0.33837890625,-0.0108642578125,-3773,-7114,102,6,-1,-7
126944099,0.7171630859375,-0.609375,0.33795166015625,-0.0115966796875,-3693,-7039,115,5,-1,-5
126954085,0.717529296875,-0.609130859375,0.337646484375,-0.01226806640625,-3625,-6958,112,5,0,-4
126964064,0.7177734375,-0.60888671875,0.33740234375,-0.012939453125,-3564,-6895,107,5,1,-4
126974051,0.718017578125,-0.60870361328125,0.3372802734375,-0.01361083984375,-3523,-6832,106,3,1,-4
126984031,0.71807861328125,-0.60870361328125,0.33709716796875,-0.014404296875,-3471,-6777,85,3,2,-6
126994014,0.718017578125,-0.60882568359375,0.3369140625,-0.01531982421875,-3444,-6757,80,1,3,-7
127003997,0.7178955078125,-0.60906982421875,0.33673095703125,-0.016357421875,-3439,-6736,68,1,4,-8
127013983,0.7176513671875,-0.60943603515625,0.3365478515625,-0.01739501953125,-3447,-6746,52,0,4,-8
127023960,0.71734619140625,-0.60980224609375,0.33642578125,-0.0184326171875,-3477,-6759,39,-1,5,-8
127033940,0.7169189453125,-0.61029052734375,0.33642578125,-0.01947021484375,-3519,-6815,6,-2,6,-8
127043922,0.7164306640625,-0.61077880859375,0.3365478515625,-0.0205078125,-3581,-6867,-25,-2,6,-8
127053908,0.71588134765625,-0.6112060546875,0.3367919921875,-0.021484375,-3654,-6929,-77,-2,6,-7
127063887,0.71533203125,-0.61163330078125,0.337158203125,-0.02227783203125,-3710,-6988,-111,-2,7,-5
127073869,0.71478271484375,-0.61199951171875,0.337646484375,-0.02301025390625,-3757,-7044,-116,-2,7,-4
127083855,0.7142333984375,-0.61224365234375,0.33831787109375,-0.02362060546875,-3803,-7110,-124,-2,7,-2
127093836,0.71368408203125,-0.6124267578125,0.339111328125,-0.02410888671875,-3830,-7169,-108,-2,8,-1
127103822,0.71319580078125,-0.61248779296875,0.3399658203125,-0.02459716796875,-3857,-7219,-90,-2,8,1
127113803,0.7127685546875,-0.61248779296875,0.3408203125,-0.02496337890625,-3880,-7271,-78,-1,7,1
127123784,0.71234130859375,-0.61248779296875,0.3416748046875,-0.025390625,-3928,-7312,-55,-1,7,0
127133771,0.71197509765625,-0.61248779296875,0.3424072265625,-0.02593994140625,-3971,-7362,-53,0,7,-1
127143755,0.711669921875,-0.61248779296875,0.343017578125,-0.026611328125,-4017,-7408,-44,0,6,-3
127153739,0.71148681640625,-0.61248779296875,0.3433837890625,-0.02734375,-4058,-7432,-34,1,6,-4
127163716,0.7113037109375,-0.6124267578125,0.34375,-0.028076171875,-4079,-7459,-33,2,5,-4
127173698,0.7113037109375,-0.61224365234375,0.34405517578125,-0.02874755859375,-4078,-7477,-7,3,5,-3
127183680,0.7113037109375,-0.61199951171875,0.3443603515625,-0.02935791015625,-4056,-7473,3,3,4,-2
127193663,0.71136474609375,-0.61175537109375,0.34466552734375,-0.02984619140625,-4035,-7453,17,3,4,-2
127203644,0.7115478515625,-0.61138916015625,0.34490966796875,-0.03045654296875,-3994,-7430,38,4,3,-2
127213628,0.71173095703125,-0.611083984375,0.34503173828125,-0.03106689453125,-3963,-7401,63,4,3,-3
127223610,0.71197509765625,-0.6107177734375,0.3450927734375,-0.03179931640625,-3934,-7370,84,5,3,-4
127233592,0.712158203125,-0.61041259765625,0.34515380859375,-0.03265380859375,-3897,-7351,96,4,3,-5
127243575,0.71240234375,-0.610107421875,0.34515380859375,-0.033447265625,-3886,-7340,107,5,3,-5
127253557,0.712646484375,-0.6097412109375,0.34521484375,-0.0341796875,-3881,-7325,121,5,3,-4
127263542,0.71282958984375,-0.609375,0.3453369140625,-0.034912109375,-3879,-7314,121,5,3,-3
127273524,0.71307373046875,-0.6090087890625,0.34552001953125,-0.0355224609375,-3880,-7321,125,5,3,-3
127283508,0.71331787109375,-0.60858154296875,0.345703125,-0.0361328125,-3892,-7322,110,5,3,-3
127293490,0.71356201171875,-0.608154296875,0.34588623046875,-0.0367431640625,-3901,-7325,101,5,3,-3
127303472,0.71380615234375,-0.60772705078125,0.3460693359375,-0.037353515625,-3914,-7317,97,5,2,-3
127313454,0.714111328125,-0.60723876953125,0.34613037109375,-0.03790283203125,-3930,-7302,105,6,2,-3
127323435,0.7144775390625,-0.60675048828125,0.34619140625,-0.03839111328125,-3942,-7290,113,6,1,-3
127333423,0.71484375,-0.60626220703125,0.34625244140625,-0.03875732421875,-3946,-7252,133,6,1,-2
127343406,0.71527099609375,-0.605712890625,0.3463134765625,-0.03912353515625,-3955,-7222,144,6,0,-2
127353389,0.7156982421875,-0.60516357421875,0.34637451171875,-0.03936767578125,-3973,-7180,150,6,0,-1
127363367,0.71612548828125,-0.60467529296875,0.34637451171875,-0.0394287109375,-3987,-7142,162,5,-1,-1
127373350,0.71649169921875,-0.60418701171875,0.34637451171875,-0.03948974609375,-4004,-7144,161,4,-2,-1
127383337,0.71685791015625,-0.603759765625,0.3463134765625,-0.0394287109375,-4019,-7143,163,4,-2,0
127393316,0.71722412109375,-0.6033935546875,0.34625244140625,-0.0391845703125,-4027,-7133,183,3,-3,0
127403297,0.71759033203125,-0.60308837890625,0.34613037109375,-0.0389404296875,-4023,-7110,209,2,-4,0
127413283,0.718017578125,-0.602783203125,0.3458251953125,-0.03857421875,-4021,-7100,240,2,-5,-1
127423257,0.7183837890625,-0.6025390625,0.345458984375,-0.03814697265625,-4008,-7079,272,1,-6,-1
127433238,0.71881103515625,-0.60235595703125,0.34503173828125,-0.0377197265625,-3986,-7062,289,1,-7,-1
127443231,0.71917724609375,-0.60223388671875,0.34442138671875,-0.0372314453125,-3970,-7045,310,1,-7,-2
127453213,0.7196044921875,-0.60211181640625,0.34381103515625,-0.0367431640625,-3960,-7054,339,1,-8,-1
127463190,0.7200927734375,-0.60198974609375,0.3431396484375,-0.0361328125,-3939,-7044,354,1,-9,-1
127473190,0.7205810546875,-0.60186767578125,0.3424072265625,-0.03546142578125,-3914,-7039,356,1,-9,0
127483167,0.7210693359375,-0.60174560546875,0.34173583984375,-0.03466796875,-3897,-7020,375,1,-10,0
127493143,0.7215576171875,-0.6015625,0.341064453125,-0.0338134765625,-3886,-6997,381,0,-10,0
127503120,0.7220458984375,-0.60150146484375,0.34027099609375,-0.03289794921875,-3878,-6983,395,0,-11,1
127513101,0.72247314453125,-0.6014404296875,0.33953857421875,-0.0318603515625,-3873,-6973,375,-1,-11,1
127523083,0.72283935546875,-0.6014404296875,0.33880615234375,-0.03082275390625,-3870,-6976,344,-1,-12,1
127533064,0.72320556640625,-0.60150146484375,0.3380126953125,-0.0296630859375,-3859,-6983,319,-2,-12,2
127543051,0.7235107421875,-0.60162353515625,0.3372802734375,-0.02838134765625,-3852,-7003,297,-2,-13,3
127553032,0.72381591796875,-0.60174560546875,0.3365478515625,-0.02691650390625,-3845,-7035,278,-3,-13,4
127563012,0.72406005859375,-0.6019287109375,0.33587646484375,-0.02532958984375,-3824,-7057,262,-4,-14,5
127572995,0.7242431640625,-0.60211181640625,0.3350830078125,-0.02374267578125,-3779,-7087,248,-4,-14,5
127582984,0.7244873046875,-0.6024169921875,0.33428955078125,-0.02215576171875,-3751,-7115,254,-5,-14,4
127592961,0.724609375,-0.60272216796875,0.33343505859375,-0.02069091796875,-3717,-7138,252,-5,-14,3
127602944,0.72479248046875,-0.6031494140625,0.33245849609375,-0.019287109375,-3681,-7153,264,-5,-14,2
127612924,0.7249755859375,-0.603515625,0.3314208984375,-0.01806640625,-3633,-7176,261,-5,-13,1
127622908,0.72509765625,-0.60400390625,0.330322265625,-0.01702880859375,-3601,-7175,278,-5,-13,0
127632890,0.7252197265625,-0.6044921875,0.32916259765625,-0.01611328125,-3554,-7186,298,-4,-12,-1
127642878,0.72540283203125,-0.6048583984375,0.32806396484375,-0.0152587890625,-3529,-7195,318,-4,-12,-1
127652854,0.7255859375,-0.60528564453125,0.32696533203125,-0.0145263671875,-3504,-7206,332,-4,-11,-1
127662838,0.72576904296875,-0.60565185546875,0.325927734375,-0.0137939453125,-3478,-7211,360,-3,-10,-2
127672818,0.7259521484375,-0.60595703125,0.32501220703125,-0.01318359375,-3460,-7207,374,-3,-10,-1
127682799,0.72613525390625,-0.60626220703125,0.3240966796875,-0.0125732421875,-3456,-7204,396,-3,-9,-1
127692789,0.726318359375,-0.6064453125,0.3233642578125,-0.01190185546875,-3460,-7214,414,-2,-9,0
127702773,0.72650146484375,-0.60662841796875,0.3226318359375,-0.01123046875,-3461,-7221,439,-2,-8,1
127712756,0.7266845703125,-0.606689453125,0.322021484375,-0.010498046875,-3484,-7250,456,-2,-8,2
127722740,0.72686767578125,-0.60675048828125,0.321533203125,-0.009765625,-3504,-7258,479,-2,-8,2
127732716,0.72711181640625,-0.60675048828125,0.321044921875,-0.009033203125,-3531,-7250,489,-2,-7,2
127742698,0.727294921875,-0.6068115234375,0.32049560546875,-0.00830078125,-3534,-7243,506,-1,-7,2
127752680,0.7275390625,-0.6068115234375,0.3199462890625,-0.0076904296875,-3531,-7246,522,-2,-8,1
127762664,0.727783203125,-0.60687255859375,0.3193359375,-0.00714111328125,-3532,-7247,528,-1,-7,0
127772644,0.72796630859375,-0.60693359375,0.3187255859375,-0.006591796875,-3536,-7216,526,-2,-7,0
127782628,0.72821044921875,-0.6070556640625,0.31805419921875,-0.00604248046875,-3536,-7202,526,-2,-8,0
127792612,0.7283935546875,-0.607177734375,0.3173828125,-0.0054931640625,-3526,-7186,507,-2,-8,0
127802593,0.72857666015625,-0.6072998046875,0.31671142578125,-0.0048828125,-3504,-7169,505,-2,-8,0
127812575,0.728759765625,-0.60748291015625,0.3160400390625,-0.00433349609375,-3495,-7149,497,-2,-8,0
127822556,0.72882080078125,-0.607666015625,0.31536865234375,-0.0037841796875,-3471,-7140,494,-3,-8,0
127832542,0.72894287109375,-0.60797119140625,0.31463623046875,-0.0032958984375,-3446,-7124,490,-3,-7,-1
127842522,0.72900390625,-0.60821533203125,0.31396484375,-0.00286865234375,-3424,-7123,488,-3,-7,-1
127852504,0.72906494140625,-0.6085205078125,0.31329345703125,-0.00244140625,-3401,-7124,486,-3,-7,-1
127862485,0.72900390625,-0.60888671875,0.3126220703125,-0.00213623046875,-3385,-7144,492,-3,-6,-2
