subject,Joshua Spiesman
arm,right
label,1
hz,100.1721089915708
time,5.56043

timestamp_us,q0,q1,q2,q3,ax,ay,az,gx,gy,gz
60333344,-0.60760498046875,-0.75946044921875,-0.00250244140625,-0.23272705078125,3001,7625,-1196,-2,-4,0
60343321,-0.6077880859375,-0.7593994140625,-0.00213623046875,-0.23248291015625,3014,7603,-1185,-2,-4,0
60353303,-0.60791015625,-0.75933837890625,-0.0018310546875,-0.23223876953125,3028,7594,-1159,-1,-4,-1
60363285,-0.6080322265625,-0.75927734375,-0.00152587890625,-0.23199462890625,3034,7583,-1130,-1,-4,-1
60373267,-0.60821533203125,-0.75927734375,-0.00140380859375,-0.23175048828125,3043,7559,-1117,-1,-3,-2
60383255,-0.60833740234375,-0.75921630859375,-0.001220703125,-0.23150634765625,3048,7539,-1101,-1,-3,-1
60393239,-0.60845947265625,-0.7591552734375,-0.00103759765625,-0.2313232421875,3055,7530,-1070,-1,-3,-1
60403223,-0.60858154296875,-0.7591552734375,-0.0008544921875,-0.23114013671875,3051,7522,-1079,-1,-3,-2
60413205,-0.60870361328125,-0.75909423828125,-0.000732421875,-0.23095703125,3057,7526,-1080,-1,-3,-2
60423193,-0.60888671875,-0.759033203125,-0.0008544921875,-0.230712890625,3050,7554,-1083,-1,-2,-4
60433174,-0.60906982421875,-0.759033203125,-0.0010986328125,-0.230224609375,3041,7576,-1092,-1,-2,-6
60443155,-0.60943603515625,-0.7589111328125,-0.00164794921875,-0.22955322265625,3027,7609,-1083,-1,-3,-9
60453126,-0.60986328125,-0.75885009765625,-0.00238037109375,-0.2286376953125,3007,7652,-1090,-1,-3,-11
60463110,-0.61029052734375,-0.75885009765625,-0.00323486328125,-0.22760009765625,2986,7677,-1106,-1,-3,-12
60473093,-0.6107177734375,-0.7587890625,-0.0040283203125,-0.22662353515625,2977,7707,-1108,-1,-3,-11
60483075,-0.61114501953125,-0.75872802734375,-0.004638671875,-0.2257080078125,2948,7738,-1102,-1,-3,-9
60493059,-0.6114501953125,-0.7586669921875,-0.00506591796875,-0.2249755859375,2925,7740,-1110,-1,-3,-7
60503041,-0.61175537109375,-0.75860595703125,-0.0052490234375,-0.22430419921875,2914,7739,-1098,-2,-4,-5
60513025,-0.61199951171875,-0.758544921875,-0.00531005859375,-0.22381591796875,2908,7735,-1098,-1,-3,-4
60523009,-0.6121826171875,-0.758544921875,-0.00531005859375,-0.223388671875,2905,7717,-1102,-1,-4,-3
60532994,-0.61236572265625,-0.758544921875,-0.005126953125,-0.22296142578125,2899,7677,-1094,-1,-4,-2
60542986,-0.6124267578125,-0.758544921875,-0.0050048828125,-0.22265625,2899,7640,-1052,0,-4,-2
60552958,-0.61248779296875,-0.75860595703125,-0.00482177734375,-0.222412109375,2891,7608,-1038,0,-4,-2
60562942,-0.61248779296875,-0.7586669921875,-0.004638671875,-0.22210693359375,2880,7577,-1020,1,-3,-1
60572926,-0.6124267578125,-0.7587890625,-0.00445556640625,-0.221923828125,2871,7555,-996,1,-3,-1
60582913,-0.61236572265625,-0.7589111328125,-0.00421142578125,-0.22174072265625,2868,7524,-997,1,-4,0
60592893,-0.61224365234375,-0.759033203125,-0.00396728515625,-0.22161865234375,2869,7483,-981,1,-4,0
60602877,-0.61212158203125,-0.7591552734375,-0.00372314453125,-0.221435546875,2871,7448,-976,2,-3,0
60612858,-0.61199951171875,-0.75933837890625,-0.00347900390625,-0.2213134765625,2858,7407,-953,2,-4,0
60622845,-0.61181640625,-0.759521484375,-0.0032958984375,-0.22119140625,2856,7373,-933,2,-3,-1
60632825,-0.61163330078125,-0.75970458984375,-0.00311279296875,-0.22113037109375,2842,7359,-914,3,-3,0
60642807,-0.61138916015625,-0.7598876953125,-0.0029296875,-0.2210693359375,2827,7348,-913,3,-3,0
60652789,-0.6112060546875,-0.76007080078125,-0.00274658203125,-0.220947265625,2797,7361,-906,3,-3,0
60662770,-0.61090087890625,-0.76031494140625,-0.00262451171875,-0.2208251953125,2793,7365,-922,3,-3,0
60672762,-0.6107177734375,-0.76055908203125,-0.00262451171875,-0.22064208984375,2788,7386,-929,3,-2,-2
60682741,-0.6104736328125,-0.7608642578125,-0.0028076171875,-0.2203369140625,2788,7412,-943,4,-2,-4
60692717,-0.61029052734375,-0.7611083984375,-0.00323486328125,-0.2198486328125,2780,7448,-955,4,-2,-6
60702699,-0.61016845703125,-0.7613525390625,-0.00384521484375,-0.21923828125,2782,7501,-984,4,-2,-8
60712683,-0.61004638671875,-0.76171875,-0.004638671875,-0.21856689453125,2782,7537,-993,5,-2,-10
60722664,-0.60992431640625,-0.76202392578125,-0.005615234375,-0.2177734375,2774,7581,-1008,5,-2,-10
60732647,-0.6097412109375,-0.7623291015625,-0.00665283203125,-0.21697998046875,2766,7622,-1031,5,-1,-11
60742635,-0.6094970703125,-0.76275634765625,-0.007568359375,-0.21624755859375,2743,7648,-1051,6,-1,-9
60752613,-0.60919189453125,-0.76312255859375,-0.00830078125,-0.21575927734375,2715,7659,-1062,6,-1,-7
60762597,-0.6087646484375,-0.7635498046875,-0.0087890625,-0.2154541015625,2696,7663,-1092,6,-1,-4
60772579,-0.6082763671875,-0.76397705078125,-0.0091552734375,-0.21527099609375,2695,7672,-1132,6,-1,-2
60782560,-0.607666015625,-0.76446533203125,-0.0093994140625,-0.21514892578125,2695,7693,-1157,7,-1,-2
60792544,-0.6070556640625,-0.7650146484375,-0.00970458984375,-0.21502685546875,2684,7718,-1194,7,-1,-3
60802528,-0.60638427734375,-0.765625,-0.01019287109375,-0.2147216796875,2677,7763,-1231,8,-1,-4
60812510,-0.605712890625,-0.76629638671875,-0.010986328125,-0.21417236328125,2667,7812,-1284,9,-1,-7
60822494,-0.6051025390625,-0.7669677734375,-0.01190185546875,-0.21343994140625,2651,7875,-1336,9,-2,-9
60832476,-0.6043701171875,-0.76776123046875,-0.01287841796875,-0.2125244140625,2645,7909,-1385,10,-2,-10
60842459,-0.6036376953125,-0.7685546875,-0.01385498046875,-0.211669921875,2643,7936,-1418,10,-3,-9
60852448,-0.60284423828125,-0.7694091796875,-0.0145263671875,-0.2109375,2647,7942,-1441,10,-3,-7
60862430,-0.60198974609375,-0.77020263671875,-0.0150146484375,-0.21044921875,2657,7943,-1467,11,-3,-4
60872414,-0.60101318359375,-0.77105712890625,-0.0152587890625,-0.21014404296875,2701,7946,-1477,11,-3,-1
60882399,-0.5999755859375,-0.7718505859375,-0.01519775390625,-0.2100830078125,2735,7918,-1493,10,-3,1
60892374,-0.59893798828125,-0.77264404296875,-0.01507568359375,-0.21014404296875,2782,7877,-1485,10,-2,2
60902357,-0.597900390625,-0.77337646484375,-0.014892578125,-0.2103271484375,2825,7821,-1467,10,-2,2
60912342,-0.596923828125,-0.77410888671875,-0.0147705078125,-0.2105712890625,2860,7773,-1467,10,-1,1
60922325,-0.59600830078125,-0.7747802734375,-0.0147705078125,-0.21075439453125,2908,7737,-1463,9,-1,0
60932313,-0.59521484375,-0.77532958984375,-0.01507568359375,-0.2108154296875,2971,7740,-1474,8,0,-3
60942293,-0.59454345703125,-0.77587890625,-0.015625,-0.21075439453125,3048,7767,-1499,8,1,-6
60952273,-0.593994140625,-0.77630615234375,-0.01641845703125,-0.21063232421875,3135,7800,-1528,7,1,-8
60962256,-0.59356689453125,-0.776611328125,-0.01739501953125,-0.21051025390625,3190,7816,-1526,6,3,-9
60972242,-0.59326171875,-0.77685546875,-0.01837158203125,-0.21063232421875,3235,7819,-1532,5,4,-8
60982227,-0.5928955078125,-0.7769775390625,-0.019287109375,-0.2109375,3272,7827,-1542,5,5,-7
60992209,-0.592529296875,-0.777099609375,-0.02008056640625,-0.2115478515625,3297,7832,-1557,4,7,-4
61002195,-0.59210205078125,-0.777099609375,-0.02069091796875,-0.2125244140625,3326,7829,-1574,4,8,0
61012182,-0.591552734375,-0.77716064453125,-0.02099609375,-0.21392822265625,3369,7811,-1607,4,10,3
61022166,-0.59088134765625,-0.777099609375,-0.02099609375,-0.2158203125,3422,7787,-1633,4,12,8
61032141,-0.59002685546875,-0.77716064453125,-0.020751953125,-0.21820068359375,3480,7744,-1648,4,13,12
61042119,-0.58892822265625,-0.77716064453125,-0.02032470703125,-0.2210693359375,3536,7671,-1667,5,15,15
61052102,-0.587646484375,-0.7772216796875,-0.019775390625,-0.2242431640625,3577,7602,-1695,6,17,17
61062084,-0.58624267578125,-0.77728271484375,-0.019287109375,-0.22772216796875,3609,7557,-1727,7,19,18
61072069,-0.58477783203125,-0.77734375,-0.0189208984375,-0.2313232421875,3631,7513,-1755,8,21,18
61082052,-0.58319091796875,-0.77740478515625,-0.018798828125,-0.23504638671875,3658,7486,-1779,9,22,17
61092035,-0.58148193359375,-0.77752685546875,-0.0189208984375,-0.23883056640625,3703,7450,-1817,10,24,16
61102019,-0.5797119140625,-0.77764892578125,-0.0191650390625,-0.24261474609375,3791,7426,-1859,11,25,15
61112002,-0.577880859375,-0.77783203125,-0.0196533203125,-0.24652099609375,3922,7384,-1916,12,26,14
61121991,-0.5758056640625,-0.77801513671875,-0.020263671875,-0.25054931640625,4057,7315,-1976,13,28,14
61131973,-0.573486328125,-0.77838134765625,-0.0208740234375,-0.2547607421875,4186,7211,-2021,15,29,15
61141950,-0.57080078125,-0.77880859375,-0.02142333984375,-0.2593994140625,4282,7097,-2060,18,31,18
61151932,-0.567626953125,-0.7794189453125,-0.021728515625,-0.2645263671875,4373,6992,-2083,22,33,24
61161917,-0.56390380859375,-0.7801513671875,-0.02178955078125,-0.27020263671875,4443,6904,-2096,25,35,29
61171901,-0.55975341796875,-0.781005859375,-0.02166748046875,-0.2763671875,4485,6863,-2110,28,37,34
61181882,-0.55523681640625,-0.78192138671875,-0.02142333984375,-0.28289794921875,4538,6847,-2180,30,39,37
61191868,-0.55023193359375,-0.782958984375,-0.02117919921875,-0.2896728515625,4629,6742,-2272,32,41,39
61201852,-0.54473876953125,-0.78411865234375,-0.02081298828125,-0.296875,4767,6500,-2311,36,43,42
61211834,-0.5386962890625,-0.78533935546875,-0.0203857421875,-0.30462646484375,4927,6200,-2306,40,46,45
61221818,-0.531982421875,-0.78668212890625,-0.0201416015625,-0.31280517578125,5080,5920,-2303,45,49,45
61231800,-0.524658203125,-0.7882080078125,-0.02044677734375,-0.32122802734375,5224,5732,-2342,51,52,44
61241784,-0.51690673828125,-0.789794921875,-0.0216064453125,-0.32958984375,5333,5643,-2397,57,56,40
61251765,-0.5087890625,-0.79150390625,-0.02362060546875,-0.33795166015625,5383,5606,-2482,61,59,35
61261756,-0.5003662109375,-0.79327392578125,-0.026611328125,-0.3460693359375,5414,5676,-2629,65,63,30
61271737,-0.4918212890625,-0.79498291015625,-0.0306396484375,-0.35394287109375,5394,5769,-2810,69,66,23
61281715,-0.48333740234375,-0.79656982421875,-0.035888671875,-0.36138916015625,5351,5843,-2978,71,69,14
61291699,-0.47503662109375,-0.79803466796875,-0.04241943359375,-0.36846923828125,5296,5919,-3115,73,72,4
61301683,-0.46697998046875,-0.79931640625,-0.05010986328125,-0.37506103515625,5260,6035,-3235,75,75,-6
61311659,-0.45916748046875,-0.80023193359375,-0.0589599609375,-0.38128662109375,5225,6049,-3317,75,77,-14
61321643,-0.4512939453125,-0.80096435546875,-0.068359375,-0.3875732421875,5108,6045,-3401,76,80,-16
61331625,-0.443359375,-0.80145263671875,-0.07830810546875,-0.39373779296875,5043,6094,-3518,78,83,-19
61341608,-0.43536376953125,-0.8017578125,-0.08880615234375,-0.39990234375,4922,6136,-3626,79,86,-23
61351592,-0.42755126953125,-0.80169677734375,-0.09991455078125,-0.40576171875,4751,6201,-3730,79,88,-28
61361573,-0.41998291015625,-0.80133056640625,-0.11175537109375,-0.41131591796875,4569,6338,-3848,78,90,-34
61371557,-0.41290283203125,-0.800537109375,-0.1243896484375,-0.41632080078125,4389,6553,-3983,77,90,-42
61381542,-0.406494140625,-0.79925537109375,-0.137939453125,-0.42071533203125,4221,6818,-4120,74,90,-51
61391522,-0.4007568359375,-0.7974853515625,-0.15216064453125,-0.42462158203125,4088,7063,-4250,71,91,-60
61401507,-0.39581298828125,-0.79522705078125,-0.16693115234375,-0.42803955078125,3962,7303,-4333,66,90,-67
61411489,-0.3917236328125,-0.79229736328125,-0.18194580078125,-0.43109130859375,3842,7522,-4371,61,89,-73
61421472,-0.3883056640625,-0.78887939453125,-0.19696044921875,-0.433837890625,3734,7735,-4413,55,88,-76
61431454,-0.385498046875,-0.78497314453125,-0.211669921875,-0.43646240234375,3640,7956,-4464,48,87,-77
61441437,-0.3831787109375,-0.78070068359375,-0.2257080078125,-0.43914794921875,3533,8169,-4482,42,86,-73
61451429,-0.38128662109375,-0.77606201171875,-0.23870849609375,-0.44207763671875,3447,8372,-4430,34,84,-67
61461411,-0.37969970703125,-0.771240234375,-0.2503662109375,-0.44549560546875,3388,8560,-4332,26,82,-58
61471394,-0.37841796875,-0.76617431640625,-0.26068115234375,-0.4493408203125,3330,8705,-4205,18,80,-50
61481370,-0.37762451171875,-0.760986328125,-0.26971435546875,-0.45355224609375,3266,8843,-4057,10,78,-43
61491353,-0.3773193359375,-0.7554931640625,-0.27764892578125,-0.45806884765625,3186,8956,-3927,2,76,-38
61501334,-0.377685546875,-0.7498779296875,-0.28472900390625,-0.46270751953125,3075,9071,-3816,-7,73,-35
61511314,-0.37872314453125,-0.74407958984375,-0.2908935546875,-0.4674072265625,2955,9134,-3698,-15,70,-32
61521296,-0.38043212890625,-0.73809814453125,-0.29620361328125,-0.47210693359375,2810,9134,-3542,-23,66,-29
61531282,-0.3826904296875,-0.73211669921875,-0.30047607421875,-0.47686767578125,2656,9048,-3379,-30,61,-25
61541262,-0.38543701171875,-0.72613525390625,-0.30377197265625,-0.48162841796875,2537,8901,-3187,-37,57,-22
61551244,-0.388671875,-0.72021484375,-0.30621337890625,-0.486328125,2448,8757,-2965,-43,52,-19
61561235,-0.3924560546875,-0.71429443359375,-0.307861328125,-0.490966796875,2378,8633,-2741,-48,47,-18
61571218,-0.3968505859375,-0.70843505859375,-0.30889892578125,-0.49530029296875,2286,8518,-2529,-53,41,-18
61581205,-0.40185546875,-0.7025146484375,-0.3095703125,-0.499267578125,2174,8398,-2332,-57,36,-19
61591188,-0.40740966796875,-0.69671630859375,-0.3099365234375,-0.50262451171875,2043,8289,-2155,-60,30,-21
61601173,-0.41357421875,-0.69097900390625,-0.31005859375,-0.5054931640625,1914,8195,-1995,-63,24,-24
61611154,-0.42022705078125,-0.6854248046875,-0.30987548828125,-0.5076904296875,1808,8106,-1877,-65,18,-26
61621126,-0.4273681640625,-0.6800537109375,-0.30938720703125,-0.50921630859375,1725,8016,-1765,-67,11,-28
61631113,-0.43475341796875,-0.675048828125,-0.30853271484375,-0.51019287109375,1644,7886,-1627,-67,4,-28
61641094,-0.44232177734375,-0.67034912109375,-0.30718994140625,-0.51055908203125,1583,7749,-1473,-67,-3,-28
61651071,-0.45001220703125,-0.6661376953125,-0.305419921875,-0.510498046875,1534,7593,-1288,-66,-10,-27
61661057,-0.45770263671875,-0.66229248046875,-0.30328369140625,-0.5098876953125,1497,7463,-1119,-64,-16,-26
61671038,-0.46539306640625,-0.65899658203125,-0.30084228515625,-0.50872802734375,1466,7334,-948,-62,-22,-26
61681020,-0.47296142578125,-0.6561279296875,-0.298095703125,-0.50701904296875,1428,7214,-802,-59,-28,-25
61691003,-0.48046875,-0.65380859375,-0.2950439453125,-0.50482177734375,1427,7125,-698,-57,-34,-24
61700994,-0.48779296875,-0.6519775390625,-0.291748046875,-0.50201416015625,1445,7080,-630,-54,-39,-24
61710977,-0.4949951171875,-0.65057373046875,-0.28826904296875,-0.498779296875,1478,7067,-615,-52,-44,-24
61720953,-0.50213623046875,-0.64959716796875,-0.28448486328125,-0.4949951171875,1522,7081,-619,-50,-49,-23
61730935,-0.509033203125,-0.64910888671875,-0.28033447265625,-0.490966796875,1589,7055,-583,-48,-53,-20
61740919,-0.515625,-0.6490478515625,-0.27557373046875,-0.48687744140625,1651,6990,-520,-47,-58,-14
61750903,-0.521728515625,-0.6494140625,-0.2698974609375,-0.4830322265625,1727,6848,-447,-46,-60,-6
61760886,-0.52716064453125,-0.6502685546875,-0.26318359375,-0.47967529296875,1807,6720,-360,-45,-63,5
61770868,-0.53192138671875,-0.651611328125,-0.25543212890625,-0.476806640625,1919,6597,-276,-45,-65,16
61780852,-0.53594970703125,-0.6533203125,-0.246826171875,-0.47442626953125,2071,6506,-184,-44,-66,25
61790836,-0.5396728515625,-0.65521240234375,-0.23760986328125,-0.472412109375,2233,6489,-101,-44,-67,30
61800819,-0.543212890625,-0.656982421875,-0.22833251953125,-0.47039794921875,2394,6553,-2,-43,-66,29
61810802,-0.54693603515625,-0.6585693359375,-0.21954345703125,-0.468017578125,2552,6673,53,-43,-65,23
61820784,-0.55108642578125,-0.65985107421875,-0.21148681640625,-0.46502685546875,2707,6826,93,-43,-65,13
61830765,-0.55572509765625,-0.66082763671875,-0.204345703125,-0.4613037109375,2840,6949,124,-42,-64,2
61840756,-0.56085205078125,-0.66156005859375,-0.19818115234375,-0.456787109375,2942,7002,138,-41,-64,-9
61850735,-0.56634521484375,-0.6619873046875,-0.19287109375,-0.45166015625,3025,7017,184,-40,-63,-18
61860715,-0.57208251953125,-0.66217041015625,-0.18829345703125,-0.44598388671875,3074,6981,220,-38,-62,-26
61870697,-0.577880859375,-0.6622314453125,-0.184326171875,-0.44000244140625,3127,6944,271,-37,-61,-31
61880677,-0.58380126953125,-0.6622314453125,-0.1807861328125,-0.4337158203125,3157,6949,324,-35,-60,-35
61890661,-0.58966064453125,-0.66204833984375,-0.1776123046875,-0.42724609375,3191,6975,388,-34,-59,-38
61900645,-0.59539794921875,-0.661865234375,-0.17474365234375,-0.42071533203125,3184,7022,432,-32,-57,-39
61910635,-0.60089111328125,-0.66168212890625,-0.171875,-0.414306640625,3149,7062,471,-31,-56,-36
61920615,-0.6060791015625,-0.66156005859375,-0.1689453125,-0.408203125,3116,7093,523,-30,-55,-33
61930595,-0.6109619140625,-0.661376953125,-0.1658935546875,-0.40240478515625,3093,7144,569,-29,-53,-30
61940579,-0.61553955078125,-0.6612548828125,-0.1627197265625,-0.3968505859375,3076,7196,622,-28,-52,-27
61950563,-0.61993408203125,-0.66107177734375,-0.15960693359375,-0.3916015625,3068,7237,655,-27,-50,-26
61960547,-0.6240234375,-0.66094970703125,-0.156494140625,-0.386474609375,3065,7267,691,-26,-48,-25
61970526,-0.62799072265625,-0.6607666015625,-0.1534423828125,-0.381591796875,3086,7299,736,-25,-47,-24
61980508,-0.63165283203125,-0.66064453125,-0.1505126953125,-0.37689208984375,3089,7326,751,-23,-45,-22
61990494,-0.635009765625,-0.66058349609375,-0.14752197265625,-0.37249755859375,3090,7367,779,-22,-43,-20
62000475,-0.63812255859375,-0.6605224609375,-0.1446533203125,-0.368408203125,3095,7439,801,-20,-41,-18
62010458,-0.64093017578125,-0.6605224609375,-0.14178466796875,-0.36456298828125,3119,7513,833,-19,-39,-16
62020439,-0.6435546875,-0.6605224609375,-0.13916015625,-0.3609619140625,3157,7587,874,-17,-36,-15
62030429,-0.6458740234375,-0.66058349609375,-0.13671875,-0.35760498046875,3210,7638,915,-15,-34,-15
62040413,-0.64801025390625,-0.66070556640625,-0.134521484375,-0.3543701171875,3240,7677,945,-13,-31,-15
62050395,-0.64996337890625,-0.6607666015625,-0.13262939453125,-0.35137939453125,3255,7729,968,-11,-28,-15
62060371,-0.6517333984375,-0.66082763671875,-0.131103515625,-0.34857177734375,3272,7747,967,-9,-26,-16
62070353,-0.6531982421875,-0.6610107421875,-0.1297607421875,-0.345947265625,3300,7724,984,-7,-23,-15
62080336,-0.6544189453125,-0.66119384765625,-0.12860107421875,-0.34368896484375,3337,7658,990,-5,-21,-13
62090320,-0.6552734375,-0.66156005859375,-0.12750244140625,-0.341796875,3372,7588,1000,-3,-18,-10
62100305,-0.65576171875,-0.66204833984375,-0.12652587890625,-0.34033203125,3412,7519,992,0,-15,-8
62110283,-0.65594482421875,-0.66259765625,-0.12554931640625,-0.3392333984375,3462,7468,977,2,-12,-5
62120268,-0.65576171875,-0.66326904296875,-0.1246337890625,-0.338623046875,3506,7449,977,4,-10,-3
62130256,-0.6552734375,-0.66400146484375,-0.123779296875,-0.33831787109375,3520,7449,984,5,-7,0
62140238,-0.65460205078125,-0.664794921875,-0.1229248046875,-0.33843994140625,3530,7485,981,7,-5,4
62150222,-0.65362548828125,-0.6656494140625,-0.1220703125,-0.3389892578125,3536,7517,968,8,-3,7
62160205,-0.6524658203125,-0.66644287109375,-0.1212158203125,-0.33990478515625,3544,7556,964,8,-1,9
62170194,-0.65106201171875,-0.66729736328125,-0.12042236328125,-0.3411865234375,3556,7565,950,9,1,11
62180174,-0.649658203125,-0.6680908203125,-0.11968994140625,-0.3426513671875,3563,7583,929,9,3,12
62190157,-0.6480712890625,-0.6688232421875,-0.11895751953125,-0.34429931640625,3574,7604,896,9,5,13
62200129,-0.6466064453125,-0.66949462890625,-0.118408203125,-0.34613037109375,3554,7633,867,8,6,13
62210109,-0.64501953125,-0.67010498046875,-0.1177978515625,-0.34808349609375,3535,7656,838,8,7,15
62220095,-0.6434326171875,-0.67059326171875,-0.11712646484375,-0.35028076171875,3512,7651,813,7,8,17
62230079,-0.641845703125,-0.6710205078125,-0.11627197265625,-0.3526611328125,3495,7652,794,6,8,19
62240061,-0.6402587890625,-0.67138671875,-0.11541748046875,-0.35504150390625,3482,7671,770,5,9,19
62250044,-0.638916015625,-0.671630859375,-0.11474609375,-0.3572998046875,3463,7681,739,4,9,15
62260026,-0.63787841796875,-0.6717529296875,-0.114501953125,-0.3590087890625,3441,7689,729,3,8,9
62270009,-0.63726806640625,-0.67169189453125,-0.11480712890625,-0.36004638671875,3403,7725,716,3,7,1
62279995,-0.63720703125,-0.6715087890625,-0.11572265625,-0.3602294921875,3349,7767,713,2,5,-8
62289978,-0.6375732421875,-0.67120361328125,-0.1171875,-0.359619140625,3285,7786,736,1,3,-16
62299955,-0.6383056640625,-0.6708984375,-0.11895751953125,-0.35833740234375,3218,7801,753,1,1,-21
62309939,-0.63909912109375,-0.6707763671875,-0.12060546875,-0.356689453125,3176,7825,734,2,-2,-22
62319919,-0.63983154296875,-0.6707763671875,-0.12200927734375,-0.3548583984375,3136,7851,707,2,-5,-20
62329901,-0.640380859375,-0.6710205078125,-0.12286376953125,-0.35308837890625,3115,7856,663,2,-8,-16
62339884,-0.64068603515625,-0.6715087890625,-0.123046875,-0.3515625,3112,7855,622,2,-10,-9
62349869,-0.640625,-0.6722412109375,-0.122314453125,-0.35052490234375,3120,7832,601,3,-13,-1
62359856,-0.64013671875,-0.6732177734375,-0.12060546875,-0.35009765625,3159,7845,596,3,-14,9
62369836,-0.63916015625,-0.6744384765625,-0.11785888671875,-0.3504638671875,3276,7877,600,3,-16,20
62379819,-0.6378173828125,-0.67584228515625,-0.1142578125,-0.35137939453125,3466,7958,628,3,-17,28
62389802,-0.63623046875,-0.67730712890625,-0.10992431640625,-0.352783203125,3718,8076,666,3,-18,33
62399784,-0.634521484375,-0.67877197265625,-0.10516357421875,-0.3544921875,3949,8229,676,2,-19,37
62409765,-0.6326904296875,-0.68023681640625,-0.10015869140625,-0.35638427734375,4142,8399,676,1,-18,39
62419758,-0.630859375,-0.68157958984375,-0.09490966796875,-0.35858154296875,4309,8537,674,0,-18,43
62429743,-0.62884521484375,-0.68280029296875,-0.089111328125,-0.3612060546875,4488,8595,687,-2,-17,49
62439716,-0.62652587890625,-0.6839599609375,-0.08258056640625,-0.3646240234375,4687,8582,711,-3,-17,58
62449701,-0.6239013671875,-0.68499755859375,-0.0751953125,-0.36883544921875,4889,8537,766,-4,-16,67
62459682,-0.62091064453125,-0.68585205078125,-0.067138671875,-0.37371826171875,5065,8504,818,-5,-15,76
62469666,-0.6175537109375,-0.68658447265625,-0.0584716796875,-0.37933349609375,5231,8420,878,-6,-14,83
62479650,-0.61395263671875,-0.68719482421875,-0.04931640625,-0.38543701171875,5383,8320,936,-6,-13,89
62489635,-0.61016845703125,-0.6875,-0.0400390625,-0.391845703125,5545,8225,988,-7,-11,91
62499617,-0.6063232421875,-0.68768310546875,-0.03082275390625,-0.3983154296875,5736,8097,1032,-8,-10,91
62509599,-0.6025390625,-0.68768310546875,-0.02191162109375,-0.40460205078125,5943,7989,1047,-8,-9,87
62519582,-0.598876953125,-0.6875,-0.01336669921875,-0.41064453125,6147,7902,1035,-8,-8,82
62529564,-0.59539794921875,-0.687255859375,-0.0052490234375,-0.41619873046875,6293,7822,1022,-8,-8,78
62539548,-0.592041015625,-0.68695068359375,0.00244140625,-0.42156982421875,6395,7756,1004,-9,-7,75
62549530,-0.5887451171875,-0.6864013671875,0.0101318359375,-0.42681884765625,6486,7653,978,-9,-7,76
62559512,-0.58526611328125,-0.68585205078125,0.01800537109375,-0.43231201171875,6546,7504,978,-10,-7,80
62569495,-0.58148193359375,-0.6851806640625,0.02618408203125,-0.43804931640625,6610,7364,1003,-9,-7,84
62579479,-0.577392578125,-0.6844482421875,0.03472900390625,-0.4439697265625,6678,7228,1004,-9,-7,88
62589461,-0.5731201171875,-0.68365478515625,0.043212890625,-0.44989013671875,6734,7150,992,-8,-7,88
62599448,-0.56890869140625,-0.68292236328125,0.051513671875,-0.45550537109375,6785,7102,955,-8,-7,86
62609433,-0.56463623046875,-0.68212890625,0.0596923828125,-0.46087646484375,6839,7028,906,-8,-8,86
62619417,-0.56024169921875,-0.6812744140625,0.06805419921875,-0.46630859375,6924,6971,870,-8,-9,88
62629399,-0.5556640625,-0.680419921875,0.07666015625,-0.47174072265625,7045,6929,833,-9,-9,91
62639377,-0.5509033203125,-0.67938232421875,0.08551025390625,-0.4771728515625,7191,6924,795,-9,-10,93
62649359,-0.54608154296875,-0.67828369140625,0.09454345703125,-0.4825439453125,7335,6943,748,-10,-11,95
62659341,-0.54119873046875,-0.67706298828125,0.10369873046875,-0.4879150390625,7462,6941,721,-11,-11,97
62669325,-0.53607177734375,-0.67559814453125,0.11328125,-0.493408203125,7571,6895,694,-12,-11,102
62679308,-0.53057861328125,-0.67388916015625,0.12335205078125,-0.499267578125,7693,6824,654,-14,-10,109
62689293,-0.52471923828125,-0.67181396484375,0.134033203125,-0.50543212890625,7831,6776,634,-15,-10,115
62699276,-0.5185546875,-0.66949462890625,0.1451416015625,-0.51177978515625,7950,6709,608,-16,-10,120
62709258,-0.51220703125,-0.6668701171875,0.15655517578125,-0.5181884765625,8070,6634,589,-18,-10,123
62719238,-0.505859375,-0.6639404296875,0.1680908203125,-0.5245361328125,8222,6529,558,-20,-9,125
62729230,-0.49957275390625,-0.6607666015625,0.1795654296875,-0.53070068359375,8403,6426,546,-22,-9,123
62739214,-0.49359130859375,-0.65728759765625,0.19091796875,-0.53662109375,8591,6297,520,-24,-8,120
62749192,-0.48785400390625,-0.653564453125,0.20196533203125,-0.5423583984375,8742,6115,510,-26,-6,118
62759184,-0.48223876953125,-0.64959716796875,0.2130126953125,-0.54791259765625,8860,5873,496,-27,-5,118
62769167,-0.4764404296875,-0.64520263671875,0.22430419921875,-0.55364990234375,8921,5554,506,-28,-4,121
62779143,-0.47021484375,-0.64044189453125,0.23590087890625,-0.55963134765625,8984,5193,504,-29,-3,126
62789119,-0.463623046875,-0.63519287109375,0.24786376953125,-0.56591796875,9081,4816,534,-29,-1,130
62799107,-0.456787109375,-0.62969970703125,0.25970458984375,-0.572265625,9237,4504,535,-28,0,131
62809086,-0.45013427734375,-0.6240234375,0.27105712890625,-0.578369140625,9418,4214,571,-28,2,126
62819068,-0.44378662109375,-0.618408203125,0.28167724609375,-0.584228515625,9564,3913,604,-26,4,120
62829051,-0.4376220703125,-0.61273193359375,0.291748046875,-0.5899658203125,9660,3623,637,-25,5,117
62839035,-0.43121337890625,-0.60693359375,0.30145263671875,-0.59576416015625,9728,3328,666,-22,7,118
62849018,-0.4241943359375,-0.60089111328125,0.31121826171875,-0.601806640625,9812,3081,699,-19,8,124
62859000,-0.41668701171875,-0.59454345703125,0.32098388671875,-0.6082763671875,9960,2912,711,-17,10,129
62868990,-0.40875244140625,-0.58795166015625,0.33056640625,-0.6148681640625,10147,2808,717,-15,12,132
62878964,-0.400634765625,-0.58111572265625,0.3399658203125,-0.62152099609375,10289,2718,705,-14,14,134
62888947,-0.39215087890625,-0.57403564453125,0.34930419921875,-0.6282958984375,10339,2560,680,-13,16,138
62898928,-0.383056640625,-0.56640625,0.35888671875,-0.6353759765625,10270,2333,648,-12,17,146
62908912,-0.37310791015625,-0.55816650390625,0.36883544921875,-0.64288330078125,10190,2092,623,-10,19,155
62918896,-0.362548828125,-0.54949951171875,0.37890625,-0.6505126953125,10091,1855,627,-9,20,160
62928878,-0.3516845703125,-0.54046630859375,0.3887939453125,-0.65814208984375,10021,1639,638,-8,21,161
62938863,-0.341064453125,-0.53143310546875,0.398193359375,-0.6654052734375,9988,1474,628,-7,22,156
62948844,-0.3310546875,-0.522705078125,0.40679931640625,-0.672119140625,9935,1327,627,-7,22,147
62958826,-0.3218994140625,-0.51434326171875,0.41455078125,-0.67822265625,9799,1192,619,-7,23,137
62968810,-0.31341552734375,-0.50628662109375,0.4217529296875,-0.683837890625,9583,1057,595,-8,22,130
62978793,-0.3048095703125,-0.49810791015625,0.42889404296875,-0.68927001953125,9322,910,581,-8,22,131
62988773,-0.295654296875,-0.48956298828125,0.4364013671875,-0.6947021484375,9030,768,586,-9,21,140
62998764,-0.2852783203125,-0.480224609375,0.44464111328125,-0.70025634765625,8703,628,599,-10,19,154
63008747,-0.2734375,-0.469970703125,0.45379638671875,-0.70599365234375,8343,433,596,-10,18,169
63018731,-0.26019287109375,-0.45880126953125,0.46380615234375,-0.71185302734375,7968,166,619,-11,17,182
63028706,-0.2462158203125,-0.44708251953125,0.47406005859375,-0.717529296875,7563,-95,597,-12,16,186
63038689,-0.232421875,-0.4354248046875,0.48406982421875,-0.72259521484375,7187,-364,580,-13,15,180
63048671,-0.2193603515625,-0.4241943359375,0.49346923828125,-0.72698974609375,6854,-626,602,-14,13,168
63058656,-0.20721435546875,-0.41375732421875,0.5020751953125,-0.73065185546875,6555,-888,624,-14,11,156
63068636,-0.19580078125,-0.40399169921875,0.51007080078125,-0.73370361328125,6247,-1153,663,-14,8,145
63078620,-0.1845703125,-0.39453125,0.5177001953125,-0.73638916015625,5886,-1429,684,-14,6,142
63088604,-0.17279052734375,-0.38494873046875,0.525390625,-0.7388916015625,5498,-1705,671,-13,4,146
63098586,-0.1602783203125,-0.37493896484375,0.53326416015625,-0.7412109375,5118,-1945,661,-13,2,151
63108570,-0.14715576171875,-0.36474609375,0.5411376953125,-0.7432861328125,4771,-2147,633,-12,0,155
63118553,-0.1337890625,-0.35455322265625,0.54888916015625,-0.7451171875,4503,-2328,628,-12,-2,153
63128533,-0.120849609375,-0.344970703125,0.55615234375,-0.74639892578125,4349,-2516,622,-12,-4,146
63138515,-0.10882568359375,-0.33636474609375,0.562744140625,-0.74725341796875,4249,-2669,633,-12,-7,132
63148499,-0.0980224609375,-0.3289794921875,0.5684814453125,-0.7476806640625,4123,-2819,649,-11,-9,117
63158481,-0.08807373046875,-0.3226318359375,0.5736083984375,-0.74774169921875,3953,-2966,622,-10,-12,105
63168463,-0.07843017578125,-0.3167724609375,0.5784912109375,-0.74761962890625,3730,-3100,558,-9,-14,101
63178448,-0.068603515625,-0.31085205078125,0.583251953125,-0.747314453125,3452,-3247,509,-9,-15,102
63188436,-0.05804443359375,-0.3045654296875,0.58819580078125,-0.7469482421875,3193,-3412,482,-9,-16,109
63198420,-0.0467529296875,-0.2977294921875,0.59332275390625,-0.7464599609375,2988,-3565,477,-9,-17,116
63208404,-0.03472900390625,-0.29046630859375,0.59844970703125,-0.745849609375,2837,-3700,506,-8,-18,123
63218379,-0.02227783203125,-0.28277587890625,0.6036376953125,-0.7451171875,2699,-3833,531,-8,-18,128
63228361,-0.00946044921875,-0.27471923828125,0.60870361328125,-0.7442626953125,2531,-3977,531,-8,-18,130
63238343,0.00360107421875,-0.266357421875,0.61383056640625,-0.7431640625,2300,-4163,528,-8,-18,132
63248327,0.01678466796875,-0.2576904296875,0.6187744140625,-0.741943359375,2033,-4353,520,-8,-17,133
63258310,0.0299072265625,-0.2489013671875,0.62359619140625,-0.740478515625,1764,-4542,497,-8,-16,131
63268293,0.04278564453125,-0.24005126953125,0.628173828125,-0.7388916015625,1495,-4695,480,-8,-15,129
63278276,0.05517578125,-0.2313232421875,0.63250732421875,-0.73712158203125,1243,-4839,477,-8,-14,124
63288259,0.06707763671875,-0.222900390625,0.63653564453125,-0.73529052734375,996,-4984,504,-8,-13,118
63298239,0.0782470703125,-0.2147216796875,0.64031982421875,-0.73333740234375,731,-5157,530,-9,-11,111
63308233,0.08868408203125,-0.20697021484375,0.643798828125,-0.7313232421875,448,-5329,580,-9,-10,104
63318214,0.098388671875,-0.19952392578125,0.64697265625,-0.72930908203125,149,-5505,631,-10,-9,96
63328194,0.1072998046875,-0.1925048828125,0.64996337890625,-0.727294921875,-162,-5661,670,-10,-7,88
63338186,0.1156005859375,-0.18585205078125,0.65277099609375,-0.72528076171875,-442,-5792,693,-10,-6,82
63348173,0.12335205078125,-0.179443359375,0.65545654296875,-0.72314453125,-706,-5903,708,-11,-5,78
63358153,0.13104248046875,-0.173095703125,0.65802001953125,-0.72100830078125,-956,-6005,740,-11,-6,77
63368122,0.13885498046875,-0.16668701171875,0.66058349609375,-0.71875,-1174,-6129,762,-11,-6,79
63378106,0.14691162109375,-0.159912109375,0.6632080078125,-0.71624755859375,-1386,-6237,781,-12,-5,82
63388088,0.1552734375,-0.15283203125,0.6658935546875,-0.71356201171875,-1609,-6360,795,-13,-6,86
63398070,0.1639404296875,-0.14544677734375,0.66851806640625,-0.71063232421875,-1854,-6477,783,-13,-6,89
63408053,0.17279052734375,-0.13800048828125,0.671142578125,-0.70758056640625,-2101,-6586,774,-13,-6,90
63418037,0.18182373046875,-0.13043212890625,0.6737060546875,-0.704345703125,-2328,-6685,762,-13,-8,91
63428020,0.1910400390625,-0.12298583984375,0.67608642578125,-0.700927734375,-2520,-6777,760,-13,-9,92
63438002,0.200439453125,-0.11541748046875,0.67828369140625,-0.69744873046875,-2695,-6881,780,-13,-10,94
63447992,0.2100830078125,-0.10784912109375,0.68023681640625,-0.69390869140625,-2867,-7001,816,-11,-11,95
63457974,0.2197265625,-0.100341796875,0.681884765625,-0.69036865234375,-3031,-7147,854,-10,-12,95
63467951,0.22918701171875,-0.09320068359375,0.68328857421875,-0.68695068359375,-3195,-7263,882,-9,-14,90
63477934,0.238037109375,-0.08673095703125,0.684326171875,-0.68377685546875,-3351,-7322,882,-7,-14,81
63487917,0.24603271484375,-0.081298828125,0.68511962890625,-0.6807861328125,-3508,-7349,850,-7,-16,70
63497898,0.25311279296875,-0.07696533203125,0.6856689453125,-0.67816162109375,-3633,-7381,814,-6,-17,58
63507882,0.25921630859375,-0.07373046875,0.68597412109375,-0.67584228515625,-3718,-7412,781,-6,-18,46
63517863,0.264404296875,-0.071533203125,0.68609619140625,-0.6739501953125,-3742,-7420,777,-6,-18,35
63527847,0.2685546875,-0.07037353515625,0.6861572265625,-0.67236328125,-3722,-7416,758,-6,-18,24
63537833,0.27178955078125,-0.07012939453125,0.68609619140625,-0.67120361328125,-3687,-7391,728,-6,-18,13
63547816,0.2740478515625,-0.07073974609375,0.68603515625,-0.6702880859375,-3636,-7336,684,-6,-17,3
63557793,0.27557373046875,-0.072021484375,0.68597412109375,-0.6695556640625,-3569,-7253,624,-7,-17,-5
63567771,0.2764892578125,-0.0738525390625,0.68603515625,-0.6689453125,-3480,-7196,566,-8,-16,-10
63577763,0.27703857421875,-0.0760498046875,0.6861572265625,-0.6683349609375,-3354,-7169,498,-10,-16,-13
63587746,0.27734375,-0.07843017578125,0.6864013671875,-0.66766357421875,-3186,-7199,434,-10,-15,-14
63597721,0.2774658203125,-0.08087158203125,0.68670654296875,-0.6669921875,-2990,-7245,366,-11,-14,-13
63607705,0.2774658203125,-0.0833740234375,0.68707275390625,-0.66632080078125,-2765,-7303,289,-12,-14,-13
63617688,0.27728271484375,-0.08587646484375,0.68756103515625,-0.66552734375,-2566,-7341,194,-13,-12,-14
63627671,0.27685546875,-0.0885009765625,0.688232421875,-0.66473388671875,-2376,-7392,119,-14,-12,-15
63637654,0.27630615234375,-0.0911865234375,0.68896484375,-0.66387939453125,-2187,-7448,68,-15,-11,-15
63647635,0.275634765625,-0.09393310546875,0.689697265625,-0.6629638671875,-2004,-7538,22,-15,-11,-15
63657618,0.27490234375,-0.0965576171875,0.6905517578125,-0.6619873046875,-1828,-7674,-26,-16,-10,-14
63667602,0.274169921875,-0.09906005859375,0.69146728515625,-0.66094970703125,-1672,-7818,-70,-16,-9,-12
63677584,0.2734375,-0.10150146484375,0.6923828125,-0.65997314453125,-1532,-7940,-115,-16,-8,-12
63687567,0.27264404296875,-0.10382080078125,0.6932373046875,-0.6590576171875,-1423,-8041,-160,-14,-8,-12
63697551,0.27178955078125,-0.1060791015625,0.69403076171875,-0.65814208984375,-1307,-8112,-209,-14,-7,-11
63707533,0.27099609375,-0.108154296875,0.69482421875,-0.6573486328125,-1224,-8163,-246,-13,-6,-9
63717518,0.2703857421875,-0.10992431640625,0.69561767578125,-0.656494140625,-1139,-8212,-286,-12,-6,-7
63727498,0.26995849609375,-0.111328125,0.6964111328125,-0.65557861328125,-1074,-8256,-362,-11,-5,-3
63737487,0.269775390625,-0.1123046875,0.69720458984375,-0.65460205078125,-1034,-8331,-411,-10,-4,1
63747466,0.26995849609375,-0.11279296875,0.69793701171875,-0.6536865234375,-1024,-8425,-433,-8,-4,5
63757448,0.2703857421875,-0.11285400390625,0.69854736328125,-0.65277099609375,-1041,-8506,-445,-6,-3,9
63767437,0.27093505859375,-0.11260986328125,0.6990966796875,-0.65203857421875,-1108,-8569,-445,-4,-2,10
63777417,0.2716064453125,-0.112060546875,0.69952392578125,-0.6513671875,-1194,-8593,-422,-3,-2,11
63787397,0.2723388671875,-0.11138916015625,0.6998291015625,-0.65087890625,-1330,-8593,-399,-1,-1,11
63797389,0.27313232421875,-0.1104736328125,0.69989013671875,-0.650634765625,-1489,-8584,-377,1,0,11
63807361,0.27398681640625,-0.10943603515625,0.69989013671875,-0.65045166015625,-1672,-8557,-334,3,0,10
63817343,0.2747802734375,-0.10821533203125,0.69970703125,-0.6505126953125,-1846,-8511,-287,5,1,9
63827328,0.27532958984375,-0.10711669921875,0.6993408203125,-0.65087890625,-1990,-8448,-207,7,2,6
63837311,0.27557373046875,-0.10626220703125,0.69873046875,-0.65155029296875,-2126,-8376,-115,9,2,1
63847297,0.27532958984375,-0.1058349609375,0.69793701171875,-0.652587890625,-2254,-8270,-33,10,3,-6
63857274,0.27447509765625,-0.10577392578125,0.69696044921875,-0.65399169921875,-2349,-8180,36,12,4,-12
63867258,0.27313232421875,-0.10614013671875,0.69586181640625,-0.65570068359375,-2419,-8106,99,13,4,-18
63877239,0.27142333984375,-0.10675048828125,0.694580078125,-0.65765380859375,-2443,-8035,162,14,5,-22
63887231,0.26947021484375,-0.1075439453125,0.69317626953125,-0.65985107421875,-2425,-7954,219,16,6,-24
63897212,0.267333984375,-0.1083984375,0.691650390625,-0.66217041015625,-2367,-7853,268,16,6,-25
63907192,0.26513671875,-0.109130859375,0.6900634765625,-0.66455078125,-2319,-7743,300,18,7,-25
63917184,0.262939453125,-0.10980224609375,0.6884765625,-0.66693115234375,-2278,-7649,310,18,7,-24
63927165,0.2608642578125,-0.11029052734375,0.68695068359375,-0.66925048828125,-2238,-7548,326,18,7,-23
63937144,0.2589111328125,-0.11065673828125,0.6854248046875,-0.6715087890625,-2204,-7476,332,18,8,-21
63947122,0.2569580078125,-0.11090087890625,0.68389892578125,-0.67376708984375,-2192,-7397,354,17,8,-21
63957104,0.25482177734375,-0.111328125,0.68243408203125,-0.67596435546875,-2194,-7278,375,17,8,-24
63967085,0.25244140625,-0.11199951171875,0.68096923828125,-0.67822265625,-2204,-7164,409,15,8,-28
63977068,0.2496337890625,-0.11297607421875,0.6795654296875,-0.68048095703125,-2223,-7069,447,14,9,-33
63987051,0.2464599609375,-0.11444091796875,0.67816162109375,-0.68280029296875,-2256,-6989,500,13,9,-38
63997035,0.2427978515625,-0.11627197265625,0.67681884765625,-0.68511962890625,-2297,-6934,559,11,9,-42
64007019,0.23876953125,-0.11846923828125,0.675537109375,-0.6875,-2363,-6888,617,10,9,-49
64017001,0.23419189453125,-0.12127685546875,0.6741943359375,-0.6898193359375,-2420,-6867,685,8,9,-55
64026992,0.22906494140625,-0.12469482421875,0.67279052734375,-0.69232177734375,-2474,-6840,748,7,8,-63
64036976,0.22332763671875,-0.1287841796875,0.67132568359375,-0.69488525390625,-2522,-6825,803,6,7,-71
64046950,0.21697998046875,-0.1336669921875,0.6697998046875,-0.6973876953125,-2543,-6808,843,4,6,-78
64059995,0.21026611328125,-0.13909912109375,0.668212890625,-0.699951171875,-2539,-6820,865,4,5,-84
64066919,0.203369140625,-0.1448974609375,0.66656494140625,-0.702392578125,-2527,-6831,889,2,3,-86
64076900,0.19635009765625,-0.15093994140625,0.66485595703125,-0.7047119140625,-2466,-6842,900,2,2,-88
64086885,0.18927001953125,-0.1573486328125,0.6630859375,-0.7069091796875,-2354,-6794,912,1,1,-90
64096869,0.181884765625,-0.1641845703125,0.66119384765625,-0.70904541015625,-2204,-6722,935,0,-1,-94
64106849,0.1741943359375,-0.17144775390625,0.6591796875,-0.711181640625,-2031,-6636,946,-1,-2,-98
64116829,0.1661376953125,-0.17919921875,0.65704345703125,-0.713134765625,-1850,-6532,951,-2,-3,-102
64126813,0.15789794921875,-0.1871337890625,0.65478515625,-0.71502685546875,-1652,-6446,938,-2,-4,-104
64136796,0.1495361328125,-0.19525146484375,0.65252685546875,-0.71673583984375,-1437,-6373,922,-3,-4,-104
64146784,0.14105224609375,-0.2034912109375,0.650146484375,-0.71832275390625,-1210,-6277,888,-4,-5,-105
64156768,0.1322021484375,-0.2120361328125,0.64776611328125,-0.7197265625,-972,-6128,839,-5,-4,-110
64166750,0.12255859375,-0.22119140625,0.64520263671875,-0.720947265625,-731,-5950,788,-7,-4,-118
64176732,0.112060546875,-0.2310791015625,0.64239501953125,-0.7220458984375,-466,-5738,722,-9,-5,-126
64186709,0.100830078125,-0.2415771484375,0.63946533203125,-0.722900390625,-205,-5549,634,-10,-5,-133
64196692,0.08917236328125,-0.25238037109375,0.6363525390625,-0.72344970703125,67,-5448,576,-12,-5,-136
64206676,0.07745361328125,-0.26318359375,0.63311767578125,-0.72381591796875,382,-5366,551,-12,-5,-135
64216659,0.06549072265625,-0.27398681640625,0.629638671875,-0.7239990234375,729,-5281,522,-13,-5,-136
64226642,0.05322265625,-0.284912109375,0.6259765625,-0.7239990234375,1091,-5168,488,-13,-4,-138
64236623,0.040283203125,-0.29608154296875,0.6220703125,-0.72369384765625,1435,-4970,408,-14,-3,-144
64246607,0.02655029296875,-0.307861328125,0.61773681640625,-0.72314453125,1743,-4753,319,-15,-2,-152
64256589,0.01214599609375,-0.32000732421875,0.61309814453125,-0.72222900390625,1988,-4577,211,-16,-2,-157
64266571,-0.00225830078125,-0.3319091796875,0.60833740234375,-0.72100830078125,2154,-4529,124,-17,-2,-155
64276554,-0.01580810546875,-0.3428955078125,0.60369873046875,-0.71954345703125,2341,-4552,99,-15,-1,-145
64286544,-0.02825927734375,-0.35284423828125,0.59912109375,-0.71820068359375,2708,-4494,115,-13,0,-132
64296522,-0.04046630859375,-0.3624267578125,0.59429931640625,-0.716796875,3151,-4288,68,-11,1,-129
64306506,-0.0533447265625,-0.37225341796875,0.58905029296875,-0.71527099609375,3598,-3998,0,-11,3,-136
64316488,-0.06744384765625,-0.3828125,0.5830078125,-0.71343994140625,3936,-3699,-79,-12,4,-149
64326470,-0.082763671875,-0.39404296875,0.57623291015625,-0.71124267578125,4150,-3474,-152,-12,6,-162
64336455,-0.0987548828125,-0.40545654296875,0.5689697265625,-0.7086181640625,4304,-3359,-207,-13,6,-168
64346434,-0.11474609375,-0.41656494140625,0.56146240234375,-0.70574951171875,4549,-3286,-240,-13,8,-166
64356425,-0.13043212890625,-0.42724609375,0.55364990234375,-0.7027587890625,4993,-3132,-217,-11,9,-163
64366409,-0.14630126953125,-0.4378662109375,0.54534912109375,-0.69964599609375,5547,-2887,-230,-9,10,-164
64376391,-0.16265869140625,-0.44873046875,0.53619384765625,-0.69622802734375,6025,-2619,-286,-8,11,-170
64386366,-0.179443359375,-0.459716796875,0.52642822265625,-0.6923828125,6284,-2426,-313,-7,12,-176
64396350,-0.196044921875,-0.47039794921875,0.5162353515625,-0.68841552734375,6319,-2331,-319,-6,12,-177
64406334,-0.2119140625,-0.4803466796875,0.50604248046875,-0.68438720703125,6251,-2279,-310,-4,13,-171
64416317,-0.226806640625,-0.48974609375,0.49591064453125,-0.6802978515625,6337,-2077,-301,-2,11,-164
64426305,-0.2415771484375,-0.4993896484375,0.48541259765625,-0.67584228515625,6721,-1674,-337,0,9,-165
64436285,-0.257080078125,-0.50994873046875,0.4737548828125,-0.67047119140625,7241,-1151,-355,2,6,-178
64446266,-0.27349853515625,-0.521484375,0.46063232421875,-0.6641845703125,7659,-724,-329,3,3,-194
64456246,-0.29034423828125,-0.53338623046875,0.446533203125,-0.65716552734375,7799,-489,-301,6,2,-204
64466238,-0.306640625,-0.54498291015625,0.43206787109375,-0.64990234375,7765,-363,-260,8,1,-202
64476222,-0.32171630859375,-0.5556640625,0.41778564453125,-0.642822265625,7776,-148,-240,11,2,-191
64486205,-0.3358154296875,-0.5657958984375,0.40380859375,-0.63568115234375,7904,268,-270,12,1,-182
64496187,-0.34942626953125,-0.57568359375,0.3897705078125,-0.628173828125,8125,831,-318,12,-1,-178
64506173,-0.3631591796875,-0.58575439453125,0.37530517578125,-0.619873046875,8297,1371,-362,11,-4,-184
64516156,-0.37689208984375,-0.59576416015625,0.36053466796875,-0.61083984375,8314,1688,-375,10,-6,-188
64526127,-0.38995361328125,-0.6053466796875,0.345947265625,-0.6015625,8150,1783,-375,10,-9,-184
64536112,-0.4014892578125,-0.61407470703125,0.3323974609375,-0.5926513671875,7949,1788,-327,12,-10,-168
64546095,-0.411376953125,-0.6217041015625,0.3201904296875,-0.58465576171875,7967,1984,-274,13,-10,-148
64556077,-0.42010498046875,-0.62872314453125,0.30859375,-0.57708740234375,8322,2494,-284,14,-9,-136
64566060,-0.42889404296875,-0.63580322265625,0.2967529296875,-0.56903076171875,8806,3173,-316,14,-11,-141
64576042,-0.43865966796875,-0.64324951171875,0.28375244140625,-0.559814453125,9153,3826,-354,13,-12,-156
64586024,-0.44921875,-0.65087890625,0.26959228515625,-0.54949951171875,9255,4237,-373,11,-13,-171
64596008,-0.4600830078125,-0.65838623046875,0.25494384765625,-0.5384521484375,9162,4418,-382,10,-14,-177
64605996,-0.470458984375,-0.665283203125,0.24072265625,-0.5274658203125,8948,4410,-361,9,-13,-172
64615980,-0.47967529296875,-0.67132568359375,0.22760009765625,-0.5172119140625,8781,4391,-316,9,-13,-156
64625956,-0.48760986328125,-0.6766357421875,0.21575927734375,-0.50787353515625,8796,4556,-308,9,-12,-140
64635939,-0.494873046875,-0.681396484375,0.20458984375,-0.4990234375,8869,4851,-280,9,-12,-132
64645921,-0.5018310546875,-0.6859130859375,0.19354248046875,-0.490234375,8863,5114,-277,9,-11,-131
64655902,-0.5086669921875,-0.690185546875,0.182373046875,-0.48138427734375,8741,5264,-295,9,-10,-132
64665886,-0.51531982421875,-0.69427490234375,0.171142578125,-0.47247314453125,8516,5317,-301,10,-9,-133
64675870,-0.52178955078125,-0.697998046875,0.15985107421875,-0.46368408203125,8262,5373,-282,10,-8,-131
64685854,-0.52813720703125,-0.7015380859375,0.1485595703125,-0.4549560546875,8076,5569,-285,10,-7,-130
64695835,-0.53448486328125,-0.704833984375,0.1368408203125,-0.446044921875,8037,5960,-308,10,-6,-134
64705818,-0.54119873046875,-0.70806884765625,0.12432861328125,-0.4364013671875,8014,6474,-358,10,-5,-143
64715801,-0.5484619140625,-0.71124267578125,0.110595703125,-0.42572021484375,7947,6990,-435,9,-5,-157
64725784,-0.55615234375,-0.71435546875,0.09576416015625,-0.4139404296875,7780,7401,-534,8,-5,-169
64735771,-0.56402587890625,-0.7171630859375,0.080322265625,-0.4014892578125,7535,7701,-609,8,-6,-175
64745756,-0.57177734375,-0.71966552734375,0.0648193359375,-0.38873291015625,7220,7924,-657,7,-6,-175
64755738,-0.57891845703125,-0.7216796875,0.0498046875,-0.37628173828125,6880,8117,-698,7,-5,-167
64765716,-0.58544921875,-0.72332763671875,0.03582763671875,-0.364501953125,6554,8347,-723,6,-6,-154
64775699,-0.59112548828125,-0.72467041015625,0.02294921875,-0.353515625,6355,8658,-766,6,-5,-142
64785681,-0.5963134765625,-0.72576904296875,0.01104736328125,-0.34307861328125,6219,8980,-820,5,-7,-135
64795662,-0.60107421875,-0.7266845703125,-0.0003662109375,-0.33282470703125,6070,9208,-895,5,-7,-132
64805646,-0.60565185546875,-0.7274169921875,-0.01153564453125,-0.32244873046875,5878,9323,-968,5,-9,-131
64815628,-0.61004638671875,-0.72802734375,-0.02239990234375,-0.31207275390625,5694,9379,-1023,4,-10,-130
64825612,-0.61419677734375,-0.728515625,-0.03289794921875,-0.3017578125,5487,9354,-1056,4,-11,-126
64835598,-0.61798095703125,-0.72882080078125,-0.04254150390625,-0.29193115234375,5252,9241,-1037,4,-12,-118
64845580,-0.621337890625,-0.72900390625,-0.05120849609375,-0.28289794921875,5026,9130,-973,3,-13,-107
64855563,-0.62420654296875,-0.72906494140625,-0.05865478515625,-0.27471923828125,4868,9050,-904,3,-13,-95
64865547,-0.626708984375,-0.7291259765625,-0.06524658203125,-0.26715087890625,4736,8967,-832,3,-14,-88
64875528,-0.62908935546875,-0.7291259765625,-0.07147216796875,-0.26007080078125,4648,8885,-756,3,-13,-85
64885515,-0.63134765625,-0.72900390625,-0.07763671875,-0.2529296875,4589,8808,-681,3,-13,-87
64895496,-0.63372802734375,-0.728759765625,-0.084228515625,-0.24554443359375,4536,8741,-610,3,-12,-93
64905479,-0.63629150390625,-0.728271484375,-0.09136962890625,-0.23773193359375,4470,8700,-537,3,-12,-99
64915463,-0.63897705078125,-0.7275390625,-0.09893798828125,-0.2296142578125,4374,8682,-444,2,-11,-103
64925448,-0.64178466796875,-0.72650146484375,-0.10675048828125,-0.22137451171875,4265,8695,-352,1,-9,-105
64935434,-0.64459228515625,-0.7252197265625,-0.11474609375,-0.21319580078125,4136,8746,-267,0,-9,-107
64945418,-0.6474609375,-0.7237548828125,-0.12286376953125,-0.2049560546875,4018,8787,-195,-1,-7,-108
64955398,-0.650390625,-0.721923828125,-0.13134765625,-0.19659423828125,3877,8841,-177,-2,-6,-113
64965375,-0.6533203125,-0.71990966796875,-0.14044189453125,-0.187744140625,3742,8873,-220,-3,-5,-119
64975358,-0.65631103515625,-0.71759033203125,-0.150146484375,-0.17852783203125,3605,8962,-242,-3,-4,-126
64985342,-0.6593017578125,-0.71502685546875,-0.16015625,-0.16900634765625,3421,9042,-231,-4,-3,-129
64995323,-0.662109375,-0.71221923828125,-0.16998291015625,-0.1597900390625,3182,9111,-178,-4,-2,-124
65005304,-0.66473388671875,-0.70947265625,-0.17889404296875,-0.1512451171875,2921,9165,-132,-4,-3,-112
65015293,-0.6669921875,-0.70697021484375,-0.1865234375,-0.14373779296875,2659,9198,-97,-4,-4,-98
65025271,-0.66888427734375,-0.70477294921875,-0.19268798828125,-0.13720703125,2403,9189,-88,-4,-6,-82
65035255,-0.67059326171875,-0.7030029296875,-0.19732666015625,-0.131591796875,2138,9162,-91,-3,-10,-68
65045242,-0.6719970703125,-0.70159912109375,-0.20068359375,-0.12646484375,1897,9133,-104,-2,-14,-57
65055229,-0.6732177734375,-0.70062255859375,-0.2030029296875,-0.12152099609375,1671,9147,-142,0,-19,-50
65065210,-0.67425537109375,-0.70001220703125,-0.20458984375,-0.1165771484375,1446,9232,-180,2,-23,-46
65075189,-0.67510986328125,-0.69976806640625,-0.20550537109375,-0.1114501953125,1205,9350,-221,4,-27,-41
65085179,-0.67572021484375,-0.69989013671875,-0.20556640625,-0.10662841796875,972,9432,-290,6,-30,-32
65095162,-0.67608642578125,-0.70050048828125,-0.2044677734375,-0.1024169921875,736,9432,-377,8,-33,-19
65105140,-0.6761474609375,-0.70159912109375,-0.20196533203125,-0.0992431640625,538,9377,-504,9,-35,-2
65115115,-0.6759033203125,-0.70330810546875,-0.19793701171875,-0.09735107421875,373,9270,-634,9,-35,15
65125096,-0.67535400390625,-0.70538330078125,-0.19244384765625,-0.09674072265625,254,9098,-752,9,-36,31
65135080,-0.67462158203125,-0.70782470703125,-0.185791015625,-0.0972900390625,177,8924,-843,9,-35,45
65145063,-0.6737060546875,-0.71038818359375,-0.1783447265625,-0.09869384765625,138,8780,-939,9,-34,54
65155050,-0.67266845703125,-0.71307373046875,-0.17047119140625,-0.1007080078125,119,8675,-1021,9,-33,59
65165027,-0.6715087890625,-0.71563720703125,-0.16265869140625,-0.1029052734375,131,8607,-1087,9,-31,58
65175012,-0.6702880859375,-0.71807861328125,-0.1552734375,-0.10498046875,145,8555,-1150,9,-29,55
65184996,-0.66912841796875,-0.7203369140625,-0.148681640625,-0.1068115234375,160,8519,-1174,8,-26,48
65194982,-0.66796875,-0.7222900390625,-0.1429443359375,-0.10821533203125,168,8492,-1198,8,-24,40
65204958,-0.6669921875,-0.72406005859375,-0.13812255859375,-0.109130859375,169,8459,-1208,7,-22,33
65214941,-0.66607666015625,-0.72552490234375,-0.1341552734375,-0.10968017578125,172,8420,-1219,7,-19,25
65224925,-0.66522216796875,-0.72686767578125,-0.13104248046875,-0.10986328125,157,8372,-1220,6,-16,19
65234908,-0.66455078125,-0.72796630859375,-0.12860107421875,-0.10980224609375,157,8337,-1206,6,-13,13
65244890,-0.66387939453125,-0.7288818359375,-0.1268310546875,-0.109619140625,159,8296,-1206,5,-11,8
65254877,-0.663330078125,-0.7296142578125,-0.12567138671875,-0.10919189453125,175,8272,-1178,5,-9,4
65264856,-0.66290283203125,-0.730224609375,-0.12506103515625,-0.1087646484375,179,8275,-1164,4,-6,0
65274839,-0.66253662109375,-0.73065185546875,-0.1248779296875,-0.108154296875,180,8315,-1142,3,-5,-3
65284820,-0.66229248046875,-0.73095703125,-0.12506103515625,-0.10760498046875,181,8366,-1102,3,-2,-6
65294801,-0.662109375,-0.7310791015625,-0.12548828125,-0.10711669921875,177,8412,-1064,1,-1,-7
65304785,-0.66204833984375,-0.73114013671875,-0.12603759765625,-0.10675048828125,154,8440,-1027,1,1,-6
65314769,-0.6619873046875,-0.7310791015625,-0.1265869140625,-0.1065673828125,110,8447,-983,0,2,-5
65324762,-0.662109375,-0.73089599609375,-0.1270751953125,-0.10650634765625,75,8462,-924,-1,2,-4
65334742,-0.6622314453125,-0.730712890625,-0.12750244140625,-0.1065673828125,50,8492,-872,-2,2,-3
65344719,-0.6624755859375,-0.73040771484375,-0.12799072265625,-0.1065673828125,33,8510,-824,-3,2,-5
65354698,-0.66278076171875,-0.73004150390625,-0.128662109375,-0.10638427734375,21,8521,-764,-3,2,-7
65364680,-0.6632080078125,-0.72955322265625,-0.1295166015625,-0.10589599609375,24,8531,-702,-3,1,-11
65374662,-0.6636962890625,-0.72906494140625,-0.13067626953125,-0.10498046875,42,8516,-654,-3,0,-15
65384644,-0.66424560546875,-0.728515625,-0.132080078125,-0.1036376953125,53,8503,-609,-3,-1,-19
65394628,-0.66485595703125,-0.7279052734375,-0.13360595703125,-0.10198974609375,37,8476,-584,-3,-3,-22
65404610,-0.6654052734375,-0.72735595703125,-0.1351318359375,-0.10009765625,12,8458,-563,-2,-4,-22
65414591,-0.66595458984375,-0.72686767578125,-0.13641357421875,-0.09814453125,1,8433,-528,-2,-6,-20
65424575,-0.66650390625,-0.7264404296875,-0.1373291015625,-0.09625244140625,0,8389,-491,-1,-7,-18
65434558,-0.6669921875,-0.72613525390625,-0.1376953125,-0.0946044921875,10,8326,-434,-1,-9,-13
65444545,-0.66741943359375,-0.7259521484375,-0.13751220703125,-0.09320068359375,20,8255,-377,0,-10,-8
65454528,-0.66778564453125,-0.7259521484375,-0.13671875,-0.09222412109375,34,8218,-338,0,-12,-2
65464517,-0.66802978515625,-0.72607421875,-0.1353759765625,-0.09149169921875,49,8195,-311,1,-13,3
65474494,-0.668212890625,-0.72625732421875,-0.13360595703125,-0.09100341796875,73,8226,-291,1,-14,6
65484478,-0.66839599609375,-0.7265625,-0.13153076171875,-0.09063720703125,103,8251,-266,1,-14,9
65494460,-0.66851806640625,-0.72686767578125,-0.129150390625,-0.0904541015625,122,8278,-254,1,-15,11
65504448,-0.6685791015625,-0.72723388671875,-0.12664794921875,-0.09027099609375,141,8300,-240,1,-16,12
65514432,-0.66864013671875,-0.7276611328125,-0.1240234375,-0.0902099609375,172,8314,-247,2,-16,14
65524415,-0.668701171875,-0.72802734375,-0.1212158203125,-0.09027099609375,215,8307,-246,1,-16,15
65534399,-0.6688232421875,-0.72845458984375,-0.118408203125,-0.09039306640625,258,8289,-253,1,-16,15
65544375,-0.6688232421875,-0.72882080078125,-0.1156005859375,-0.09051513671875,295,8281,-263,1,-15,15
65554357,-0.66888427734375,-0.72918701171875,-0.11297607421875,-0.09063720703125,338,8276,-280,1,-14,14
65564341,-0.6689453125,-0.7294921875,-0.1104736328125,-0.0906982421875,350,8268,-296,1,-14,12
65574324,-0.66900634765625,-0.72979736328125,-0.1082763671875,-0.09075927734375,369,8265,-323,0,-13,11
65584309,-0.6690673828125,-0.72998046875,-0.1063232421875,-0.0906982421875,375,8273,-353,0,-12,8
65594293,-0.669189453125,-0.73016357421875,-0.1046142578125,-0.09051513671875,384,8287,-386,0,-11,7
65604273,-0.66937255859375,-0.730224609375,-0.10321044921875,-0.09033203125,366,8299,-427,-1,-10,5
65614255,-0.66949462890625,-0.73028564453125,-0.10198974609375,-0.09002685546875,351,8340,-482,-1,-9,3
65624243,-0.66973876953125,-0.73028564453125,-0.1009521484375,-0.0897216796875,334,8373,-510,-2,-8,2
65634225,-0.66998291015625,-0.73016357421875,-0.10009765625,-0.0894775390625,306,8399,-542,-3,-7,1
65644208,-0.67034912109375,-0.73004150390625,-0.099365234375,-0.089111328125,274,8438,-580,-3,-7,0
65654188,-0.670654296875,-0.7298583984375,-0.09881591796875,-0.08868408203125,220,8468,-628,-4,-6,0
65664188,-0.67108154296875,-0.7296142578125,-0.0982666015625,-0.0882568359375,176,8486,-666,-5,-6,0
65674162,-0.67144775390625,-0.7293701171875,-0.0977783203125,-0.087890625,132,8508,-704,-5,-6,0
65684139,-0.67193603515625,-0.72900390625,-0.09722900390625,-0.0875244140625,106,8521,-730,-6,-6,0
65694115,-0.67242431640625,-0.72869873046875,-0.09649658203125,-0.08740234375,87,8509,-746,-6,-6,3
65704098,-0.67291259765625,-0.72833251953125,-0.0955810546875,-0.08740234375,71,8494,-758,-7,-5,5
65714088,-0.6734619140625,-0.72796630859375,-0.09442138671875,-0.08758544921875,74,8469,-775,-7,-6,7
65724067,-0.6739501953125,-0.7276611328125,-0.09307861328125,-0.0880126953125,78,8428,-788,-7,-6,9
65734051,-0.67449951171875,-0.727294921875,-0.09161376953125,-0.0885009765625,77,8376,-798,-8,-5,10
65744035,-0.67498779296875,-0.7269287109375,-0.090087890625,-0.08905029296875,80,8314,-807,-8,-6,11
65754017,-0.67547607421875,-0.72662353515625,-0.088623046875,-0.089599609375,89,8264,-820,-8,-6,10
65764000,-0.67596435546875,-0.72625732421875,-0.08721923828125,-0.0899658203125,101,8209,-818,-7,-6,9
65773988,-0.676513671875,-0.72589111328125,-0.08599853515625,-0.09027099609375,125,8161,-802,-8,-6,7
65783965,-0.677001953125,-0.72552490234375,-0.08502197265625,-0.09027099609375,130,8125,-792,-7,-6,4
65793948,-0.677490234375,-0.7252197265625,-0.084228515625,-0.09014892578125,139,8098,-770,-6,-6,2
65803930,-0.67791748046875,-0.724853515625,-0.08367919921875,-0.08978271484375,146,8091,-752,-6,-6,0
65813916,-0.67840576171875,-0.72454833984375,-0.08331298828125,-0.0892333984375,155,8095,-728,-5,-6,-2
65823894,-0.6788330078125,-0.7242431640625,-0.0830078125,-0.08868408203125,156,8105,-691,-5,-6,-3
65833879,-0.67919921875,-0.7239990234375,-0.082763671875,-0.08807373046875,157,8106,-660,-4,-5,-3
65843860,-0.6795654296875,-0.7237548828125,-0.08245849609375,-0.08758544921875,171,8115,-619,-4,-5,-2
65853845,-0.67987060546875,-0.72357177734375,-0.0821533203125,-0.087158203125,169,8129,-583,-3,-5,-1
65863837,-0.68011474609375,-0.72344970703125,-0.08172607421875,-0.08673095703125,174,8141,-564,-2,-5,0
65873813,-0.68035888671875,-0.72332763671875,-0.08123779296875,-0.08648681640625,183,8165,-537,-2,-5,1
65883797,-0.68048095703125,-0.72320556640625,-0.08062744140625,-0.0863037109375,186,8178,-510,-2,-5,2
65893774,-0.6806640625,-0.72320556640625,-0.079833984375,-0.08624267578125,182,8177,-487,-2,-5,4
