subject,Joshua Spiesman
arm,right
label,2
hz,100.1749181052408
time,5.670082

timestamp_us,q0,q1,q2,q3,ax,ay,az,gx,gy,gz
78592109,0.51123046875,-0.31060791015625,0.7032470703125,0.3841552734375,-7816,1853,-1383,-4,0,-1
78602088,0.5111083984375,-0.31085205078125,0.70306396484375,0.3843994140625,-7800,1859,-1390,-3,0,-2
78612069,0.51104736328125,-0.31121826171875,0.702880859375,0.38458251953125,-7770,1858,-1394,-4,0,-2
78622052,0.510986328125,-0.31158447265625,0.70263671875,0.38470458984375,-7763,1855,-1386,-4,0,-3
78632035,0.510986328125,-0.3118896484375,0.702392578125,0.3848876953125,-7759,1854,-1385,-4,0,-3
78642017,0.510986328125,-0.31231689453125,0.70220947265625,0.385009765625,-7767,1848,-1393,-3,0,-3
78651999,0.51092529296875,-0.31268310546875,0.70196533203125,0.3851318359375,-7779,1848,-1394,-4,0,-3
78661983,0.5108642578125,-0.3131103515625,0.7017822265625,0.38525390625,-7809,1852,-1400,-3,0,-3
78671968,0.51080322265625,-0.31353759765625,0.70159912109375,0.38531494140625,-7825,1863,-1412,-3,1,-4
78681948,0.51080322265625,-0.3140869140625,0.7012939453125,0.38531494140625,-7858,1865,-1415,-4,0,-4
78691927,0.51080322265625,-0.314697265625,0.7010498046875,0.38531494140625,-7901,1869,-1431,-3,1,-5
78701909,0.51080322265625,-0.3153076171875,0.7008056640625,0.38525390625,-7929,1884,-1430,-4,0,-5
78711894,0.51080322265625,-0.31585693359375,0.7005615234375,0.38525390625,-7940,1894,-1418,-3,1,-5
78721877,0.5107421875,-0.31634521484375,0.7003173828125,0.38531494140625,-7945,1883,-1425,-3,1,-4
78731857,0.5106201171875,-0.31671142578125,0.7001953125,0.38543701171875,-7910,1865,-1410,-3,1,-1
78741853,0.5103759765625,-0.31689453125,0.7001953125,0.38568115234375,-7872,1849,-1402,-3,1,1
78751832,0.51007080078125,-0.31695556640625,0.7001953125,0.38604736328125,-7839,1841,-1375,-4,1,2
78761815,0.50970458984375,-0.31689453125,0.70025634765625,0.38653564453125,-7830,1836,-1365,-4,1,3
78771792,0.50921630859375,-0.3167724609375,0.70037841796875,0.38702392578125,-7826,1836,-1357,-3,1,4
78781775,0.5087890625,-0.3165283203125,0.700439453125,0.3875732421875,-7818,1831,-1345,-4,1,5
78791753,0.50836181640625,-0.31640625,0.7005615234375,0.3880615234375,-7821,1820,-1334,-3,1,4
78801739,0.50799560546875,-0.31622314453125,0.70062255859375,0.3885498046875,-7838,1823,-1331,-3,1,4
78811722,0.5076904296875,-0.3160400390625,0.70068359375,0.3890380859375,-7849,1839,-1327,-3,1,3
78821705,0.50750732421875,-0.31597900390625,0.70062255859375,0.389404296875,-7871,1843,-1319,-3,0,2
78831690,0.5074462890625,-0.3160400390625,0.70050048828125,0.3896484375,-7916,1846,-1311,-3,-1,0
78841668,0.50750732421875,-0.31610107421875,0.7003173828125,0.389892578125,-7943,1829,-1286,-2,-1,-1
78851655,0.5076904296875,-0.31622314453125,0.70001220703125,0.3900146484375,-7985,1824,-1260,-2,-2,-2
78861638,0.50799560546875,-0.31634521484375,0.69964599609375,0.39019775390625,-8034,1821,-1240,-2,-3,-2
78871617,0.50848388671875,-0.31634521484375,0.69921875,0.39044189453125,-8086,1814,-1206,-2,-5,-2
78881611,0.509033203125,-0.31610107421875,0.69873046875,0.3907470703125,-8144,1828,-1168,-1,-6,-1
78891599,0.50970458984375,-0.31573486328125,0.69818115234375,0.39105224609375,-8206,1818,-1128,0,-7,1
78901567,0.510498046875,-0.31512451171875,0.6976318359375,0.39154052734375,-8275,1817,-1099,0,-9,2
78911544,0.51141357421875,-0.31427001953125,0.697021484375,0.39208984375,-8342,1802,-1073,1,-11,3
78921527,0.51251220703125,-0.31317138671875,0.6964111328125,0.39276123046875,-8400,1791,-1042,2,-13,5
78931511,0.513671875,-0.31182861328125,0.6956787109375,0.39349365234375,-8421,1800,-1006,2,-15,6
78941493,0.5150146484375,-0.31024169921875,0.6949462890625,0.394287109375,-8425,1804,-968,3,-17,7
78951476,0.5164794921875,-0.3084716796875,0.69415283203125,0.39520263671875,-8413,1828,-941,4,-19,7
78961459,0.51812744140625,-0.3065185546875,0.69329833984375,0.39605712890625,-8373,1838,-905,5,-20,7
78971439,0.5198974609375,-0.3045654296875,0.6923828125,0.3968505859375,-8336,1845,-878,5,-22,6
78981422,0.5218505859375,-0.302490234375,0.69140625,0.3975830078125,-8264,1866,-845,7,-23,5
78991413,0.52398681640625,-0.30047607421875,0.6903076171875,0.39813232421875,-8206,1861,-814,7,-24,4
79001390,0.5262451171875,-0.29840087890625,0.68927001953125,0.39862060546875,-8133,1885,-770,8,-24,3
79011369,0.52850341796875,-0.2962646484375,0.68817138671875,0.3990478515625,-8035,1922,-735,9,-25,2
79021354,0.5308837890625,-0.294189453125,0.68707275390625,0.39935302734375,-7968,1962,-689,9,-25,2
79031337,0.533203125,-0.29205322265625,0.68603515625,0.39959716796875,-7906,1990,-644,10,-24,1
79041319,0.53558349609375,-0.28985595703125,0.68499755859375,0.39984130859375,-7859,2040,-604,11,-25,2
79051303,0.53790283203125,-0.28759765625,0.6839599609375,0.4000244140625,-7846,2082,-551,11,-24,2
79061285,0.5401611328125,-0.28521728515625,0.68304443359375,0.4002685546875,-7840,2131,-512,12,-24,3
79071270,0.5423583984375,-0.28271484375,0.68218994140625,0.4005126953125,-7855,2194,-492,12,-24,4
79081251,0.54449462890625,-0.280029296875,0.68145751953125,0.4007568359375,-7866,2260,-470,13,-24,6
79091235,0.54656982421875,-0.27728271484375,0.6807861328125,0.401123046875,-7897,2318,-441,13,-24,7
79101217,0.54852294921875,-0.2742919921875,0.68011474609375,0.4014892578125,-7931,2375,-429,13,-24,9
79111198,0.5504150390625,-0.27117919921875,0.6795654296875,0.4019775390625,-7959,2424,-390,14,-24,11
79121189,0.55224609375,-0.26776123046875,0.67901611328125,0.4027099609375,-7999,2487,-339,14,-25,13
79131170,0.55401611328125,-0.26422119140625,0.67852783203125,0.40350341796875,-8060,2556,-282,14,-25,14
79141146,0.5557861328125,-0.26055908203125,0.677978515625,0.404296875,-8136,2632,-224,14,-25,15
79151129,0.5576171875,-0.2568359375,0.6773681640625,0.40521240234375,-8232,2724,-170,14,-26,14
79161112,0.55950927734375,-0.2530517578125,0.6767578125,0.40606689453125,-8333,2838,-116,14,-27,14
79171094,0.5615234375,-0.249267578125,0.67596435546875,0.40692138671875,-8441,2939,-56,14,-28,13
79181078,0.5635986328125,-0.24542236328125,0.675048828125,0.4078369140625,-8537,3040,15,14,-30,14
79191061,0.56573486328125,-0.2413330078125,0.67413330078125,0.40887451171875,-8592,3131,65,14,-31,15
79201043,0.56781005859375,-0.2369384765625,0.67315673828125,0.41015625,-8626,3228,117,14,-33,18
79211025,0.56982421875,-0.23211669921875,0.672119140625,0.4117431640625,-8680,3320,209,14,-34,22
79221007,0.57177734375,-0.22686767578125,0.67108154296875,0.41375732421875,-8779,3453,314,14,-36,27
79230993,0.57366943359375,-0.22113037109375,0.66986083984375,0.4161376953125,-8924,3657,450,14,-38,30
79240975,0.57562255859375,-0.21502685546875,0.6685791015625,0.418701171875,-9064,3867,576,14,-40,32
79250957,0.57757568359375,-0.20855712890625,0.667236328125,0.4215087890625,-9195,4061,674,14,-43,34
79260939,0.5794677734375,-0.20166015625,0.66571044921875,0.424560546875,-9309,4228,752,14,-45,39
79270926,0.5811767578125,-0.194091796875,0.6641845703125,0.42816162109375,-9385,4374,826,14,-48,47
79280908,0.58251953125,-0.185546875,0.66265869140625,0.43255615234375,-9405,4509,921,14,-51,58
79290892,0.58331298828125,-0.1759033203125,0.6611328125,0.437744140625,-9405,4662,1027,14,-53,70
79300876,0.58367919921875,-0.165283203125,0.65948486328125,0.44378662109375,-9402,4825,1124,13,-55,80
79310855,0.58380126953125,-0.15411376953125,0.65777587890625,0.4501953125,-9367,4968,1210,12,-57,84
79320846,0.5838623046875,-0.142822265625,0.65576171875,0.4566650390625,-9301,5129,1283,12,-59,84
79330828,0.584228515625,-0.1317138671875,0.6534423828125,0.462890625,-9276,5304,1332,11,-62,79
79340805,0.5850830078125,-0.12109375,0.65069580078125,0.46856689453125,-9253,5473,1378,10,-64,72
79350786,0.58636474609375,-0.11090087890625,0.6475830078125,0.4737548828125,-9204,5616,1412,10,-67,66
79360775,0.58795166015625,-0.10089111328125,0.6441650390625,0.4786376953125,-9160,5747,1432,10,-69,63
79370751,0.589599609375,-0.0906982421875,0.64056396484375,0.48345947265625,-9099,5842,1445,9,-72,65
79380733,0.591064453125,-0.08013916015625,0.63677978515625,0.488525390625,-9010,5927,1437,9,-74,71
79390719,0.59210205078125,-0.06890869140625,0.6328125,0.49407958984375,-8924,6013,1456,8,-75,78
79400701,0.5926513671875,-0.05706787109375,0.628662109375,0.50018310546875,-8788,6070,1475,7,-77,87
79410684,0.5926513671875,-0.0445556640625,0.6243896484375,0.50677490234375,-8644,6129,1505,7,-78,95
79420665,0.5921630859375,-0.0316162109375,0.61993408203125,0.51373291015625,-8478,6191,1545,6,-78,101
79430655,0.59130859375,-0.0184326171875,0.6153564453125,0.52081298828125,-8291,6236,1580,6,-78,105
79440637,0.590087890625,-0.005126953125,0.6107177734375,0.52789306640625,-8075,6295,1622,6,-77,105
79450616,0.5887451171875,0.008056640625,0.60595703125,0.5347900390625,-7844,6357,1689,6,-76,105
79460607,0.5872802734375,0.02099609375,0.6011962890625,0.5413818359375,-7592,6404,1735,7,-74,102
79470590,0.58575439453125,0.03350830078125,0.59649658203125,0.54754638671875,-7354,6427,1777,7,-72,99
79480567,0.58416748046875,0.04571533203125,0.59185791015625,0.55340576171875,-7162,6469,1820,7,-71,96
79490544,0.58245849609375,0.0576171875,0.5872802734375,0.55889892578125,-6980,6520,1874,8,-68,96
79500527,0.58038330078125,0.069580078125,0.58270263671875,0.564453125,-6828,6587,1923,8,-67,99
79510511,0.57769775390625,0.081787109375,0.57818603515625,0.57025146484375,-6659,6659,1963,8,-65,105
79520491,0.57421875,0.09442138671875,0.573486328125,0.5765380859375,-6465,6719,1997,8,-64,114
79530476,0.56982421875,0.1075439453125,0.568603515625,0.5833740234375,-6260,6758,2027,7,-62,124
79540457,0.56463623046875,0.12103271484375,0.56353759765625,0.5906982421875,-6056,6813,2045,6,-61,131
79550439,0.55908203125,0.1343994140625,0.55816650390625,0.59808349609375,-5846,6881,2072,4,-60,132
79560422,0.55364990234375,0.14727783203125,0.5528564453125,0.60504150390625,-5655,6962,2091,4,-58,125
79570410,0.5487060546875,0.1593017578125,0.54754638671875,0.61126708984375,-5465,7063,2118,3,-57,115
79580386,0.54443359375,0.17047119140625,0.54241943359375,0.61663818359375,-5263,7135,2157,3,-56,104
79590370,0.54046630859375,0.180908203125,0.5374755859375,0.62139892578125,-5048,7169,2187,3,-54,98
79600352,0.53643798828125,0.19122314453125,0.53253173828125,0.6260986328125,-4825,7196,2206,3,-53,99
79610333,0.53173828125,0.20172119140625,0.5274658203125,0.63104248046875,-4553,7203,2227,3,-51,106
79620317,0.526123046875,0.212646484375,0.52203369140625,0.63665771484375,-4214,7175,2263,2,-49,116
79630303,0.51947021484375,0.2239990234375,0.51629638671875,0.64288330078125,-3868,7146,2284,2,-47,126
79640280,0.511962890625,0.2354736328125,0.5103759765625,0.64947509765625,-3559,7155,2322,1,-44,131
79650263,0.50408935546875,0.2467041015625,0.50439453125,0.6561279296875,-3296,7205,2353,0,-41,131
79660245,0.49627685546875,0.25732421875,0.49853515625,0.6624755859375,-3059,7286,2379,-1,-38,126
79670225,0.48876953125,0.2672119140625,0.492919921875,0.6683349609375,-2861,7353,2413,-1,-36,119
79680209,0.48162841796875,0.27630615234375,0.4876708984375,0.67364501953125,-2707,7414,2416,-1,-33,111
79690197,0.47479248046875,0.2847900390625,0.48260498046875,0.6785888671875,-2556,7460,2411,-1,-31,107
79700178,0.46807861328125,0.29296875,0.47760009765625,0.68328857421875,-2409,7519,2409,-2,-30,104
79710160,0.4613037109375,0.30084228515625,0.4725341796875,0.68798828125,-2252,7577,2404,-3,-29,104
79720139,0.4542236328125,0.30877685546875,0.46728515625,0.6927490234375,-2072,7590,2394,-4,-28,108
79730122,0.446533203125,0.31683349609375,0.46173095703125,0.69781494140625,-1885,7594,2401,-4,-27,114
79740104,0.4381103515625,0.32513427734375,0.45574951171875,0.7032470703125,-1664,7545,2410,-5,-26,122
79750087,0.42913818359375,0.3336181640625,0.449462890625,0.70880126953125,-1468,7518,2434,-5,-26,127
79760070,0.419921875,0.34197998046875,0.4429931640625,0.71435546875,-1232,7498,2448,-5,-24,126
79770053,0.41082763671875,0.35003662109375,0.43670654296875,0.7196044921875,-1006,7497,2451,-5,-24,122
79780034,0.40203857421875,0.357666015625,0.4306640625,0.72442626953125,-739,7504,2461,-5,-22,116
79790017,0.3934326171875,0.364990234375,0.42474365234375,0.72900390625,-454,7466,2484,-5,-21,113
79799999,0.38458251953125,0.37213134765625,0.418701171875,0.73358154296875,-157,7384,2520,-4,-19,115
79809982,0.37530517578125,0.37921142578125,0.4124755859375,0.73828125,158,7257,2556,-4,-17,118
79819968,0.36529541015625,0.38641357421875,0.40594482421875,0.7431640625,457,7114,2581,-4,-15,124
79829948,0.35479736328125,0.39349365234375,0.39935302734375,0.74810791015625,644,7093,2577,-4,-13,126
79839930,0.34405517578125,0.40032958984375,0.3927001953125,0.75299072265625,937,6933,2621,-4,-12,127
79849914,0.33319091796875,0.4068603515625,0.38604736328125,0.7578125,1177,6836,2626,-3,-9,126
79859894,0.32244873046875,0.4129638671875,0.37969970703125,0.76239013671875,1371,6807,2622,-2,-7,121
79869879,0.31207275390625,0.41845703125,0.37371826171875,0.7666015625,1546,6749,2633,-2,-5,115
79879856,0.3021240234375,0.4234619140625,0.3681640625,0.77056884765625,1735,6661,2658,-1,-3,109
79889848,0.2923583984375,0.4281005859375,0.36260986328125,0.77435302734375,1904,6496,2674,-2,-2,108
79899828,0.28216552734375,0.4327392578125,0.35687255859375,0.77825927734375,2074,6309,2684,-2,-1,112
79909815,0.2711181640625,0.4375,0.3507080078125,0.78228759765625,2283,6093,2671,-2,1,120
79919790,0.25909423828125,0.4425048828125,0.34381103515625,0.78662109375,2457,5829,2660,-2,2,129
79929775,0.24639892578125,0.44744873046875,0.3365478515625,0.791015625,2603,5614,2658,-3,3,134
79939756,0.23358154296875,0.4521484375,0.32928466796875,0.79522705078125,2699,5463,2663,-2,4,132
79949737,0.2213134765625,0.4564208984375,0.32244873046875,0.79913330078125,2780,5352,2659,-2,5,124
79959719,0.21014404296875,0.4600830078125,0.3162841796875,0.802490234375,2863,5209,2650,-1,5,111
79969705,0.2000732421875,0.463134765625,0.3109130859375,0.805419921875,2971,5030,2634,1,5,99
79979687,0.19085693359375,0.46588134765625,0.30615234375,0.807861328125,3088,4787,2599,2,5,89
79989666,0.18194580078125,0.468505859375,0.30157470703125,0.81011962890625,3211,4543,2590,3,5,87
79999658,0.1728515625,0.47119140625,0.297119140625,0.812255859375,3319,4357,2571,5,5,88
80009639,0.16351318359375,0.473876953125,0.2926025390625,0.81427001953125,3433,4204,2573,6,4,91
80019619,0.15374755859375,0.4766845703125,0.28802490234375,0.816162109375,3554,4038,2570,7,4,93
80029612,0.1436767578125,0.4794921875,0.283447265625,0.81793212890625,3679,3851,2587,9,4,94
80039599,0.133544921875,0.48223876953125,0.27899169921875,0.819580078125,3803,3674,2603,11,5,92
80049570,0.12353515625,0.48486328125,0.27484130859375,0.82098388671875,3901,3514,2627,13,5,89
80059548,0.11376953125,0.4873046875,0.27105712890625,0.82220458984375,3998,3372,2644,15,5,86
80069529,0.10394287109375,0.48968505859375,0.267578125,0.8232421875,4119,3225,2665,17,5,85
80079512,0.09393310546875,0.49200439453125,0.26416015625,0.82415771484375,4226,3059,2710,19,5,86
80089494,0.08343505859375,0.494384765625,0.26068115234375,0.824951171875,4333,2881,2753,21,4,89
80099479,0.0726318359375,0.49688720703125,0.25714111328125,0.8255615234375,4436,2680,2780,23,4,91
80109461,0.0615234375,0.4993896484375,0.25347900390625,0.82611083984375,4553,2419,2810,24,4,92
80119445,0.05023193359375,0.501953125,0.2498779296875,0.82647705078125,4654,2117,2831,25,4,92
80129427,0.0389404296875,0.50439453125,0.24615478515625,0.82666015625,4763,1771,2847,25,4,90
80139416,0.028076171875,0.506591796875,0.24267578125,0.8267822265625,4828,1458,2854,26,4,84
80149391,0.0179443359375,0.50848388671875,0.23974609375,0.8267822265625,4859,1151,2841,26,4,75
80159377,0.00885009765625,0.50994873046875,0.23748779296875,0.82666015625,4843,830,2825,27,4,63
80169360,0.0009765625,0.510986328125,0.2359619140625,0.82647705078125,4823,490,2813,27,5,49
80179340,-0.00537109375,0.51153564453125,0.23529052734375,0.82635498046875,4790,160,2825,27,5,33
80189323,-0.00994873046875,0.51153564453125,0.235595703125,0.82623291015625,4725,-96,2793,26,5,15
80199305,-0.01263427734375,0.51092529296875,0.23699951171875,0.82611083984375,4618,-299,2744,25,6,-4
80209285,-0.01312255859375,0.509765625,0.2396240234375,0.82611083984375,4493,-466,2702,24,6,-25
80219267,-0.01153564453125,0.50787353515625,0.243408203125,0.826171875,4359,-563,2651,24,6,-45
80229250,-0.00787353515625,0.50543212890625,0.24835205078125,0.8262939453125,4192,-598,2575,22,6,-64
80239233,-0.002197265625,0.5023193359375,0.25445556640625,0.82635498046875,3999,-557,2489,22,7,-83
80249217,0.0052490234375,0.49859619140625,0.26153564453125,0.82635498046875,3775,-470,2384,21,7,-98
80259196,0.01422119140625,0.49432373046875,0.26934814453125,0.8262939453125,3552,-292,2284,19,7,-111
80269187,0.02459716796875,0.48956298828125,0.27777099609375,0.82611083984375,3359,-38,2190,17,7,-122
80279172,0.03619384765625,0.484375,0.2867431640625,0.82568359375,3181,229,2093,16,7,-132
80289149,0.04888916015625,0.4786376953125,0.29608154296875,0.8250732421875,3023,531,2011,14,7,-141
80299132,0.0625,0.47247314453125,0.30572509765625,0.82421875,2885,888,1949,13,7,-149
80309114,0.0770263671875,0.46588134765625,0.3157958984375,0.82293701171875,2772,1304,1859,11,7,-157
80319097,0.09246826171875,0.458740234375,0.32623291015625,0.82122802734375,2647,1748,1790,10,6,-164
80329081,0.1083984375,0.4512939453125,0.3367919921875,0.8192138671875,2567,2163,1730,10,7,-167
80339061,0.12445068359375,0.44354248046875,0.34710693359375,0.81683349609375,2493,2628,1705,8,7,-168
80349044,0.140625,0.4354248046875,0.357421875,0.8140869140625,2390,3127,1663,7,8,-168
80359027,0.1572265625,0.4268798828125,0.3677978515625,0.81097412109375,2251,3671,1659,6,8,-173
80369009,0.174560546875,0.4176025390625,0.37860107421875,0.8072509765625,2096,4233,1657,7,8,-182
80378993,0.19305419921875,0.40753173828125,0.389892578125,0.8028564453125,1915,4822,1652,7,9,-194
80388975,0.21246337890625,0.3966064453125,0.40155029296875,0.797607421875,1752,5376,1662,6,9,-205
80398957,0.23211669921875,0.38519287109375,0.4132080078125,0.79180908203125,1602,5937,1693,6,10,-206
80408940,0.25128173828125,0.37353515625,0.4244384765625,0.78558349609375,1419,6498,1737,5,11,-202
80418924,0.26953125,0.36187744140625,0.43499755859375,0.77911376953125,1195,7007,1809,5,12,-193
80428904,0.28662109375,0.35040283203125,0.4449462890625,0.77264404296875,931,7430,1878,5,13,-184
80438887,0.30279541015625,0.33905029296875,0.45452880859375,0.76593017578125,641,7787,1920,7,13,-177
80448874,0.31829833984375,0.3277587890625,0.4637451171875,0.75897216796875,434,7980,1985,8,15,-174
80458858,0.332763671875,0.3167724609375,0.47247314453125,0.7520751953125,290,8044,2033,9,15,-165
80468842,0.345703125,0.30633544921875,0.48046875,0.74542236328125,161,8137,2122,9,18,-151
80478823,0.35699462890625,0.29632568359375,0.48797607421875,0.7392578125,-13,8344,2215,10,21,-138
80488800,0.36724853515625,0.28643798828125,0.4952392578125,0.7332763671875,-296,8662,2279,11,24,-130
80498783,0.3770751953125,0.27630615234375,0.50274658203125,0.72705078125,-550,8847,2331,13,27,-132
80508764,0.38671875,0.26593017578125,0.51031494140625,0.7205810546875,-691,8733,2383,15,29,-133
80518746,0.3955078125,0.25567626953125,0.51763916015625,0.7142333984375,-760,8424,2412,17,32,-127
80528730,0.403076171875,0.24591064453125,0.524658203125,0.70831298828125,-833,8177,2437,18,35,-115
80538718,0.40966796875,0.236328125,0.531494140625,0.70263671875,-1053,8193,2442,18,38,-110
80548698,0.41619873046875,0.2261962890625,0.5386962890625,0.69659423828125,-1417,8434,2421,19,41,-116
80558681,0.42376708984375,0.21484375,0.54638671875,0.68963623046875,-1853,8684,2384,19,43,-132
80568668,0.43255615234375,0.20208740234375,0.5545654296875,0.68145751953125,-2280,8807,2325,20,44,-149
80578650,0.442138671875,0.18841552734375,0.5628662109375,0.67236328125,-2572,8659,2287,21,45,-159
80588634,0.451416015625,0.17474365234375,0.5709228515625,0.6630859375,-2726,8288,2262,22,45,-155
80598614,0.45928955078125,0.1619873046875,0.57830810546875,0.6544189453125,-2984,7972,2232,22,46,-138
80608604,0.46575927734375,0.15020751953125,0.58526611328125,0.64642333984375,-3492,8044,2177,21,45,-122
80618587,0.4718017578125,0.1387939453125,0.59197998046875,0.638427734375,-4143,8351,2141,20,44,-120
80628563,0.47845458984375,0.126708984375,0.5986328125,0.62969970703125,-4785,8625,2091,21,43,-131
80638540,0.486083984375,0.11383056640625,0.60528564453125,0.61993408203125,-5286,8716,2029,21,40,-145
80648522,0.49420166015625,0.10076904296875,0.611572265625,0.6094970703125,-5516,8539,2003,22,38,-147
80658505,0.50164794921875,0.088623046875,0.61724853515625,0.5994873046875,-5701,8277,1971,22,35,-135
80668487,0.5076904296875,0.07806396484375,0.622314453125,0.590576171875,-5901,8102,1915,22,33,-114
80678470,0.51220703125,0.06927490234375,0.62689208984375,0.58282470703125,-6193,8090,1839,20,30,-93
80688453,0.5159912109375,0.06158447265625,0.63104248046875,0.57586669921875,-6520,8185,1758,19,28,-84
80698436,0.519775390625,0.05426025390625,0.6348876953125,0.5689697265625,-6804,8242,1692,19,25,-84
80708423,0.5240478515625,0.0467529296875,0.63836669921875,0.56170654296875,-6953,8178,1642,19,21,-90
80718411,0.52886962890625,0.03912353515625,0.6416015625,0.5540771484375,-6952,7939,1598,19,18,-95
80728387,0.53387451171875,0.0316162109375,0.64453125,0.54632568359375,-6897,7651,1577,19,16,-95
80738371,0.53887939453125,0.0242919921875,0.647216796875,0.53851318359375,-6936,7459,1554,19,15,-94
80748352,0.5439453125,0.01690673828125,0.6497802734375,0.53057861328125,-7114,7470,1528,19,14,-97
80758335,0.5494384765625,0.0091552734375,0.65216064453125,0.5220947265625,-7377,7578,1511,19,13,-106
80768318,0.5555419921875,0.000732421875,0.6544189453125,0.5128173828125,-7570,7563,1502,20,11,-116
80778303,0.5621337890625,-0.00823974609375,0.656494140625,0.50286865234375,-7664,7387,1466,21,11,-122
80788282,0.568603515625,-0.01690673828125,0.65826416015625,0.492919921875,-7610,7036,1415,21,9,-118
80798266,0.57440185546875,-0.02471923828125,0.659912109375,0.48358154296875,-7434,6603,1376,22,8,-106
80808248,0.57940673828125,-0.03125,0.661376953125,0.4752197265625,-7212,6145,1359,22,7,-90
80818230,0.58343505859375,-0.03643798828125,0.6627197265625,0.4678955078125,-7148,5817,1353,22,7,-75
80828213,0.58697509765625,-0.0408935546875,0.66412353515625,0.4610595703125,-7234,5725,1349,22,7,-71
80838193,0.5906982421875,-0.04559326171875,0.66552734375,0.453857421875,-7388,5717,1332,23,7,-78
80848184,0.59503173828125,-0.0511474609375,0.6668701171875,0.445556640625,-7576,5698,1257,25,7,-93
80858167,0.60009765625,-0.057861328125,0.668212890625,0.43585205078125,-7742,5635,1177,27,7,-108
80868144,0.6055908203125,-0.0653076171875,0.66949462890625,0.42510986328125,-7823,5522,1091,29,7,-117
80878127,0.611083984375,-0.0728759765625,0.67071533203125,0.4139404296875,-7859,5353,1014,31,8,-117
80888110,0.61602783203125,-0.07977294921875,0.67193603515625,0.4031982421875,-7835,5160,942,31,8,-109
80898092,0.6202392578125,-0.08575439453125,0.6732177734375,0.39324951171875,-7814,4943,888,31,9,-95
80908074,0.62359619140625,-0.0904541015625,0.67462158203125,0.3843994140625,-7875,4865,882,31,10,-81
80918061,0.626220703125,-0.09429931640625,0.6761474609375,0.37640380859375,-8025,4869,867,31,12,-72
80928038,0.6285400390625,-0.09783935546875,0.677734375,0.3687744140625,-8229,4960,855,30,13,-71
80938021,0.630859375,-0.1015625,0.67926025390625,0.36090087890625,-8480,5039,771,30,13,-74
80948004,0.6331787109375,-0.10565185546875,0.6807861328125,0.3526611328125,-8727,5089,684,30,13,-79
80957986,0.63555908203125,-0.10992431640625,0.68212890625,0.34429931640625,-8935,5116,592,30,12,-81
80967968,0.63787841796875,-0.11407470703125,0.68341064453125,0.3360595703125,-9146,5162,537,29,12,-78
80977951,0.6400146484375,-0.1177978515625,0.6845703125,0.32830810546875,-9348,5173,497,28,11,-73
80987934,0.641845703125,-0.12066650390625,0.68560791015625,0.3214111328125,-9473,5134,489,27,9,-62
80997918,0.643310546875,-0.12255859375,0.6865234375,0.315673828125,-9490,5025,486,26,7,-47
81007898,0.644287109375,-0.12298583984375,0.6875,0.3114013671875,-9401,4878,441,25,5,-30
81017882,0.644775390625,-0.1220703125,0.68853759765625,0.30853271484375,-9222,4727,427,23,3,-14
81027857,0.6448974609375,-0.11993408203125,0.68951416015625,0.306884765625,-9002,4575,424,22,0,0
81037846,0.6448974609375,-0.11700439453125,0.6904296875,0.30609130859375,-8785,4467,443,22,-1,7
81047824,0.64483642578125,-0.11376953125,0.691162109375,0.30572509765625,-8568,4381,478,21,-3,10
81057802,0.64501953125,-0.11053466796875,0.691650390625,0.30535888671875,-8368,4276,527,20,-5,9
81067784,0.64544677734375,-0.10760498046875,0.6920166015625,0.30474853515625,-8178,4183,589,20,-6,5
81077769,0.6461181640625,-0.10516357421875,0.69219970703125,0.3037109375,-7986,4089,629,20,-7,-1
81087747,0.6470947265625,-0.1031494140625,0.6922607421875,0.30224609375,-7803,3987,674,20,-7,-7
81097729,0.64825439453125,-0.1016845703125,0.69219970703125,0.30035400390625,-7654,3877,678,20,-7,-11
81107712,0.6495361328125,-0.10052490234375,0.69207763671875,0.29815673828125,-7546,3775,680,19,-8,-15
81117694,0.65093994140625,-0.09954833984375,0.69189453125,0.2958984375,-7466,3708,667,19,-8,-16
81127681,0.65234375,-0.0987548828125,0.69171142578125,0.29345703125,-7416,3632,631,18,-8,-18
81137662,0.65374755859375,-0.0980224609375,0.6915283203125,0.29107666015625,-7404,3584,576,18,-8,-18
81147653,0.65509033203125,-0.09735107421875,0.6912841796875,0.2886962890625,-7427,3564,554,17,-8,-18
81157636,0.6563720703125,-0.09661865234375,0.691162109375,0.286376953125,-7462,3558,545,17,-7,-17
81167615,0.65753173828125,-0.09588623046875,0.6910400390625,0.2843017578125,-7525,3563,553,16,-6,-15
81177606,0.6585693359375,-0.094970703125,0.69097900390625,0.282470703125,-7580,3573,545,16,-5,-13
81187590,0.6593017578125,-0.093994140625,0.69097900390625,0.2808837890625,-7621,3559,528,15,-4,-9
81197566,0.6597900390625,-0.09271240234375,0.69122314453125,0.2796630859375,-7645,3540,478,14,-3,-5
81207538,0.6600341796875,-0.09130859375,0.6915283203125,0.27880859375,-7648,3504,420,13,-2,-1
81217524,0.65997314453125,-0.089599609375,0.69195556640625,0.2783203125,-7625,3468,382,12,-1,3
81227508,0.65972900390625,-0.0877685546875,0.6925048828125,0.27825927734375,-7586,3425,366,11,1,7
81237488,0.65924072265625,-0.08587646484375,0.693115234375,0.27850341796875,-7569,3387,348,9,2,10
81247476,0.6585693359375,-0.08392333984375,0.69378662109375,0.27899169921875,-7594,3362,353,8,3,11
81257455,0.6578369140625,-0.08221435546875,0.6944580078125,0.27947998046875,-7604,3329,340,7,4,10
81267437,0.6571044921875,-0.08087158203125,0.69512939453125,0.2799072265625,-7637,3309,324,5,5,7
81277422,0.65643310546875,-0.08001708984375,0.69586181640625,0.280029296875,-7667,3301,292,5,5,2
81287409,0.65582275390625,-0.07958984375,0.69647216796875,0.27984619140625,-7684,3285,258,3,6,-2
81297382,0.6553955078125,-0.07958984375,0.69708251953125,0.27947998046875,-7712,3271,220,2,5,-5
81307364,0.65496826171875,-0.07977294921875,0.6976318359375,0.27911376953125,-7750,3246,162,1,5,-6
81317341,0.65460205078125,-0.080078125,0.69805908203125,0.27874755859375,-7805,3227,147,0,5,-6
81327328,0.6541748046875,-0.080322265625,0.69842529296875,0.2786865234375,-7873,3206,134,-1,4,-4
81337308,0.65380859375,-0.0804443359375,0.69873046875,0.27886962890625,-7937,3188,145,-2,4,-1
81347295,0.6533203125,-0.08050537109375,0.698974609375,0.279296875,-7983,3155,143,-3,3,1
81357271,0.65283203125,-0.08038330078125,0.69915771484375,0.280029296875,-8013,3136,124,-5,2,3
81367255,0.65234375,-0.0802001953125,0.69927978515625,0.281005859375,-8044,3116,114,-5,2,5
81377238,0.65185546875,-0.08001708984375,0.69927978515625,0.28216552734375,-8059,3088,102,-7,1,6
81387221,0.65142822265625,-0.07977294921875,0.69915771484375,0.28350830078125,-8079,3067,96,-7,0,7
81397200,0.6510009765625,-0.07952880859375,0.69903564453125,0.284912109375,-8077,3048,102,-8,-1,8
81407190,0.650634765625,-0.07928466796875,0.69873046875,0.286376953125,-8073,3024,107,-9,-2,7
81417172,0.650390625,-0.07916259765625,0.69842529296875,0.28778076171875,-8036,2992,118,-9,-2,7
81427149,0.650146484375,-0.0791015625,0.69805908203125,0.28924560546875,-7977,2960,130,-10,-2,6
81437131,0.64996337890625,-0.0791015625,0.6976318359375,0.29071044921875,-7922,2922,150,-10,-3,6
81447113,0.64984130859375,-0.07916259765625,0.6971435546875,0.29217529296875,-7864,2893,166,-10,-3,5
81457095,0.64971923828125,-0.07940673828125,0.6966552734375,0.29351806640625,-7829,2851,181,-11,-3,4
81467078,0.649658203125,-0.07977294921875,0.69610595703125,0.2947998046875,-7798,2818,197,-11,-2,3
81477061,0.6495361328125,-0.08013916015625,0.69561767578125,0.29608154296875,-7753,2773,197,-11,-2,3
81487042,0.64947509765625,-0.08062744140625,0.6951904296875,0.29730224609375,-7701,2735,220,-11,-2,3
81497026,0.64935302734375,-0.0810546875,0.6947021484375,0.29852294921875,-7669,2700,229,-11,-2,3
81507007,0.64923095703125,-0.08154296875,0.6942138671875,0.2996826171875,-7638,2685,255,-10,-1,2
81516992,0.64910888671875,-0.08209228515625,0.69384765625,0.30072021484375,-7644,2661,267,-10,-1,1
81526973,0.64898681640625,-0.08270263671875,0.6934814453125,0.30169677734375,-7661,2654,267,-10,-1,1
81536961,0.64886474609375,-0.0833740234375,0.693115234375,0.302490234375,-7685,2637,279,-9,0,-1
81546946,0.64874267578125,-0.08404541015625,0.69287109375,0.30316162109375,-7712,2631,270,-9,0,0
81556923,0.64849853515625,-0.08453369140625,0.692626953125,0.303955078125,-7725,2623,269,-8,0,2
81566905,0.648193359375,-0.08477783203125,0.6925048828125,0.30487060546875,-7753,2635,261,-7,1,4
81576890,0.64776611328125,-0.084716796875,0.69244384765625,0.30596923828125,-7804,2664,270,-7,1,6
81586874,0.64727783203125,-0.0845947265625,0.6923828125,0.30712890625,-7870,2710,299,-6,1,7
81596860,0.64678955078125,-0.0843505859375,0.6923828125,0.3082275390625,-7938,2788,321,-6,1,7
81606844,0.6463623046875,-0.08404541015625,0.6923828125,0.309326171875,-8012,2882,349,-5,1,7
81616825,0.64599609375,-0.0836181640625,0.6922607421875,0.3104248046875,-8074,2975,393,-5,0,7
81626803,0.64556884765625,-0.0830078125,0.69219970703125,0.3116455078125,-8179,3089,439,-4,-1,9
81636783,0.64520263671875,-0.08203125,0.6920166015625,0.31317138671875,-8336,3226,518,-4,-1,13
81646765,0.64471435546875,-0.08062744140625,0.69171142578125,0.31500244140625,-8549,3447,623,-4,-3,16
81656747,0.6444091796875,-0.07891845703125,0.6912841796875,0.31707763671875,-8786,3716,742,-4,-4,18
81666730,0.6441650390625,-0.0770263671875,0.69073486328125,0.3193359375,-8983,3985,823,-3,-7,18
81676718,0.64404296875,-0.07476806640625,0.68994140625,0.32171630859375,-9153,4222,879,-3,-9,21
81686696,0.64385986328125,-0.07196044921875,0.6890869140625,0.32452392578125,-9258,4417,922,-3,-12,27
81696681,0.6435546875,-0.06817626953125,0.68798828125,0.32830810546875,-9314,4593,992,-4,-15,40
81706667,0.642822265625,-0.06298828125,0.686767578125,0.33331298828125,-9352,4806,1091,-4,-18,55
81716650,0.64166259765625,-0.05633544921875,0.685302734375,0.33966064453125,-9409,5080,1199,-4,-20,70
81726632,0.63995361328125,-0.04840087890625,0.68377685546875,0.3470458984375,-9440,5387,1289,-4,-22,83
81736616,0.637939453125,-0.03961181640625,0.68212890625,0.35504150390625,-9437,5655,1359,-4,-23,92
81746606,0.63555908203125,-0.03009033203125,0.68035888671875,0.36358642578125,-9403,5880,1400,-3,-25,99
81756589,0.63299560546875,-0.02008056640625,0.67840576171875,0.372314453125,-9320,6056,1447,-3,-26,104
81766565,0.63018798828125,-0.0096435546875,0.67620849609375,0.38128662109375,-9196,6229,1493,-2,-27,108
81776542,0.6273193359375,0.00103759765625,0.67388916015625,0.3902587890625,-9088,6431,1517,-1,-29,110
81786525,0.624267578125,0.0118408203125,0.67138671875,0.39910888671875,-9022,6663,1544,-1,-30,109
81796511,0.62139892578125,0.02264404296875,0.668701171875,0.4075927734375,-8995,6877,1530,0,-31,108
81806491,0.6185302734375,0.0333251953125,0.66583251953125,0.415771484375,-8976,7064,1514,1,-34,106
81816476,0.61578369140625,0.04412841796875,0.66278076171875,0.423583984375,-8909,7204,1514,2,-35,106
81826456,0.61297607421875,0.05517578125,0.6595458984375,0.43145751953125,-8818,7337,1506,3,-37,109
81836439,0.60980224609375,0.06683349609375,0.65606689453125,0.43951416015625,-8746,7494,1485,4,-39,117
81846421,0.60614013671875,0.07928466796875,0.6522216796875,0.4481201171875,-8725,7700,1449,3,-41,126
81856410,0.60198974609375,0.09246826171875,0.6480712890625,0.4571533203125,-8722,7945,1413,3,-43,135
81866389,0.5975341796875,0.10614013671875,0.64349365234375,0.4664306640625,-8654,8155,1365,3,-46,140
81876372,0.5927734375,0.1202392578125,0.638427734375,0.47589111328125,-8437,8262,1336,2,-48,145
81886355,0.587646484375,0.13470458984375,0.63287353515625,0.48565673828125,-8118,8298,1327,0,-50,152
81896337,0.58203125,0.14959716796875,0.626708984375,0.49591064453125,-7721,8335,1345,-2,-50,158
81906318,0.57598876953125,0.1646728515625,0.62005615234375,0.5064697265625,-7350,8401,1351,-4,-51,163
81916303,0.569580078125,0.17950439453125,0.613037109375,0.51708984375,-7012,8474,1356,-7,-50,163
81926283,0.563232421875,0.19390869140625,0.60577392578125,0.52740478515625,-6690,8542,1353,-9,-50,159
81936267,0.5570068359375,0.20745849609375,0.59832763671875,0.5372314453125,-6324,8555,1346,-11,-49,152
81946248,0.551025390625,0.22021484375,0.59075927734375,0.54656982421875,-5900,8499,1368,-14,-47,146
81956232,0.54510498046875,0.2322998046875,0.58306884765625,0.5556640625,-5471,8415,1388,-16,-45,142
81966214,0.5389404296875,0.24395751953125,0.57525634765625,0.5648193359375,-5081,8380,1389,-18,-43,142
81976193,0.532470703125,0.2552490234375,0.567138671875,0.57403564453125,-4739,8367,1411,-21,-40,144
81986184,0.5255126953125,0.2662353515625,0.55889892578125,0.58349609375,-4468,8406,1423,-24,-37,146
81996167,0.5181884765625,0.27679443359375,0.55047607421875,0.59307861328125,-4229,8452,1439,-26,-34,147
82006142,0.51068115234375,0.286865234375,0.54193115234375,0.60260009765625,-3968,8423,1449,-28,-32,146
82016125,0.5030517578125,0.2965087890625,0.53326416015625,0.61199951171875,-3680,8329,1453,-30,-29,145
82026108,0.49505615234375,0.30572509765625,0.5244140625,0.62152099609375,-3351,8169,1477,-32,-27,146
82036090,0.4866943359375,0.31463623046875,0.515380859375,0.63116455078125,-3039,8036,1496,-33,-23,147
82046074,0.47802734375,0.32318115234375,0.50628662109375,0.6407470703125,-2769,7963,1530,-35,-20,147
82056061,0.469482421875,0.3309326171875,0.49737548828125,0.65008544921875,-2552,7912,1549,-35,-17,141
82069421,0.46124267578125,0.33782958984375,0.48883056640625,0.6588134765625,-2391,7887,1562,-36,-14,132
82076024,0.45379638671875,0.34368896484375,0.480712890625,0.6668701171875,-2285,7891,1579,-37,-12,121
82086008,0.44708251953125,0.34869384765625,0.47320556640625,0.67413330078125,-2204,7869,1583,-36,-11,110
82095990,0.4407958984375,0.3531494140625,0.4659423828125,0.68096923828125,-2076,7751,1602,-36,-11,106
82105975,0.43402099609375,0.35791015625,0.45843505859375,0.68792724609375,-1899,7662,1621,-35,-11,114
82115956,0.426025390625,0.36334228515625,0.4501953125,0.69549560546875,-1743,7489,1651,-35,-11,127
82125938,0.4168701171875,0.36944580078125,0.4412841796875,0.7034912109375,-1561,7316,1663,-35,-11,140
82135920,0.40679931640625,0.37591552734375,0.431884765625,0.71173095703125,-1355,7156,1689,-35,-11,147
82145901,0.39630126953125,0.3824462890625,0.4222412109375,0.71990966796875,-1157,7012,1722,-34,-11,148
82155886,0.38629150390625,0.38861083984375,0.41265869140625,0.72760009765625,-912,6864,1761,-34,-11,140
82165864,0.377197265625,0.39404296875,0.4039306640625,0.7342529296875,-671,6764,1799,-31,-11,124
82175856,0.369384765625,0.3988037109375,0.3958740234375,0.74005126953125,-448,6608,1828,-30,-11,110
82185839,0.362060546875,0.40325927734375,0.3883056640625,0.7452392578125,-194,6444,1851,-28,-12,104
82195822,0.3544921875,0.40777587890625,0.38067626953125,0.7503662109375,66,6242,1890,-26,-11,107
82205798,0.34588623046875,0.4127197265625,0.3726806640625,0.75567626953125,320,6067,1924,-25,-11,117
82215780,0.3363037109375,0.41802978515625,0.3642578125,0.76116943359375,554,5886,1958,-23,-11,126
82225763,0.325927734375,0.423583984375,0.3553466796875,0.76678466796875,824,5651,2014,-22,-11,132
82235747,0.31500244140625,0.42919921875,0.34625244140625,0.77239990234375,1106,5426,2061,-21,-10,134
82245728,0.30401611328125,0.43463134765625,0.33721923828125,0.7777099609375,1341,5274,2110,-20,-9,131
82255718,0.29364013671875,0.43963623046875,0.32879638671875,0.78253173828125,1558,5163,2146,-18,-9,122
82265694,0.2841796875,0.44403076171875,0.32110595703125,0.78668212890625,1758,5086,2166,-17,-8,110
82275671,0.27557373046875,0.447998046875,0.31414794921875,0.790283203125,1962,4981,2194,-15,-7,99
82285665,0.2677001953125,0.4515380859375,0.3077392578125,0.79351806640625,2132,4866,2229,-13,-6,91
82295647,0.26019287109375,0.454833984375,0.3017578125,0.79638671875,2291,4756,2265,-12,-6,87
82305631,0.25274658203125,0.45806884765625,0.29595947265625,0.79913330078125,2439,4627,2298,-10,-7,86
82315618,0.24493408203125,0.46136474609375,0.2900390625,0.80181884765625,2607,4502,2337,-9,-6,90
82325601,0.2364501953125,0.46490478515625,0.2838134765625,0.8045654296875,2786,4399,2380,-8,-6,95
82335584,0.22735595703125,0.468505859375,0.2774658203125,0.8072509765625,2973,4291,2438,-7,-6,99
82345554,0.218017578125,0.47210693359375,0.2711181640625,0.8099365234375,3165,4177,2516,-5,-5,100
82355537,0.20849609375,0.4755859375,0.2647705078125,0.8125,3360,4033,2575,-4,-5,99
82365519,0.19903564453125,0.47894287109375,0.25860595703125,0.81488037109375,3529,3882,2633,-2,-4,97
82375499,0.1898193359375,0.4820556640625,0.2528076171875,0.8170166015625,3646,3744,2662,-1,-4,93
82385486,0.1810302734375,0.4849853515625,0.24755859375,0.81890869140625,3757,3616,2706,1,-4,87
82395466,0.17254638671875,0.48779296875,0.24261474609375,0.820556640625,3864,3515,2750,2,-4,83
82405450,0.16424560546875,0.490478515625,0.23797607421875,0.822021484375,4003,3416,2794,4,-5,80
82415431,0.156005859375,0.49310302734375,0.23358154296875,0.82330322265625,4136,3316,2865,6,-4,79
82425419,0.147705078125,0.4957275390625,0.229248046875,0.824462890625,4247,3204,2943,7,-5,79
82435401,0.13916015625,0.4984130859375,0.2249755859375,0.8255615234375,4362,3092,3006,9,-6,81
82445377,0.13018798828125,0.501220703125,0.2205810546875,0.82647705078125,4466,2949,3050,10,-6,83
82455360,0.12091064453125,0.504150390625,0.21612548828125,0.8272705078125,4580,2797,3097,12,-8,86
82465343,0.111328125,0.50732421875,0.211669921875,0.82781982421875,4676,2620,3133,14,-10,88
82475327,0.1015625,0.5106201171875,0.2071533203125,0.82818603515625,4784,2425,3174,15,-12,88
82485309,0.0916748046875,0.51409912109375,0.2027587890625,0.82830810546875,4914,2223,3217,17,-13,87
82495291,0.08172607421875,0.517578125,0.198486328125,0.82818603515625,5020,2037,3282,19,-15,87
82505274,0.07171630859375,0.521240234375,0.19439697265625,0.82781982421875,5114,1874,3361,21,-17,86
82515256,0.06182861328125,0.52490234375,0.19049072265625,0.82720947265625,5193,1734,3462,22,-19,85
82525239,0.052001953125,0.52862548828125,0.18670654296875,0.82635498046875,5245,1564,3565,24,-21,84
82535221,0.0423583984375,0.532470703125,0.18316650390625,0.82525634765625,5302,1401,3623,25,-24,81
82545209,0.03314208984375,0.536376953125,0.17999267578125,0.8238525390625,5374,1229,3651,25,-26,75
82555192,0.02484130859375,0.540283203125,0.1773681640625,0.8221435546875,5451,1051,3623,26,-28,65
82565174,0.01751708984375,0.54400634765625,0.17559814453125,0.82025146484375,5543,861,3558,27,-28,53
82575159,0.0113525390625,0.54742431640625,0.174560546875,0.81829833984375,5627,662,3470,28,-27,42
82585135,0.006103515625,0.55059814453125,0.17425537109375,0.8162841796875,5685,503,3365,28,-26,31
82595115,0.0018310546875,0.55340576171875,0.17462158203125,0.8143310546875,5735,381,3237,27,-24,21
82605099,-0.00146484375,0.5557861328125,0.17559814453125,0.8125,5765,261,3117,27,-22,12
82615081,-0.00384521484375,0.5577392578125,0.17706298828125,0.81085205078125,5828,142,3017,25,-20,2
82625062,-0.005126953125,0.5592041015625,0.17901611328125,0.80938720703125,5876,38,2906,23,-16,-9
82635043,-0.005126953125,0.56005859375,0.18170166015625,0.8082275390625,5893,-31,2796,22,-13,-22
82645024,-0.0037841796875,0.56036376953125,0.1851806640625,0.8072509765625,5908,-36,2706,21,-10,-36
82655009,-0.00103759765625,0.5599365234375,0.18951416015625,0.8065185546875,5876,11,2609,19,-6,-49
82664990,0.0030517578125,0.5589599609375,0.1947021484375,0.80596923828125,5781,126,2501,17,-4,-61
82674976,0.00848388671875,0.55731201171875,0.20062255859375,0.80560302734375,5636,304,2380,16,0,-74
82684954,0.015380859375,0.55511474609375,0.20721435546875,0.80535888671875,5439,526,2266,13,1,-87
82694938,0.02374267578125,0.5523681640625,0.214599609375,0.80511474609375,5206,753,2124,10,3,-99
82704919,0.03350830078125,0.5491943359375,0.22247314453125,0.8048095703125,4934,997,1988,8,3,-111
82714905,0.04449462890625,0.54559326171875,0.23089599609375,0.8043212890625,4643,1288,1838,5,3,-120
82724888,0.056640625,0.54180908203125,0.23968505859375,0.8035888671875,4371,1611,1695,2,1,-128
82734874,0.0697021484375,0.53778076171875,0.248779296875,0.80242919921875,4149,1931,1591,0,-1,-135
82744858,0.08343505859375,0.53363037109375,0.25787353515625,0.801025390625,3960,2237,1526,-2,-3,-138
82754839,0.09747314453125,0.5294189453125,0.26678466796875,0.79931640625,3828,2545,1490,-4,-5,-139
82764821,0.11175537109375,0.52520751953125,0.2755126953125,0.7972412109375,3738,2855,1451,-6,-7,-140
82774797,0.12652587890625,0.5208740234375,0.2843017578125,0.7947998046875,3662,3147,1407,-7,-8,-144
82784781,0.1417236328125,0.51641845703125,0.29315185546875,0.79193115234375,3632,3401,1387,-7,-10,-149
82794766,0.1573486328125,0.51171875,0.3023681640625,0.78857421875,3604,3647,1363,-6,-11,-154
82804747,0.17315673828125,0.5067138671875,0.31170654296875,0.78485107421875,3616,3891,1394,-4,-11,-157
82814730,0.18878173828125,0.50152587890625,0.321044921875,0.78076171875,3609,4156,1428,-4,-10,-156
82824711,0.20428466796875,0.49603271484375,0.33050537109375,0.7764892578125,3562,4505,1419,-2,-8,-156
82834695,0.21978759765625,0.49017333984375,0.3402099609375,0.771728515625,3452,4926,1375,-1,-8,-159
82844681,0.23590087890625,0.48370361328125,0.35064697265625,0.766357421875,3302,5360,1324,1,-7,-168
82854668,0.25274658203125,0.4765625,0.3619384765625,0.76019287109375,3161,5804,1274,4,-6,-181
82864650,0.27032470703125,0.46868896484375,0.37408447265625,0.75311279296875,3100,6199,1242,8,-5,-191
82874634,0.28759765625,0.46038818359375,0.386474609375,0.74560546875,3121,6491,1296,11,-2,-193
82884613,0.303466796875,0.4520263671875,0.39825439453125,0.7381591796875,3120,6755,1383,13,2,-180
82894604,0.31719970703125,0.4439697265625,0.4090576171875,0.7313232421875,3004,7117,1429,14,7,-159
82904586,0.328857421875,0.436279296875,0.41900634765625,0.72515869140625,2810,7534,1463,13,11,-140
82914565,0.3389892578125,0.4287109375,0.42816162109375,0.7196044921875,2554,7858,1493,13,15,-127
82924542,0.34808349609375,0.42120361328125,0.43682861328125,0.7144775390625,2373,7957,1573,13,19,-120
82934523,0.35626220703125,0.4136962890625,0.4449462890625,0.7098388671875,2253,7865,1701,13,22,-112
82944507,0.36346435546875,0.40618896484375,0.45257568359375,0.7056884765625,2109,7795,1844,13,26,-106
82954488,0.3702392578125,0.3983154296875,0.46014404296875,0.70172119140625,1938,7841,1947,12,30,-105
82964476,0.3770751953125,0.3896484375,0.46795654296875,0.69775390625,1659,7969,2024,10,34,-109
82974453,0.38458251953125,0.37994384765625,0.4761962890625,0.69342041015625,1276,8137,2032,8,38,-119
82984435,0.39300537109375,0.369140625,0.48486328125,0.68853759765625,845,8252,2035,6,39,-131
82994420,0.40240478515625,0.35723876953125,0.49383544921875,0.6829833984375,429,8226,2058,5,40,-143
83004406,0.4124755859375,0.3446044921875,0.50286865234375,0.67681884765625,49,8133,2088,4,40,-151
83014385,0.42279052734375,0.33160400390625,0.51171875,0.6702880859375,-267,8016,2094,2,39,-154
83024363,0.43280029296875,0.31866455078125,0.51995849609375,0.663818359375,-510,7932,2133,0,39,-149
83034346,0.44207763671875,0.30596923828125,0.5274658203125,0.65771484375,-840,7997,2161,-2,38,-141
83044326,0.45086669921875,0.29339599609375,0.53460693359375,0.65167236328125,-1321,8268,2116,-5,39,-135
83054308,0.45977783203125,0.280517578125,0.5416259765625,0.64532470703125,-1911,8619,2030,-7,37,-139
83064292,0.46942138671875,0.26702880859375,0.54864501953125,0.63812255859375,-2488,8862,1944,-8,35,-149
83074276,0.4798583984375,0.2529296875,0.5555419921875,0.630126953125,-2902,8851,1907,-8,32,-158
83084261,0.49041748046875,0.23895263671875,0.56195068359375,0.6217041015625,-3075,8590,1918,-8,29,-158
83094241,0.50018310546875,0.22576904296875,0.56744384765625,0.61383056640625,-3124,8270,1977,-8,27,-146
83104225,0.50860595703125,0.2137451171875,0.5721435546875,0.6068115234375,-3296,8187,2003,-9,26,-128
83114209,0.5159912109375,0.2025146484375,0.57647705078125,0.6002197265625,-3620,8473,1978,-10,26,-121
83124194,0.5235595703125,0.19091796875,0.5809326171875,0.59320068359375,-3997,8823,1947,-10,26,-129
83134178,0.53173828125,0.178466796875,0.58551025390625,0.58526611328125,-4276,8954,1927,-9,26,-141
83144160,0.54034423828125,0.1654052734375,0.59002685546875,0.5765380859375,-4351,8762,1931,-8,26,-148
83154139,0.548583984375,0.1527099609375,0.59423828125,0.56793212890625,-4278,8372,1956,-7,27,-142
83164120,0.5556640625,0.14080810546875,0.5980224609375,0.56005859375,-4261,8038,1996,-6,28,-128
83174102,0.5614013671875,0.1298828125,0.6016845703125,0.55303955078125,-4461,8008,1993,-7,30,-114
83184084,0.56634521484375,0.1192626953125,0.60528564453125,0.54638671875,-4782,8176,2004,-7,32,-110
83194069,0.57122802734375,0.10833740234375,0.60894775390625,0.53948974609375,-5139,8333,1999,-7,34,-115
83204050,0.57623291015625,0.096923828125,0.6126708984375,0.53204345703125,-5410,8323,1982,-7,35,-120
83214034,0.58111572265625,0.0853271484375,0.6163330078125,0.5244140625,-5528,8097,1978,-6,36,-120
83224015,0.58538818359375,0.07421875,0.61981201171875,0.5172119140625,-5525,7753,1966,-5,37,-110
83233998,0.58880615234375,0.06390380859375,0.623046875,0.5108642578125,-5580,7452,1955,-6,38,-98
83243979,0.59130859375,0.0543212890625,0.626220703125,0.50506591796875,-5806,7338,1927,-6,39,-89
83253968,0.59356689453125,0.04486083984375,0.62939453125,0.4993896484375,-6117,7307,1898,-6,39,-90
83263943,0.5960693359375,0.03497314453125,0.632568359375,0.4931640625,-6480,7280,1848,-5,39,-96
83273927,0.59912109375,0.0244140625,0.63568115234375,0.486083984375,-6785,7147,1805,-5,38,-105
83283911,0.60260009765625,0.013427734375,0.63861083984375,0.478271484375,-6974,6887,1748,-3,37,-112
83293893,0.606201171875,0.00244140625,0.64141845703125,0.4700927734375,-7042,6548,1710,-1,36,-112
83303880,0.60955810546875,-0.0079345703125,0.64398193359375,0.462158203125,-6997,6191,1704,0,34,-106
83313858,0.6123046875,-0.0174560546875,0.6463623046875,0.454833984375,-7001,5890,1711,1,34,-94
83323849,0.61431884765625,-0.02587890625,0.648681640625,0.4483642578125,-7054,5717,1716,1,34,-83
83333830,0.6158447265625,-0.0335693359375,0.65087890625,0.44256591796875,-7106,5589,1726,1,34,-76
83343806,0.6170654296875,-0.04083251953125,0.653076171875,0.43695068359375,-7143,5429,1731,2,34,-73
83353790,0.6181640625,-0.0479736328125,0.6552734375,0.43145751953125,-7152,5225,1685,2,33,-71
83363775,0.619140625,-0.05499267578125,0.65740966796875,0.42584228515625,-7147,4967,1638,3,34,-70
83373756,0.6201171875,-0.0618896484375,0.6595458984375,0.420166015625,-7091,4696,1592,3,34,-69
83383737,0.6209716796875,-0.06878662109375,0.66162109375,0.4144287109375,-7051,4446,1525,4,33,-69
83393720,0.621826171875,-0.07562255859375,0.66375732421875,0.40863037109375,-7070,4232,1448,5,34,-69
83403703,0.6226806640625,-0.08251953125,0.66583251953125,0.40252685546875,-7252,4159,1368,6,33,-72
83413685,0.623779296875,-0.08984375,0.66778564453125,0.3958740234375,-7554,4184,1290,6,33,-80
83423666,0.62530517578125,-0.0977783203125,0.669677734375,0.388427734375,-7908,4233,1205,7,32,-90
83433656,0.6273193359375,-0.10638427734375,0.67132568359375,0.3800048828125,-8282,4213,1099,9,31,-99
83443640,0.6295166015625,-0.115234375,0.67279052734375,0.37103271484375,-8609,4108,980,10,30,-102
83453620,0.631591796875,-0.12359619140625,0.67413330078125,0.36224365234375,-8818,3940,891,11,28,-95
83463610,0.63323974609375,-0.130859375,0.675537109375,0.354248046875,-8978,3763,813,13,27,-83
83473591,0.63427734375,-0.1365966796875,0.677001953125,0.34735107421875,-9106,3639,751,14,26,-67
83483570,0.634765625,-0.140869140625,0.6785888671875,0.34161376953125,-9202,3552,696,14,24,-51
83493545,0.63482666015625,-0.143798828125,0.6802978515625,0.3367919921875,-9264,3465,643,16,22,-39
83503526,0.63458251953125,-0.145751953125,0.68206787109375,0.33270263671875,-9272,3396,588,18,20,-30
83513511,0.63427734375,-0.14697265625,0.6839599609375,0.3289794921875,-9219,3310,527,19,19,-25
83523493,0.63397216796875,-0.14764404296875,0.68572998046875,0.32550048828125,-9115,3243,493,20,17,-21
83533478,0.6337890625,-0.1480712890625,0.6875,0.322021484375,-8989,3179,459,22,16,-21
83543460,0.6336669921875,-0.14837646484375,0.68914794921875,0.31842041015625,-8870,3126,426,23,15,-22
83553443,0.6337890625,-0.148681640625,0.690673828125,0.314697265625,-8780,3121,420,23,13,-24
83563425,0.6341552734375,-0.14923095703125,0.69207763671875,0.3106689453125,-8723,3139,410,24,13,-29
83573412,0.634765625,-0.15008544921875,0.69329833984375,0.30621337890625,-8686,3169,420,25,11,-34
83583388,0.63568115234375,-0.15130615234375,0.69427490234375,0.30145263671875,-8661,3177,394,25,10,-39
83593372,0.63677978515625,-0.1527099609375,0.6951904296875,0.29644775390625,-8650,3159,361,25,9,-41
83603354,0.63787841796875,-0.1539306640625,0.6959228515625,0.29156494140625,-8635,3108,320,25,7,-38
83613340,0.63897705078125,-0.15478515625,0.6966552734375,0.2869873046875,-8607,3045,272,24,6,-34
83623321,0.639892578125,-0.1551513671875,0.69732666015625,0.28302001953125,-8559,2986,233,23,4,-27
83633303,0.64068603515625,-0.15496826171875,0.697998046875,0.2796630859375,-8506,2938,207,22,3,-21
83643288,0.641357421875,-0.1544189453125,0.6986083984375,0.27685546875,-8487,2879,175,21,2,-16
83653267,0.6419677734375,-0.153564453125,0.69921875,0.2744140625,-8468,2829,139,20,1,-13
83663249,0.64263916015625,-0.15264892578125,0.69970703125,0.272216796875,-8460,2818,123,19,0,-13
83673235,0.643310546875,-0.1519775390625,0.70001220703125,0.26995849609375,-8451,2815,96,18,-1,-15
83683214,0.64422607421875,-0.15167236328125,0.7001953125,0.267578125,-8445,2813,77,17,-1,-19
83693193,0.645263671875,-0.15179443359375,0.70025634765625,0.26495361328125,-8416,2819,55,16,-2,-23
83703183,0.64642333984375,-0.15228271484375,0.70013427734375,0.26214599609375,-8375,2803,35,14,-2,-27
83713167,0.64764404296875,-0.15301513671875,0.69989013671875,0.25921630859375,-8362,2792,23,14,-3,-28
83723143,0.6488037109375,-0.15380859375,0.69964599609375,0.25640869140625,-8356,2752,1,12,-3,-27
83733124,0.64990234375,-0.1544189453125,0.69940185546875,0.2540283203125,-8336,2698,8,11,-3,-24
83743107,0.65081787109375,-0.1546630859375,0.69915771484375,0.25213623046875,-8324,2663,13,10,-3,-18
83753091,0.65155029296875,-0.154541015625,0.69903564453125,0.25079345703125,-8303,2615,21,9,-3,-12
83763073,0.6519775390625,-0.1539306640625,0.698974609375,0.25006103515625,-8274,2553,28,7,-3,-5
83773061,0.6522216796875,-0.1529541015625,0.69903564453125,0.2498779296875,-8215,2489,18,6,-3,1
83783035,0.65228271484375,-0.151611328125,0.69921875,0.25018310546875,-8161,2421,20,5,-2,6
83793017,0.65216064453125,-0.1500244140625,0.69940185546875,0.25079345703125,-8101,2361,20,5,-2,9
83802999,0.65191650390625,-0.1484375,0.69970703125,0.2515869140625,-8042,2307,25,4,-1,11
83812989,0.65155029296875,-0.14678955078125,0.70001220703125,0.2525634765625,-8005,2266,40,3,0,12
83822968,0.65118408203125,-0.145263671875,0.7003173828125,0.2535400390625,-7967,2230,52,2,0,11
83832950,0.65081787109375,-0.14404296875,0.70062255859375,0.25433349609375,-7941,2206,63,2,1,9
83842931,0.6505126953125,-0.14300537109375,0.700927734375,0.2550048828125,-7938,2182,58,1,1,6
83852919,0.650146484375,-0.142333984375,0.70123291015625,0.25543212890625,-7942,2136,53,1,2,3
83862897,0.64990234375,-0.1419677734375,0.70147705078125,0.255615234375,-7934,2111,53,1,2,1
83872883,0.649658203125,-0.14178466796875,0.70166015625,0.2557373046875,-7940,2090,56,0,2,-1
83882858,0.64947509765625,-0.14178466796875,0.70184326171875,0.2557373046875,-7953,2073,49,0,3,-2
83892850,0.64923095703125,-0.14190673828125,0.7020263671875,0.2557373046875,-7965,2052,47,-1,3,-3
83902830,0.64898681640625,-0.1419677734375,0.7022705078125,0.2557373046875,-7984,2029,40,-1,3,-2
83912807,0.648681640625,-0.14202880859375,0.70245361328125,0.25592041015625,-8008,2014,40,-1,3,-1
83922792,0.6483154296875,-0.14202880859375,0.70269775390625,0.25616455078125,-8031,1989,36,-2,4,0
83932775,0.64794921875,-0.1419677734375,0.70294189453125,0.25653076171875,-8056,1960,35,-2,3,1
83942757,0.64752197265625,-0.14178466796875,0.70318603515625,0.25701904296875,-8092,1937,26,-2,3,3
83952735,0.6470947265625,-0.14166259765625,0.703369140625,0.25762939453125,-8127,1922,15,-3,3,3
83962718,0.646728515625,-0.1414794921875,0.70355224609375,0.25830078125,-8144,1900,5,-3,2,4
83972700,0.64630126953125,-0.1412353515625,0.70367431640625,0.259033203125,-8158,1864,-8,-4,2,5
83982683,0.64593505859375,-0.1409912109375,0.70379638671875,0.25982666015625,-8168,1841,-27,-4,1,5
83992662,0.64556884765625,-0.1407470703125,0.703857421875,0.26068115234375,-8161,1831,-20,-4,1,5
84002654,0.64520263671875,-0.14056396484375,0.703857421875,0.26153564453125,-8151,1821,-22,-4,1,5
84012637,0.64495849609375,-0.14044189453125,0.703857421875,0.26239013671875,-8157,1814,-22,-5,1,4
84022620,0.6446533203125,-0.14044189453125,0.70379638671875,0.26312255859375,-8168,1804,-35,-5,1,3
84032611,0.64447021484375,-0.14044189453125,0.7037353515625,0.2637939453125,-8182,1790,-55,-5,0,2
84042599,0.64434814453125,-0.140625,0.70361328125,0.264404296875,-8169,1778,-70,-5,0,1
84052578,0.64422607421875,-0.14080810546875,0.70343017578125,0.26495361328125,-8166,1771,-72,-5,-1,1
84062550,0.6441650390625,-0.14105224609375,0.7032470703125,0.26544189453125,-8159,1765,-94,-5,0,0
84072531,0.64410400390625,-0.141357421875,0.70306396484375,0.26593017578125,-8129,1753,-87,-5,-1,0
84082510,0.64404296875,-0.1416015625,0.702880859375,0.2664794921875,-8126,1745,-83,-5,-1,0
84092499,0.64398193359375,-0.14190673828125,0.70269775390625,0.26702880859375,-8121,1747,-78,-5,0,0
84102477,0.64385986328125,-0.14215087890625,0.7025146484375,0.267578125,-8130,1738,-84,-5,0,0
84112460,0.643798828125,-0.1424560546875,0.70233154296875,0.26806640625,-8150,1738,-101,-6,0,0
84122443,0.64361572265625,-0.14276123046875,0.70220947265625,0.2686767578125,-8153,1744,-116,-6,0,1
84132426,0.6434326171875,-0.14300537109375,0.70208740234375,0.269287109375,-8129,1732,-123,-6,0,2
84142410,0.64324951171875,-0.14306640625,0.70196533203125,0.27008056640625,-8106,1739,-125,-6,0,3
84152387,0.6429443359375,-0.14306640625,0.701904296875,0.27093505859375,-8085,1748,-123,-6,0,5
84162370,0.642578125,-0.1429443359375,0.70184326171875,0.27191162109375,-8062,1730,-122,-6,0,6
84172352,0.6422119140625,-0.14276123046875,0.70184326171875,0.27294921875,-8042,1730,-112,-6,0,7
84182336,0.641845703125,-0.14251708984375,0.70184326171875,0.27398681640625,-8021,1712,-126,-6,0,7
84192318,0.64141845703125,-0.142333984375,0.70184326171875,0.2750244140625,-8004,1700,-137,-6,1,6
84202303,0.6409912109375,-0.14227294921875,0.70184326171875,0.2760009765625,-7978,1699,-135,-6,1,6
84212283,0.64068603515625,-0.14227294921875,0.70184326171875,0.2767333984375,-7964,1703,-148,-6,1,3
84222269,0.640380859375,-0.142578125,0.70184326171875,0.27728271484375,-7968,1701,-162,-5,1,1
84232254,0.64019775390625,-0.14300537109375,0.7017822265625,0.27764892578125,-7969,1715,-185,-5,1,-2
84242228,0.64007568359375,-0.14361572265625,0.70172119140625,0.27777099609375,-7991,1722,-198,-5,1,-4
84252210,0.6400146484375,-0.14447021484375,0.70166015625,0.2777099609375,-8031,1726,-210,-5,1,-6
84262191,0.63995361328125,-0.14532470703125,0.7015380859375,0.277587890625,-8059,1720,-228,-4,1,-6
