subject,Joshua Spiesman
arm,right
label,1
hz,100.17733003179013
time,4.95122

timestamp_us,q0,q1,q2,q3,ax,ay,az,gx,gy,gz
213702044,0.28558349609375,0.549072265625,0.482666015625,-0.61962890625,-7954,-2353,-985,22,-3,21
213712030,0.285888671875,0.551025390625,0.4794921875,-0.6202392578125,-7902,-2273,-939,21,-3,21
213722014,0.2861328125,0.55291748046875,0.47637939453125,-0.620849609375,-7893,-2168,-899,21,-3,19
213731992,0.28619384765625,0.55462646484375,0.47344970703125,-0.62152099609375,-7911,-2101,-846,21,-2,16
213741974,0.28594970703125,0.55615234375,0.47076416015625,-0.62225341796875,-7937,-2057,-795,21,-2,13
213751957,0.2855224609375,0.55755615234375,0.46826171875,-0.6231689453125,-7963,-2010,-733,21,-2,10
213761937,0.28485107421875,0.5587158203125,0.46588134765625,-0.62420654296875,-7955,-1966,-678,22,-3,7
213771922,0.28399658203125,0.55975341796875,0.463623046875,-0.62530517578125,-7952,-1939,-619,22,-2,5
213781904,0.28302001953125,0.560791015625,0.46148681640625,-0.62646484375,-7960,-1889,-569,22,-2,4
213791886,0.28204345703125,0.561767578125,0.4593505859375,-0.6275634765625,-7960,-1830,-532,21,-2,4
213801869,0.28118896484375,0.562744140625,0.4571533203125,-0.628662109375,-7960,-1767,-497,22,-2,5
213811850,0.28045654296875,0.56378173828125,0.45489501953125,-0.62969970703125,-7962,-1731,-457,21,-3,6
213821832,0.2799072265625,0.56488037109375,0.45245361328125,-0.6307373046875,-8002,-1722,-416,21,-3,8
213831819,0.27947998046875,0.56610107421875,0.44989013671875,-0.63165283203125,-8024,-1755,-384,21,-3,11
213841803,0.27935791015625,0.5673828125,0.44708251953125,-0.63250732421875,-8072,-1792,-344,21,-3,14
213851783,0.2794189453125,0.56884765625,0.4442138671875,-0.63323974609375,-8127,-1824,-311,20,-3,17
213861767,0.27960205078125,0.5703125,0.441162109375,-0.63397216796875,-8203,-1834,-318,20,-4,18
213871745,0.27978515625,0.57171630859375,0.4381103515625,-0.63470458984375,-8275,-1830,-315,20,-4,17
213881725,0.2799072265625,0.5731201171875,0.4351806640625,-0.63543701171875,-8320,-1807,-320,20,-4,16
213891708,0.2799072265625,0.5743408203125,0.43231201171875,-0.63629150390625,-8317,-1753,-319,20,-5,14
213901692,0.27972412109375,0.575439453125,0.4295654296875,-0.63720703125,-8255,-1695,-296,20,-5,12
213911672,0.279541015625,0.57635498046875,0.42694091796875,-0.63824462890625,-8157,-1631,-247,20,-6,10
213921658,0.279296875,0.57720947265625,0.42437744140625,-0.6392822265625,-8079,-1589,-225,20,-6,9
213931640,0.27899169921875,0.5780029296875,0.42193603515625,-0.640380859375,-7996,-1531,-197,19,-6,8
213941622,0.27862548828125,0.57867431640625,0.4195556640625,-0.64141845703125,-7920,-1473,-176,19,-6,7
213951605,0.27813720703125,0.57928466796875,0.41729736328125,-0.64251708984375,-7842,-1434,-146,19,-6,5
213961587,0.27752685546875,0.57977294921875,0.415283203125,-0.64373779296875,-7805,-1415,-123,18,-6,3
213971565,0.2767333984375,0.580078125,0.41339111328125,-0.64495849609375,-7802,-1397,-100,18,-6,0
213981549,0.27569580078125,0.5802001953125,0.41180419921875,-0.64630126953125,-7804,-1391,-79,17,-6,-3
213991529,0.27447509765625,0.5802001953125,0.4105224609375,-0.647705078125,-7789,-1393,-57,17,-6,-6
214001514,0.27313232421875,0.580078125,0.40936279296875,-0.64910888671875,-7765,-1387,-42,17,-6,-7
214011493,0.271728515625,0.579833984375,0.40838623046875,-0.6505126953125,-7715,-1399,-30,16,-6,-8
214021472,0.270263671875,0.57965087890625,0.407470703125,-0.65185546875,-7670,-1419,-22,15,-5,-8
214031464,0.2689208984375,0.5794677734375,0.4066162109375,-0.653076171875,-7637,-1426,-16,14,-5,-8
214041446,0.267578125,0.579345703125,0.40576171875,-0.654296875,-7612,-1428,-21,14,-4,-8
214051430,0.26629638671875,0.5792236328125,0.40496826171875,-0.6553955078125,-7592,-1435,-19,13,-4,-7
214061406,0.26507568359375,0.5791015625,0.40423583984375,-0.65643310546875,-7583,-1454,-9,13,-3,-7
214071389,0.263916015625,0.5791015625,0.40350341796875,-0.65740966796875,-7583,-1492,12,12,-3,-6
214081369,0.2628173828125,0.57904052734375,0.40277099609375,-0.6583251953125,-7614,-1536,51,11,-3,-5
214091353,0.26177978515625,0.57904052734375,0.402099609375,-0.6591796875,-7675,-1610,76,11,-2,-5
214101337,0.2608642578125,0.57904052734375,0.40142822265625,-0.659912109375,-7766,-1686,90,10,-2,-4
214111320,0.25994873046875,0.5791015625,0.40081787109375,-0.66058349609375,-7853,-1749,82,9,-2,-4
214121302,0.259033203125,0.57916259765625,0.4002685546875,-0.66119384765625,-7918,-1780,74,9,-1,-4
214131290,0.2581787109375,0.5792236328125,0.39984130859375,-0.66180419921875,-7958,-1800,56,8,-1,-5
214141271,0.2572021484375,0.57928466796875,0.3995361328125,-0.66229248046875,-7962,-1801,19,8,-1,-6
214151253,0.25628662109375,0.57928466796875,0.3992919921875,-0.662841796875,-7970,-1794,2,7,-1,-6
214164030,0.2552490234375,0.57928466796875,0.39910888671875,-0.66326904296875,-7969,-1799,-19,7,0,-7
214171225,0.25433349609375,0.5792236328125,0.3990478515625,-0.6636962890625,-7987,-1808,-24,5,0,-7
214181208,0.25335693359375,0.5792236328125,0.39898681640625,-0.66412353515625,-8010,-1848,-2,6,0,-7
214191189,0.25244140625,0.57916259765625,0.39898681640625,-0.66448974609375,-8040,-1876,12,5,0,-7
214201161,0.2515869140625,0.57916259765625,0.3990478515625,-0.66485595703125,-8066,-1886,9,5,1,-6
214211143,0.250732421875,0.57916259765625,0.39910888671875,-0.66510009765625,-8052,-1895,16,4,1,-6
214221125,0.2498779296875,0.5792236328125,0.399169921875,-0.66534423828125,-8020,-1896,15,4,1,-6
214231108,0.24920654296875,0.579345703125,0.399169921875,-0.66552734375,-7989,-1922,-1,4,1,-4
214241089,0.24847412109375,0.57952880859375,0.399169921875,-0.66558837890625,-7950,-1954,-41,4,2,-3
214251074,0.24798583984375,0.57989501953125,0.39898681640625,-0.66558837890625,-7919,-1953,-70,4,2,-1
214261063,0.24755859375,0.580322265625,0.39874267578125,-0.66552734375,-7887,-1951,-86,4,2,1
214271039,0.24737548828125,0.58087158203125,0.39825439453125,-0.6654052734375,-7836,-1921,-104,4,2,3
214281027,0.247314453125,0.58160400390625,0.39764404296875,-0.6651611328125,-7794,-1886,-122,4,3,5
214291009,0.24737548828125,0.58233642578125,0.39691162109375,-0.6649169921875,-7756,-1831,-110,4,3,6
214300986,0.24749755859375,0.583251953125,0.39605712890625,-0.66461181640625,-7730,-1762,-86,4,3,7
214310967,0.24761962890625,0.5841064453125,0.39520263671875,-0.66424560546875,-7686,-1699,-66,4,3,7
214320951,0.24774169921875,0.58502197265625,0.39434814453125,-0.6639404296875,-7658,-1654,-31,5,4,7
214330933,0.24786376953125,0.58587646484375,0.39349365234375,-0.66363525390625,-7641,-1607,-1,4,4,6
214340914,0.2479248046875,0.5867919921875,0.3927001953125,-0.66326904296875,-7624,-1576,54,4,5,6
214350897,0.248046875,0.58770751953125,0.391845703125,-0.6629638671875,-7626,-1542,113,4,5,7
214360879,0.2481689453125,0.588623046875,0.3909912109375,-0.66259765625,-7627,-1501,157,4,5,7
214370861,0.24835205078125,0.5894775390625,0.39019775390625,-0.6622314453125,-7624,-1461,188,4,5,6
214380841,0.24853515625,0.59039306640625,0.389404296875,-0.66180419921875,-7630,-1416,227,3,5,7
214390824,0.24871826171875,0.59124755859375,0.388671875,-0.66143798828125,-7658,-1394,236,3,5,5
214400802,0.24871826171875,0.592041015625,0.3880615234375,-0.66107177734375,-7697,-1382,226,3,5,4
214410795,0.2486572265625,0.59271240234375,0.3876953125,-0.66070556640625,-7775,-1373,216,2,5,2
214420776,0.24853515625,0.59326171875,0.38739013671875,-0.660400390625,-7849,-1377,216,2,5,1
214430756,0.248291015625,0.59375,0.38726806640625,-0.66015625,-7917,-1399,207,1,4,0
214440733,0.24810791015625,0.5941162109375,0.38714599609375,-0.65997314453125,-7981,-1396,197,1,4,-1
214450720,0.248046875,0.594482421875,0.38702392578125,-0.65972900390625,-8037,-1401,177,1,3,0
214460698,0.248046875,0.59478759765625,0.3868408203125,-0.6595458984375,-8070,-1418,176,0,2,1
214470679,0.248291015625,0.59503173828125,0.38653564453125,-0.65936279296875,-8107,-1451,168,-1,1,2
214480670,0.2486572265625,0.5953369140625,0.38623046875,-0.6591796875,-8151,-1479,161,-1,1,4
214490644,0.24920654296875,0.5955810546875,0.3857421875,-0.6590576171875,-8201,-1513,141,-1,-1,5
214500624,0.24981689453125,0.5958251953125,0.38519287109375,-0.65887451171875,-8229,-1538,127,-1,-2,6
214510606,0.25067138671875,0.59600830078125,0.3846435546875,-0.65875244140625,-8226,-1549,105,-1,-2,7
214520586,0.25164794921875,0.59619140625,0.3839111328125,-0.65863037109375,-8226,-1559,103,-2,-3,9
214530568,0.25274658203125,0.5963134765625,0.3831787109375,-0.6585693359375,-8211,-1585,96,-2,-4,10
214540550,0.25390625,0.59637451171875,0.38232421875,-0.6585693359375,-8210,-1600,93,-2,-5,10
214550531,0.255126953125,0.59637451171875,0.38153076171875,-0.65850830078125,-8217,-1615,86,-2,-6,10
214560515,0.25640869140625,0.59637451171875,0.3807373046875,-0.65850830078125,-8226,-1633,47,-2,-6,10
214570499,0.257568359375,0.59625244140625,0.3800048828125,-0.6585693359375,-8243,-1647,39,-2,-7,9
214580483,0.25872802734375,0.59600830078125,0.37939453125,-0.65869140625,-8228,-1640,22,-3,-7,8
214590469,0.25982666015625,0.595703125,0.3787841796875,-0.65887451171875,-8187,-1624,20,-3,-8,7
214600450,0.26092529296875,0.5953369140625,0.3782958984375,-0.6590576171875,-8139,-1594,19,-3,-8,6
214610434,0.2620849609375,0.59490966796875,0.3778076171875,-0.65924072265625,-8087,-1574,21,-4,-8,6
214620412,0.26312255859375,0.594482421875,0.37738037109375,-0.65948486328125,-8040,-1557,20,-4,-8,6
214630394,0.26422119140625,0.59405517578125,0.37689208984375,-0.65966796875,-8008,-1545,20,-4,-9,6
214640376,0.2652587890625,0.593505859375,0.37652587890625,-0.65997314453125,-7991,-1518,30,-4,-9,5
214650359,0.2662353515625,0.59295654296875,0.37628173828125,-0.66021728515625,-7974,-1493,48,-4,-9,4
214660341,0.26715087890625,0.5924072265625,0.3760986328125,-0.66046142578125,-7978,-1476,83,-4,-8,2
214670327,0.26800537109375,0.59173583984375,0.3759765625,-0.6607666015625,-7997,-1471,123,-5,-8,2
214680302,0.268798828125,0.591064453125,0.3759765625,-0.66107177734375,-8025,-1476,160,-5,-8,1
214690290,0.26953125,0.59033203125,0.37603759765625,-0.661376953125,-8075,-1480,192,-5,-8,0
214700275,0.270263671875,0.589599609375,0.37615966796875,-0.66168212890625,-8100,-1462,221,-5,-7,0
214710257,0.27099609375,0.58880615234375,0.3763427734375,-0.6619873046875,-8098,-1454,219,-6,-7,-1
214720243,0.271728515625,0.588134765625,0.37652587890625,-0.6622314453125,-8095,-1445,228,-6,-7,0
214730227,0.2724609375,0.58746337890625,0.37664794921875,-0.66241455078125,-8079,-1434,227,-6,-7,0
214740210,0.2733154296875,0.58685302734375,0.376708984375,-0.66253662109375,-8052,-1419,227,-6,-7,2
214750192,0.27423095703125,0.58636474609375,0.376708984375,-0.66259765625,-8029,-1400,261,-6,-6,3
214760162,0.27532958984375,0.5859375,0.37664794921875,-0.66259765625,-8013,-1388,298,-6,-6,4
214770145,0.27642822265625,0.5855712890625,0.37646484375,-0.66253662109375,-8005,-1371,329,-6,-5,5
214780128,0.27764892578125,0.5853271484375,0.376220703125,-0.66241455078125,-7995,-1355,360,-6,-5,7
214790110,0.2789306640625,0.5850830078125,0.3759765625,-0.66217041015625,-7993,-1340,394,-6,-5,7
214800094,0.28021240234375,0.58489990234375,0.37567138671875,-0.6619873046875,-7999,-1325,427,-6,-4,8
214810075,0.281494140625,0.58477783203125,0.3753662109375,-0.66168212890625,-7993,-1328,446,-7,-3,8
214820058,0.28271484375,0.584716796875,0.3751220703125,-0.66131591796875,-7984,-1318,453,-6,-3,8
214830040,0.283935546875,0.584716796875,0.37493896484375,-0.66094970703125,-7976,-1293,439,-6,-2,7
214840030,0.2850341796875,0.584716796875,0.374755859375,-0.66058349609375,-7984,-1265,440,-6,-2,6
214850010,0.2860107421875,0.584716796875,0.3746337890625,-0.66021728515625,-7980,-1246,436,-6,-1,6
214859987,0.28692626953125,0.58477783203125,0.3746337890625,-0.65985107421875,-7968,-1224,427,-6,-1,5
214869975,0.2877197265625,0.58477783203125,0.3746337890625,-0.659423828125,-7952,-1215,423,-5,0,4
214879951,0.2884521484375,0.5848388671875,0.37469482421875,-0.6590576171875,-7953,-1211,425,-5,0,4
214889936,0.28912353515625,0.58489990234375,0.374755859375,-0.65869140625,-7981,-1223,403,-5,0,4
214899919,0.289794921875,0.5849609375,0.374755859375,-0.65826416015625,-8043,-1231,374,-5,0,4
214909904,0.29034423828125,0.5850830078125,0.37481689453125,-0.65789794921875,-8074,-1239,357,-4,0,3
214919886,0.2908935546875,0.58514404296875,0.3748779296875,-0.6575927734375,-8109,-1235,336,-4,0,3
214929868,0.2913818359375,0.58526611328125,0.37481689453125,-0.65728759765625,-8112,-1233,322,-3,0,3
214939849,0.2918701171875,0.58544921875,0.37469482421875,-0.656982421875,-8100,-1225,308,-3,0,4
214949829,0.29248046875,0.58563232421875,0.37451171875,-0.65667724609375,-8099,-1211,309,-2,0,5
214959819,0.2930908203125,0.5859375,0.3741455078125,-0.65631103515625,-8117,-1201,299,-2,0,6
214969801,0.29376220703125,0.58624267578125,0.37371826171875,-0.656005859375,-8139,-1187,309,-2,0,7
214979785,0.29443359375,0.58648681640625,0.37322998046875,-0.65570068359375,-8184,-1139,302,-1,-1,6
214989757,0.2950439453125,0.5867919921875,0.37274169921875,-0.65545654296875,-8218,-1078,299,-1,-1,6
214999746,0.2955322265625,0.58709716796875,0.37225341796875,-0.6552734375,-8253,-1018,287,0,-1,4
215009726,0.29595947265625,0.5872802734375,0.37176513671875,-0.65521240234375,-8278,-958,285,0,-2,3
215019708,0.29632568359375,0.58740234375,0.37127685546875,-0.6551513671875,-8282,-931,289,0,-2,3
215029690,0.2967529296875,0.58758544921875,0.37078857421875,-0.65509033203125,-8273,-935,294,1,-2,4
215039670,0.29730224609375,0.5877685546875,0.3701171875,-0.655029296875,-8270,-943,309,1,-3,6
215049653,0.29803466796875,0.58807373046875,0.3692626953125,-0.6549072265625,-8267,-941,309,1,-2,9
215059636,0.29888916015625,0.5885009765625,0.36822509765625,-0.65478515625,-8261,-915,325,1,-3,10
215069617,0.29986572265625,0.5889892578125,0.3670654296875,-0.654541015625,-8243,-899,324,1,-3,12
215079597,0.30096435546875,0.58953857421875,0.3658447265625,-0.65423583984375,-8255,-866,309,2,-2,13
215089581,0.3021240234375,0.59014892578125,0.364501953125,-0.65386962890625,-8279,-844,290,2,-3,14
215099564,0.30328369140625,0.5908203125,0.36309814453125,-0.65350341796875,-8303,-796,275,2,-2,15
215109545,0.3045654296875,0.591552734375,0.36163330078125,-0.653076171875,-8328,-769,262,2,-2,16
215119529,0.30584716796875,0.59228515625,0.36004638671875,-0.65264892578125,-8383,-754,265,2,-2,17
215129510,0.30718994140625,0.5931396484375,0.35845947265625,-0.652099609375,-8427,-699,263,2,-2,18
215139493,0.30865478515625,0.593994140625,0.356689453125,-0.651611328125,-8501,-627,271,2,-2,18
215149474,0.31011962890625,0.59490966796875,0.35491943359375,-0.65106201171875,-8565,-533,289,3,-2,18
215159464,0.3116455078125,0.5958251953125,0.35308837890625,-0.6505126953125,-8620,-459,294,3,-2,19
215169446,0.31329345703125,0.5968017578125,0.35113525390625,-0.64990234375,-8680,-396,307,2,-2,21
215179428,0.3150634765625,0.597900390625,0.3489990234375,-0.649169921875,-8752,-339,323,3,-2,23
215189406,0.31707763671875,0.59906005859375,0.34661865234375,-0.64837646484375,-8812,-271,331,3,-2,27
215199386,0.3194580078125,0.60052490234375,0.3438720703125,-0.6473388671875,-8860,-163,355,3,-1,31
215209369,0.3223876953125,0.60223388671875,0.3406982421875,-0.64599609375,-8896,-6,391,2,-1,37
215219356,0.32562255859375,0.60418701171875,0.337158203125,-0.64434814453125,-8940,170,422,3,0,41
215229334,0.32928466796875,0.6064453125,0.33319091796875,-0.6424560546875,-8962,368,447,3,1,47
215239318,0.3333740234375,0.60888671875,0.32891845703125,-0.6402587890625,-8971,538,493,2,1,52
215249300,0.33782958984375,0.611572265625,0.32415771484375,-0.63775634765625,-8976,719,518,2,2,57
215259290,0.3427734375,0.61444091796875,0.31903076171875,-0.63494873046875,-8996,908,555,2,3,63
215269273,0.34814453125,0.6175537109375,0.31341552734375,-0.63177490234375,-8998,1079,625,2,3,69
215279256,0.3538818359375,0.62078857421875,0.30743408203125,-0.62835693359375,-9011,1256,693,2,4,74
215289240,0.35992431640625,0.6241455078125,0.3011474609375,-0.62457275390625,-9038,1416,733,1,5,78
215299225,0.3662109375,0.627685546875,0.294677734375,-0.62054443359375,-9045,1579,752,1,6,82
215309208,0.37261962890625,0.6312255859375,0.2879638671875,-0.6162109375,-9057,1753,747,1,6,84
215319189,0.379150390625,0.6348876953125,0.28118896484375,-0.61163330078125,-9062,1914,715,1,7,87
215329160,0.3857421875,0.6385498046875,0.274169921875,-0.6068115234375,-9078,2074,682,1,7,89
215339143,0.3924560546875,0.64227294921875,0.26702880859375,-0.601806640625,-9130,2230,643,1,7,91
215349123,0.399169921875,0.64593505859375,0.25970458984375,-0.59661865234375,-9205,2405,602,1,8,93
215359106,0.40594482421875,0.64959716796875,0.25225830078125,-0.59124755859375,-9252,2568,566,0,8,95
215369089,0.41290283203125,0.65325927734375,0.24456787109375,-0.58563232421875,-9302,2717,525,1,8,99
215379072,0.4200439453125,0.656982421875,0.2364501953125,-0.57965087890625,-9343,2877,491,1,8,104
215389054,0.42742919921875,0.66064453125,0.22796630859375,-0.57342529296875,-9351,3036,464,1,8,108
215399037,0.43505859375,0.66436767578125,0.2191162109375,-0.56683349609375,-9390,3217,450,1,8,113
215409025,0.44281005859375,0.66796875,0.20989990234375,-0.56005859375,-9441,3397,409,1,7,117
215419002,0.45074462890625,0.67144775390625,0.20037841796875,-0.552978515625,-9428,3606,386,0,6,119
215428985,0.4586181640625,0.67474365234375,0.190673828125,-0.5458984375,-9387,3808,344,1,5,120
215438965,0.466552734375,0.6778564453125,0.18072509765625,-0.53863525390625,-9284,3999,311,1,4,121
215448948,0.47442626953125,0.6807861328125,0.17071533203125,-0.53131103515625,-9156,4163,271,1,3,122
215458931,0.48223876953125,0.68353271484375,0.1605224609375,-0.52386474609375,-9046,4343,233,0,2,124
215468912,0.48992919921875,0.68603515625,0.15032958984375,-0.5164794921875,-8969,4510,205,1,1,122
215478894,0.497314453125,0.68829345703125,0.14031982421875,-0.50909423828125,-8887,4695,178,0,1,120
215488877,0.50457763671875,0.6903076171875,0.13043212890625,-0.5018310546875,-8828,4871,180,0,0,118
215498861,0.51153564453125,0.69207763671875,0.12066650390625,-0.49468994140625,-8745,5051,164,0,-1,116
215508841,0.51837158203125,0.693603515625,0.11102294921875,-0.48760986328125,-8617,5250,143,-1,-2,115
215518819,0.52508544921875,0.6949462890625,0.10137939453125,-0.48065185546875,-8458,5433,127,-1,-3,113
215528800,0.53167724609375,0.69598388671875,0.09185791015625,-0.47369384765625,-8302,5586,120,-2,-4,113
215538790,0.5382080078125,0.69683837890625,0.08233642578125,-0.466796875,-8108,5721,119,-2,-4,112
215548772,0.54473876953125,0.697509765625,0.07281494140625,-0.4598388671875,-7961,5844,106,-4,-5,113
215558749,0.5511474609375,0.69793701171875,0.0633544921875,-0.45281982421875,-7836,5980,107,-4,-5,113
215568731,0.5576171875,0.69818115234375,0.05389404296875,-0.44573974609375,-7726,6129,117,-5,-6,113
215578715,0.56396484375,0.6981201171875,0.04449462890625,-0.43878173828125,-7619,6282,127,-6,-7,112
215588704,0.5703125,0.6978759765625,0.03509521484375,-0.4317626953125,-7472,6445,108,-7,-7,112
215598682,0.57666015625,0.69744873046875,0.0257568359375,-0.4246826171875,-7284,6589,99,-8,-8,112
215608670,0.58294677734375,0.69677734375,0.01641845703125,-0.4176025390625,-7076,6716,85,-9,-9,112
215618647,0.58929443359375,0.69586181640625,0.00701904296875,-0.410400390625,-6815,6825,107,-10,-9,113
215628628,0.5958251953125,0.6947021484375,-0.0025634765625,-0.40289306640625,-6542,6903,124,-12,-9,116
215638610,0.6025390625,0.69329833984375,-0.01239013671875,-0.39508056640625,-6299,6985,156,-13,-9,120
215648593,0.60931396484375,0.691650390625,-0.02227783203125,-0.386962890625,-6133,7094,186,-15,-8,121
215658577,0.61602783203125,0.68975830078125,-0.03173828125,-0.37908935546875,-6004,7204,206,-17,-9,118
215668556,0.62237548828125,0.68768310546875,-0.040771484375,-0.37152099609375,-5900,7284,198,-18,-9,113
215678541,0.62847900390625,0.68536376953125,-0.04925537109375,-0.36444091796875,-5769,7321,180,-20,-10,108
215688521,0.63446044921875,0.682861328125,-0.0576171875,-0.3575439453125,-5570,7341,188,-20,-11,107
215698505,0.64044189453125,0.68011474609375,-0.06610107421875,-0.35052490234375,-5332,7329,184,-21,-12,109
215708487,0.64654541015625,0.6771240234375,-0.0748291015625,-0.34326171875,-5079,7347,210,-23,-12,111
215718466,0.6527099609375,0.6739501953125,-0.08367919921875,-0.33575439453125,-4841,7337,231,-23,-12,113
215728457,0.6588134765625,0.6705322265625,-0.09246826171875,-0.3282470703125,-4622,7348,239,-25,-12,113
215738440,0.66485595703125,0.66693115234375,-0.10107421875,-0.32080078125,-4470,7378,254,-26,-13,111
215748424,0.67059326171875,0.6632080078125,-0.1092529296875,-0.31378173828125,-4368,7438,279,-27,-13,106
215758398,0.6761474609375,0.6593017578125,-0.116943359375,-0.3072509765625,-4251,7478,303,-28,-14,101
215768385,0.68145751953125,0.65533447265625,-0.12445068359375,-0.30096435546875,-4115,7529,327,-28,-14,99
215778363,0.686767578125,0.65118408203125,-0.13201904296875,-0.29461669921875,-3944,7579,360,-29,-15,100
215788344,0.69207763671875,0.6468505859375,-0.1397705078125,-0.2880859375,-3705,7601,408,-30,-15,103
215798329,0.69757080078125,0.6422119140625,-0.14776611328125,-0.28118896484375,-3426,7585,474,-31,-15,106
215808313,0.70318603515625,0.63726806640625,-0.15606689453125,-0.27392578125,-3122,7546,541,-31,-15,109
215818295,0.708740234375,0.6322021484375,-0.16436767578125,-0.266357421875,-2858,7528,591,-32,-14,111
215828274,0.71429443359375,0.62689208984375,-0.1727294921875,-0.25872802734375,-2613,7531,640,-33,-14,112
215838265,0.71978759765625,0.6214599609375,-0.18096923828125,-0.25091552734375,-2336,7520,715,-33,-13,112
215848247,0.72515869140625,0.6158447265625,-0.189208984375,-0.242919921875,-2048,7461,780,-34,-13,112
215858227,0.7305908203125,0.6099853515625,-0.1973876953125,-0.23480224609375,-1759,7389,860,-34,-12,113
215868218,0.73577880859375,0.60418701171875,-0.205322265625,-0.22674560546875,-1501,7322,925,-34,-11,110
215878200,0.74072265625,0.598388671875,-0.2127685546875,-0.218994140625,-1336,7282,976,-34,-10,104
215888177,0.7452392578125,0.59283447265625,-0.21942138671875,-0.21197509765625,-1215,7288,1040,-34,-10,95
215898157,0.7493896484375,0.5875244140625,-0.225341796875,-0.205810546875,-1071,7301,1100,-33,-9,86
215908139,0.7532958984375,0.5823974609375,-0.2308349609375,-0.2000732421875,-892,7238,1141,-32,-9,82
215918122,0.757080078125,0.5771484375,-0.236572265625,-0.19403076171875,-616,7096,1184,-31,-9,86
215928103,0.76104736328125,0.57159423828125,-0.24310302734375,-0.1868896484375,-300,6920,1236,-30,-9,97
215938086,0.76513671875,0.565673828125,-0.2503662109375,-0.1785888671875,-34,6774,1293,-29,-8,108
215948068,0.7691650390625,0.55950927734375,-0.25787353515625,-0.169677734375,140,6695,1355,-28,-7,112
215958051,0.77288818359375,0.553466796875,-0.26519775390625,-0.160888671875,262,6664,1393,-27,-8,109
215968033,0.7762451171875,0.5478515625,-0.27178955078125,-0.15289306640625,390,6655,1432,-26,-7,98
215978021,0.7791748046875,0.5426025390625,-0.2777099609375,-0.14581298828125,535,6600,1475,-24,-7,88
215987997,0.7818603515625,0.53765869140625,-0.283203125,-0.13934326171875,712,6502,1507,-23,-7,82
215997980,0.7843017578125,0.53277587890625,-0.28863525390625,-0.1329345703125,907,6370,1557,-21,-7,81
216007962,0.78668212890625,0.52777099609375,-0.29437255859375,-0.1260986328125,1091,6265,1599,-20,-8,86
216017942,0.7889404296875,0.52264404296875,-0.300537109375,-0.11865234375,1293,6192,1644,-19,-9,92
216027927,0.79107666015625,0.51727294921875,-0.30694580078125,-0.11083984375,1473,6141,1700,-18,-9,95
216037912,0.7930908203125,0.51202392578125,-0.3133544921875,-0.10296630859375,1637,6110,1758,-17,-9,94
216047888,0.7947998046875,0.5069580078125,-0.31939697265625,-0.09564208984375,1817,6063,1813,-17,-10,87
216057872,0.79632568359375,0.50225830078125,-0.32501220703125,-0.08905029296875,1944,6041,1851,-15,-10,79
216067855,0.79754638671875,0.49798583984375,-0.33013916015625,-0.0831298828125,2051,6046,1886,-14,-10,73
216077837,0.798583984375,0.49383544921875,-0.33514404296875,-0.0775146484375,2172,6023,1929,-13,-11,71
216087820,0.799560546875,0.48956298828125,-0.34039306640625,-0.07159423828125,2340,5986,1968,-13,-12,76
216097801,0.80047607421875,0.48492431640625,-0.34619140625,-0.06494140625,2541,5954,1986,-13,-13,83
216107792,0.80126953125,0.47991943359375,-0.35247802734375,-0.0576171875,2774,5915,2011,-12,-13,90
216117773,0.80206298828125,0.474609375,-0.35894775390625,-0.04986572265625,2998,5881,2050,-13,-13,93
216127747,0.80279541015625,0.46929931640625,-0.3653564453125,-0.04217529296875,3227,5824,2087,-13,-13,91
216137731,0.8033447265625,0.46405029296875,-0.3714599609375,-0.034912109375,3439,5751,2129,-13,-13,86
216147712,0.80389404296875,0.45904541015625,-0.37713623046875,-0.028076171875,3636,5686,2177,-13,-12,80
216157696,0.80426025390625,0.4542236328125,-0.38250732421875,-0.02166748046875,3816,5590,2211,-12,-12,76
216167678,0.80462646484375,0.44940185546875,-0.3876953125,-0.01531982421875,3980,5490,2227,-12,-11,76
216177660,0.804931640625,0.4444580078125,-0.3929443359375,-0.0087890625,4122,5370,2225,-12,-11,78
216187642,0.80511474609375,0.439453125,-0.39825439453125,-0.001953125,4241,5270,2220,-12,-11,81
216197626,0.80523681640625,0.4342041015625,-0.4036865234375,0.005126953125,4351,5165,2222,-12,-10,83
216207607,0.8052978515625,0.42889404296875,-0.4090576171875,0.0123291015625,4444,5054,2239,-11,-11,83
216217588,0.80523681640625,0.4237060546875,-0.41436767578125,0.01934814453125,4543,4929,2240,-11,-11,82
216227577,0.80499267578125,0.41864013671875,-0.4195556640625,0.02630615234375,4640,4828,2225,-10,-11,80
216237553,0.8045654296875,0.41363525390625,-0.4246826171875,0.03326416015625,4756,4722,2204,-9,-11,80
216247537,0.8040771484375,0.40863037109375,-0.42987060546875,0.04046630859375,4887,4604,2184,-7,-11,82
216257517,0.80340576171875,0.40350341796875,-0.4351806640625,0.0479736328125,5024,4486,2161,-7,-11,85
216267502,0.80255126953125,0.3983154296875,-0.4405517578125,0.055908203125,5156,4355,2136,-5,-10,88
216277483,0.80157470703125,0.39300537109375,-0.4459228515625,0.06402587890625,5301,4220,2117,-5,-10,89
216287471,0.80047607421875,0.38775634765625,-0.45123291015625,0.07232666015625,5461,4086,2110,-4,-9,90
216297454,0.7991943359375,0.38250732421875,-0.45648193359375,0.08074951171875,5637,3957,2074,-2,-9,90
216307433,0.79779052734375,0.3773193359375,-0.461669921875,0.08941650390625,5808,3830,2044,-1,-8,92
216317414,0.796142578125,0.3720703125,-0.46685791015625,0.0985107421875,5972,3726,2023,2,-8,95
216327393,0.7943115234375,0.36688232421875,-0.4720458984375,0.10784912109375,6114,3659,1994,3,-7,97
216337376,0.79229736328125,0.36181640625,-0.47698974609375,0.11724853515625,6254,3597,1983,5,-7,96
216347358,0.7901611328125,0.35699462890625,-0.4818115234375,0.1265869140625,6382,3518,1989,6,-7,94
216357340,0.787841796875,0.35235595703125,-0.4864501953125,0.13580322265625,6514,3437,1994,8,-7,92
216367327,0.785400390625,0.347900390625,-0.490966796875,0.14495849609375,6629,3340,2009,10,-7,92
216377304,0.78271484375,0.343505859375,-0.4954833984375,0.154296875,6670,3230,2020,11,-8,93
216387290,0.77984619140625,0.339111328125,-0.49993896484375,0.16387939453125,6679,3093,2031,13,-8,96
216397275,0.7767333984375,0.3345947265625,-0.50445556640625,0.17376708984375,6691,2942,2070,15,-9,99
216407259,0.77337646484375,0.33013916015625,-0.50897216796875,0.183837890625,6738,2798,2136,16,-10,99
216417240,0.76983642578125,0.32568359375,-0.513427734375,0.19390869140625,6839,2645,2182,17,-11,99
216427228,0.76611328125,0.3214111328125,-0.517822265625,0.2039794921875,6969,2467,2219,18,-12,98
216437209,0.76214599609375,0.31719970703125,-0.52215576171875,0.21392822265625,7059,2256,2194,19,-12,97
216447192,0.758056640625,0.3131103515625,-0.52642822265625,0.22393798828125,7098,2008,2165,21,-12,96
216457165,0.7537841796875,0.30902099609375,-0.5306396484375,0.23394775390625,7154,1739,2166,22,-13,96
216467146,0.74945068359375,0.3050537109375,-0.53460693359375,0.24383544921875,7255,1474,2217,23,-12,93
216477127,0.74517822265625,0.30126953125,-0.5382080078125,0.25335693359375,7350,1212,2264,23,-12,88
216487110,0.74114990234375,0.29791259765625,-0.5413818359375,0.26226806640625,7446,956,2296,23,-10,80
216497093,0.73736572265625,0.294921875,-0.54412841796875,0.27056884765625,7561,694,2306,22,-8,72
216507075,0.73394775390625,0.292236328125,-0.54638671875,0.27813720703125,7661,434,2319,22,-6,64
216517057,0.7308349609375,0.2899169921875,-0.548095703125,0.28521728515625,7693,192,2316,22,-4,57
216527039,0.72808837890625,0.28790283203125,-0.5494384765625,0.29168701171875,7696,-27,2312,21,-2,50
216537029,0.72564697265625,0.2861328125,-0.5504150390625,0.29754638671875,7709,-206,2316,20,0,43
216547010,0.72381591796875,0.28472900390625,-0.5509033203125,0.302490234375,7706,-308,2336,17,2,34
216556984,0.7225341796875,0.2838134765625,-0.551025390625,0.3062744140625,7686,-351,2334,14,2,22
216566967,0.721923828125,0.283447265625,-0.55078125,0.30841064453125,7649,-408,2292,9,3,7
216576944,0.72210693359375,0.28375244140625,-0.55010986328125,0.30889892578125,7604,-480,2237,5,3,-9
216586923,0.72296142578125,0.28472900390625,-0.549072265625,0.30780029296875,7560,-563,2176,1,4,-24
216596912,0.72442626953125,0.28631591796875,-0.547607421875,0.305419921875,7519,-643,2112,-1,5,-37
216606888,0.726318359375,0.28839111328125,-0.54583740234375,0.30218505859375,7464,-681,2048,-2,6,-45
216616871,0.72845458984375,0.290771484375,-0.5438232421875,0.29840087890625,7410,-658,2006,-2,6,-50
216626854,0.73077392578125,0.2933349609375,-0.54150390625,0.2943115234375,7353,-569,1959,-2,7,-53
216636836,0.73321533203125,0.29608154296875,-0.53912353515625,0.28997802734375,7289,-444,1921,-3,8,-55
216646819,0.73577880859375,0.29901123046875,-0.53643798828125,0.28521728515625,7226,-303,1887,-3,8,-59
216656805,0.738525390625,0.30224609375,-0.53363037109375,0.280029296875,7150,-161,1842,-3,8,-64
216666787,0.74139404296875,0.30584716796875,-0.5306396484375,0.274169921875,7049,-32,1799,-4,8,-71
216676770,0.744384765625,0.30999755859375,-0.52740478515625,0.26763916015625,6948,107,1769,-3,7,-77
216686748,0.7474365234375,0.314453125,-0.52398681640625,0.26055908203125,6866,258,1761,-4,5,-82
216696731,0.75042724609375,0.3192138671875,-0.5205078125,0.25299072265625,6824,414,1761,-3,4,-86
216706714,0.75335693359375,0.3240966796875,-0.51702880859375,0.24517822265625,6748,568,1754,-4,2,-88
216716696,0.75604248046875,0.32916259765625,-0.51361083984375,0.23712158203125,6632,706,1723,-3,0,-89
216726680,0.75860595703125,0.33441162109375,-0.51019287109375,0.228759765625,6477,854,1673,-3,-2,-92
216736658,0.76104736328125,0.3399658203125,-0.5068359375,0.219970703125,6291,1013,1627,-3,-4,-95
216746641,0.76324462890625,0.34588623046875,-0.50335693359375,0.21063232421875,6125,1195,1597,-2,-7,-100
216756625,0.76531982421875,0.35223388671875,-0.49981689453125,0.20074462890625,6008,1422,1593,-1,-10,-104
216766610,0.7672119140625,0.35888671875,-0.4962158203125,0.19049072265625,5931,1637,1580,0,-11,-106
216776588,0.76885986328125,0.36572265625,-0.4925537109375,0.1800537109375,5879,1823,1566,1,-12,-108
216786577,0.770263671875,0.37261962890625,-0.48895263671875,0.16949462890625,5844,1971,1556,2,-14,-109
216796555,0.77142333984375,0.37957763671875,-0.48529052734375,0.158935546875,5815,2118,1520,3,-14,-109
216806537,0.77239990234375,0.38671875,-0.48150634765625,0.148193359375,5752,2277,1500,4,-15,-112
216816520,0.7733154296875,0.39410400390625,-0.47735595703125,0.13702392578125,5670,2472,1487,5,-15,-116
216826503,0.77410888671875,0.4019775390625,-0.47271728515625,0.1253662109375,5585,2683,1477,7,-14,-123
216836485,0.77471923828125,0.41009521484375,-0.46771240234375,0.11334228515625,5531,2890,1459,8,-14,-126
216846473,0.775146484375,0.418212890625,-0.46246337890625,0.10137939453125,5489,3095,1452,9,-13,-126
216856457,0.77545166015625,0.42620849609375,-0.45709228515625,0.0897216796875,5446,3343,1459,9,-11,-123
216866439,0.775634765625,0.43389892578125,-0.45159912109375,0.07843017578125,5327,3607,1438,9,-10,-120
216876416,0.77569580078125,0.4415283203125,-0.44586181640625,0.06719970703125,5146,3875,1418,10,-8,-118
216886398,0.775634765625,0.44915771484375,-0.43975830078125,0.055908203125,4978,4102,1408,10,-7,-121
216896385,0.7755126953125,0.45697021484375,-0.43328857421875,0.0445556640625,4853,4268,1399,11,-5,-124
216906361,0.77520751953125,0.46484375,-0.4263916015625,0.03314208984375,4740,4445,1392,13,-3,-126
216916343,0.7747802734375,0.47265625,-0.41925048828125,0.0218505859375,4631,4613,1366,13,-1,-125
216926329,0.77423095703125,0.480224609375,-0.41204833984375,0.01116943359375,4529,4800,1343,14,1,-120
216936308,0.773681640625,0.48724365234375,-0.40484619140625,0.00115966796875,4358,5068,1372,13,3,-113
216946291,0.77313232421875,0.494140625,-0.39739990234375,-0.0086669921875,4056,5386,1372,12,6,-111
216956278,0.77252197265625,0.50115966796875,-0.38946533203125,-0.018798828125,3729,5683,1353,12,6,-115
216966262,0.771728515625,0.50830078125,-0.38092041015625,-0.02947998046875,3431,5900,1327,12,7,-122
216976243,0.770751953125,0.515625,-0.3719482421875,-0.0406494140625,3206,6009,1307,12,8,-128
216986224,0.76953125,0.52288818359375,-0.36279296875,-0.05194091796875,3016,6074,1267,12,7,-128
216996214,0.76812744140625,0.52984619140625,-0.3538818359375,-0.06280517578125,2839,6147,1255,13,8,-123
217006197,0.76666259765625,0.53631591796875,-0.34521484375,-0.07305908203125,2572,6316,1260,12,8,-116
217016176,0.76507568359375,0.5426025390625,-0.3365478515625,-0.083251953125,2155,6531,1228,11,7,-114
217026150,0.76318359375,0.54888916015625,-0.32763671875,-0.09393310546875,1792,6740,1219,10,6,-118
217036134,0.7611083984375,0.55511474609375,-0.3184814453125,-0.10516357421875,1525,6826,1232,10,4,-124
217046116,0.75872802734375,0.56134033203125,-0.30902099609375,-0.116943359375,1376,6834,1249,10,2,-130
217056099,0.7559814453125,0.56756591796875,-0.2994384765625,-0.12908935546875,1242,6845,1226,10,1,-134
217066085,0.75299072265625,0.57366943359375,-0.2896728515625,-0.14141845703125,1035,6957,1233,11,1,-136
217076063,0.7496337890625,0.57977294921875,-0.27947998046875,-0.15411376953125,647,7236,1216,11,0,-139
217086047,0.745849609375,0.5859375,-0.268798828125,-0.16741943359375,225,7520,1205,10,-1,-143
217096030,0.74176025390625,0.592041015625,-0.25787353515625,-0.18096923828125,-98,7714,1182,10,-1,-145
217106014,0.73748779296875,0.59771728515625,-0.2470703125,-0.19427490234375,-269,7778,1165,10,-1,-143
217115990,0.73321533203125,0.6029052734375,-0.2369384765625,-0.20684814453125,-297,7730,1163,10,-2,-135
217125972,0.72906494140625,0.607421875,-0.22772216796875,-0.2181396484375,-333,7682,1136,9,-2,-123
217135956,0.7249755859375,0.61163330078125,-0.2191162109375,-0.22857666015625,-502,7727,1102,9,-2,-114
217145937,0.7208251953125,0.61566162109375,-0.2105712890625,-0.2386474609375,-827,7837,1055,10,-1,-113
217155918,0.71624755859375,0.619873046875,-0.2015380859375,-0.24920654296875,-1238,7995,1015,10,-1,-119
217165901,0.71112060546875,0.624267578125,-0.1915283203125,-0.2606201171875,-1618,8117,965,11,-1,-130
217175883,0.70538330078125,0.62872314453125,-0.18084716796875,-0.27276611328125,-1854,8155,929,11,-1,-139
217185865,0.699462890625,0.6329345703125,-0.1700439453125,-0.28497314453125,-1955,8072,880,11,-2,-140
217195847,0.693603515625,0.63671875,-0.15972900390625,-0.29656982421875,-2012,7934,863,11,-1,-133
217205830,0.68792724609375,0.64013671875,-0.150146484375,-0.30718994140625,-2159,7822,836,10,-2,-123
217215810,0.68231201171875,0.64337158203125,-0.14111328125,-0.317138671875,-2466,7804,801,11,-1,-116
217225801,0.6763916015625,0.6466064453125,-0.1319580078125,-0.3270263671875,-2833,7815,773,13,-1,-118
217235784,0.6697998046875,0.64996337890625,-0.12213134765625,-0.33746337890625,-3135,7812,749,15,-1,-127
217245759,0.66259765625,0.6534423828125,-0.11181640625,-0.348388671875,-3306,7744,715,17,-1,-135
217255741,0.6551513671875,0.65679931640625,-0.1015625,-0.35919189453125,-3323,7609,680,17,-1,-133
217265729,0.64794921875,0.65985107421875,-0.09210205078125,-0.3690185546875,-3347,7499,669,18,0,-123
217275709,0.64117431640625,0.66265869140625,-0.08343505859375,-0.37786865234375,-3530,7500,664,17,1,-112
217285689,0.634521484375,0.665283203125,-0.07513427734375,-0.38604736328125,-3830,7569,667,17,2,-107
217295671,0.62774658203125,0.66796875,-0.06671142578125,-0.39404296875,-4123,7576,647,18,3,-108
217305655,0.62066650390625,0.67059326171875,-0.05816650390625,-0.40203857421875,-4287,7503,609,19,4,-109
217315637,0.613525390625,0.67315673828125,-0.04962158203125,-0.4097900390625,-4362,7371,578,19,5,-109
217325618,0.60638427734375,0.6756591796875,-0.041259765625,-0.417236328125,-4416,7247,539,19,5,-106
217335602,0.59930419921875,0.67791748046875,-0.0330810546875,-0.42437744140625,-4599,7170,523,19,5,-105
217345583,0.59197998046875,0.68011474609375,-0.0245361328125,-0.43170166015625,-4976,7210,505,18,6,-108
217355564,0.58416748046875,0.68212890625,-0.015380859375,-0.43951416015625,-5424,7283,496,18,5,-116
217365549,0.57562255859375,0.68402099609375,-0.00531005859375,-0.447998046875,-5844,7294,470,18,5,-127
217375530,0.5665283203125,0.68572998046875,0.0052490234375,-0.45697021484375,-6143,7233,437,19,4,-133
217385513,0.5570068359375,0.687255859375,0.015869140625,-0.4659423828125,-6298,7106,393,20,3,-135
217395495,0.547607421875,0.6885986328125,0.02618408203125,-0.47467041015625,-6350,6928,374,20,3,-131
217405474,0.5384521484375,0.689697265625,0.03570556640625,-0.4827880859375,-6377,6767,371,20,2,-124
217415465,0.5296630859375,0.69061279296875,0.044677734375,-0.4903564453125,-6510,6648,378,20,2,-117
217425448,0.52105712890625,0.69140625,0.05328369140625,-0.49755859375,-6783,6599,387,20,2,-114
217435429,0.51214599609375,0.6920166015625,0.06207275390625,-0.5048828125,-7091,6559,366,20,2,-118
217445407,0.50274658203125,0.69244384765625,0.0712890625,-0.512451171875,-7334,6454,342,20,1,-124
217455389,0.49285888671875,0.692626953125,0.08087158203125,-0.5203857421875,-7497,6278,332,21,0,-129
217465370,0.4827880859375,0.69256591796875,0.0904541015625,-0.52825927734375,-7580,6049,322,21,0,-130
217475354,0.4727783203125,0.69219970703125,0.09979248046875,-0.5360107421875,-7680,5809,316,21,-2,-126
217485334,0.46295166015625,0.69171142578125,0.108642578125,-0.54345703125,-7841,5605,282,21,-3,-122
217495317,0.45330810546875,0.69110107421875,0.11712646484375,-0.55059814453125,-8045,5452,259,21,-4,-119
217505299,0.443603515625,0.690185546875,0.12548828125,-0.5577392578125,-8294,5321,247,21,-4,-120
217515278,0.43359375,0.68914794921875,0.13397216796875,-0.56488037109375,-8486,5166,237,21,-4,-123
217525269,0.42340087890625,0.68780517578125,0.14263916015625,-0.57208251953125,-8577,4967,227,21,-6,-125
217535253,0.41302490234375,0.686279296875,0.15130615234375,-0.5792236328125,-8638,4749,218,21,-5,-126
217545240,0.402587890625,0.6845703125,0.1600341796875,-0.58624267578125,-8747,4522,199,20,-6,-127
217555221,0.39215087890625,0.6826171875,0.168701171875,-0.59307861328125,-8919,4325,189,19,-5,-126
217565208,0.38177490234375,0.68060302734375,0.17724609375,-0.599609375,-9083,4147,166,19,-5,-124
217575180,0.37152099609375,0.67852783203125,0.185546875,-0.60589599609375,-9215,3979,142,18,-4,-121
217585157,0.361572265625,0.67645263671875,0.19354248046875,-0.6116943359375,-9308,3824,123,18,-4,-117
217595140,0.35198974609375,0.6744384765625,0.20111083984375,-0.6170654296875,-9328,3687,102,17,-3,-112
217605122,0.34295654296875,0.6724853515625,0.2081298828125,-0.6219482421875,-9308,3561,98,16,-2,-106
217615103,0.33447265625,0.6705322265625,0.2147216796875,-0.62640380859375,-9316,3413,120,15,-1,-99
217625085,0.32659912109375,0.668701171875,0.220947265625,-0.63037109375,-9359,3260,141,12,-1,-93
217635072,0.31927490234375,0.66693115234375,0.22674560546875,-0.63385009765625,-9396,3102,175,11,1,-86
217645054,0.31256103515625,0.66522216796875,0.23223876953125,-0.63702392578125,-9380,2964,208,9,2,-81
217655034,0.306396484375,0.6636962890625,0.2374267578125,-0.6397705078125,-9369,2812,210,7,2,-75
217665024,0.30059814453125,0.6622314453125,0.24237060546875,-0.64208984375,-9311,2693,187,6,4,-72
217675000,0.29510498046875,0.660888671875,0.24725341796875,-0.6441650390625,-9230,2576,164,4,5,-69
217684982,0.28985595703125,0.6595458984375,0.25213623046875,-0.64605712890625,-9157,2478,151,3,5,-68
217694964,0.28472900390625,0.658203125,0.257080078125,-0.64776611328125,-9089,2377,149,1,6,-68
217704946,0.27972412109375,0.6568603515625,0.26202392578125,-0.64935302734375,-9008,2263,150,0,7,-67
217714928,0.27484130859375,0.65545654296875,0.26702880859375,-0.6507568359375,-8942,2146,169,-1,7,-66
217724906,0.27020263671875,0.6539306640625,0.27203369140625,-0.65216064453125,-8889,2019,194,-3,7,-65
217734890,0.2657470703125,0.6524658203125,0.27703857421875,-0.65338134765625,-8843,1888,211,-4,7,-63
217744871,0.26153564453125,0.65093994140625,0.28192138671875,-0.654541015625,-8834,1745,220,-5,7,-61
217754853,0.25750732421875,0.64935302734375,0.2867431640625,-0.655517578125,-8823,1609,221,-6,7,-60
217764836,0.25372314453125,0.64776611328125,0.29156494140625,-0.656494140625,-8813,1486,217,-8,6,-58
217774819,0.25006103515625,0.64605712890625,0.29638671875,-0.65740966796875,-8797,1361,207,-8,5,-58
217784806,0.24658203125,0.64434814453125,0.3011474609375,-0.65826416015625,-8788,1237,177,-9,5,-56
217794789,0.24334716796875,0.642578125,0.3057861328125,-0.65899658203125,-8791,1101,179,-10,4,-54
217804771,0.24041748046875,0.64093017578125,0.31024169921875,-0.65966796875,-8823,957,170,-11,4,-50
217814747,0.2376708984375,0.63922119140625,0.31451416015625,-0.66021728515625,-8904,816,143,-11,4,-48
217824729,0.2349853515625,0.6375732421875,0.31878662109375,-0.66082763671875,-8996,677,122,-11,4,-49
217834712,0.23199462890625,0.63580322265625,0.3231201171875,-0.66143798828125,-9038,547,104,-10,4,-51
217844694,0.2286376953125,0.6339111328125,0.32769775390625,-0.66217041015625,-9034,426,90,-9,4,-55
217854678,0.224853515625,0.6319580078125,0.33233642578125,-0.66302490234375,-8992,276,75,-7,5,-58
217864659,0.22064208984375,0.6300048828125,0.3370361328125,-0.6639404296875,-8939,119,67,-5,5,-59
217874640,0.2161865234375,0.628173828125,0.34149169921875,-0.66485595703125,-8847,-25,72,-2,7,-58
217884627,0.21173095703125,0.62664794921875,0.34539794921875,-0.6656494140625,-8761,-160,81,1,8,-54
217894606,0.20751953125,0.62548828125,0.3486328125,-0.6663818359375,-8692,-298,83,4,8,-47
217904589,0.20367431640625,0.62481689453125,0.35113525390625,-0.66693115234375,-8628,-389,77,7,10,-40
217914577,0.2001953125,0.6246337890625,0.35284423828125,-0.667236328125,-8539,-448,66,9,11,-32
217924554,0.1971435546875,0.62493896484375,0.3538818359375,-0.66729736328125,-8439,-514,53,11,13,-25
217934537,0.19439697265625,0.6256103515625,0.3543701171875,-0.667236328125,-8326,-563,22,12,14,-18
217944517,0.19207763671875,0.62677001953125,0.3543701171875,-0.6668701171875,-8251,-594,-38,13,15,-13
217954501,0.18994140625,0.628173828125,0.35400390625,-0.66632080078125,-8229,-656,-106,13,16,-8
217964483,0.188232421875,0.6298828125,0.35321044921875,-0.66558837890625,-8267,-715,-189,13,16,-3
217974470,0.1868896484375,0.63189697265625,0.35205078125,-0.6646728515625,-8334,-761,-285,14,17,2
217984448,0.18609619140625,0.63409423828125,0.3504638671875,-0.66363525390625,-8395,-811,-380,13,16,9
217994431,0.18585205078125,0.636474609375,0.34844970703125,-0.6624755859375,-8472,-839,-450,12,15,14
218004407,0.18609619140625,0.638916015625,0.3460693359375,-0.66131591796875,-8556,-882,-529,12,14,19
218014389,0.186767578125,0.64141845703125,0.34344482421875,-0.66009521484375,-8624,-894,-584,11,12,22
218024374,0.187744140625,0.64373779296875,0.34075927734375,-0.658935546875,-8664,-908,-633,9,10,24
218034357,0.1888427734375,0.6458740234375,0.338134765625,-0.6578369140625,-8672,-910,-680,8,8,23
218044339,0.18994140625,0.6478271484375,0.33575439453125,-0.6568603515625,-8682,-914,-728,7,7,21
218054327,0.19097900390625,0.6494140625,0.33367919921875,-0.65606689453125,-8683,-930,-772,6,5,18
218064305,0.19183349609375,0.65069580078125,0.33197021484375,-0.6553955078125,-8653,-953,-797,4,3,15
218074290,0.19256591796875,0.65167236328125,0.33062744140625,-0.6549072265625,-8598,-963,-811,3,2,11
218084276,0.19317626953125,0.65234375,0.32952880859375,-0.65460205078125,-8559,-963,-810,2,0,8
218094259,0.1937255859375,0.6527099609375,0.32879638671875,-0.6544189453125,-8497,-958,-807,1,-1,5
218104240,0.194091796875,0.65289306640625,0.328369140625,-0.6544189453125,-8454,-989,-791,0,-3,2
218114227,0.1944580078125,0.65277099609375,0.32818603515625,-0.65447998046875,-8404,-1006,-781,-1,-4,0
218124209,0.1947021484375,0.6524658203125,0.32818603515625,-0.6546630859375,-8385,-1024,-768,-2,-5,-2
218134180,0.1949462890625,0.65203857421875,0.32843017578125,-0.65496826171875,-8379,-1054,-768,-3,-6,-4
218144158,0.195068359375,0.65142822265625,0.328857421875,-0.65533447265625,-8364,-1088,-747,-3,-6,-6
218154139,0.1951904296875,0.650634765625,0.3294677734375,-0.65570068359375,-8329,-1114,-725,-4,-7,-7
218167030,0.19525146484375,0.64984130859375,0.33026123046875,-0.6561279296875,-8292,-1129,-714,-5,-7,-9
218174104,0.1953125,0.64892578125,0.33111572265625,-0.65655517578125,-8248,-1146,-691,-6,-7,-9
218184085,0.1954345703125,0.64801025390625,0.33203125,-0.656982421875,-8203,-1179,-660,-6,-7,-9
218194064,0.19561767578125,0.64703369140625,0.3330078125,-0.6573486328125,-8145,-1202,-651,-7,-7,-8
218204050,0.19586181640625,0.6461181640625,0.333984375,-0.65771484375,-8123,-1246,-616,-8,-7,-8
218214031,0.1961669921875,0.64520263671875,0.3349609375,-0.65802001953125,-8103,-1270,-589,-8,-6,-7
218224020,0.19659423828125,0.64434814453125,0.3359375,-0.65826416015625,-8073,-1282,-553,-9,-6,-7
218233995,0.19696044921875,0.64349365234375,0.33697509765625,-0.658447265625,-8050,-1274,-529,-9,-5,-7
218243979,0.1973876953125,0.64276123046875,0.3380126953125,-0.65850830078125,-8018,-1268,-503,-9,-4,-7
218253959,0.19781494140625,0.64202880859375,0.339111328125,-0.65850830078125,-7986,-1272,-473,-9,-3,-7
218263942,0.1981201171875,0.641357421875,0.34027099609375,-0.658447265625,-7969,-1272,-459,-10,-3,-8
218273926,0.19842529296875,0.6407470703125,0.34149169921875,-0.65838623046875,-7949,-1267,-435,-9,-2,-8
218283912,0.1986083984375,0.64019775390625,0.34271240234375,-0.658203125,-7945,-1267,-415,-9,-1,-9
218293892,0.19873046875,0.63970947265625,0.34393310546875,-0.657958984375,-7925,-1253,-397,-9,0,-8
218303875,0.19891357421875,0.63934326171875,0.3450927734375,-0.65765380859375,-7933,-1260,-372,-9,1,-7
218313855,0.1990966796875,0.63909912109375,0.34613037109375,-0.6573486328125,-7941,-1270,-347,-8,2,-6
218323836,0.19940185546875,0.638916015625,0.34698486328125,-0.65692138671875,-7949,-1272,-330,-7,2,-4
218333821,0.19976806640625,0.63897705078125,0.34759521484375,-0.656494140625,-7956,-1281,-314,-7,3,-1
218343803,0.2003173828125,0.63916015625,0.347900390625,-0.65594482421875,-7973,-1279,-294,-6,3,2
218353793,0.20098876953125,0.6395263671875,0.34796142578125,-0.6553955078125,-8010,-1280,-269,-5,4,4
218363775,0.20172119140625,0.639892578125,0.347900390625,-0.65478515625,-8043,-1300,-255,-5,4,5
218373752,0.20245361328125,0.640380859375,0.34765625,-0.65423583984375,-8094,-1318,-257,-4,4,6
218383732,0.203125,0.64093017578125,0.34735107421875,-0.6536865234375,-8143,-1327,-259,-3,4,6
218393716,0.20379638671875,0.64141845703125,0.34698486328125,-0.65313720703125,-8179,-1342,-274,-3,4,6
218403698,0.20440673828125,0.6419677734375,0.34661865234375,-0.65264892578125,-8204,-1345,-271,-2,3,6
218413680,0.20501708984375,0.6424560546875,0.34619140625,-0.65216064453125,-8218,-1365,-290,-2,3,7
218423662,0.20562744140625,0.64300537109375,0.345703125,-0.6517333984375,-8234,-1364,-316,-1,3,7
218433645,0.20623779296875,0.64349365234375,0.34521484375,-0.65130615234375,-8255,-1362,-342,-1,2,6
218443626,0.206787109375,0.6439208984375,0.34478759765625,-0.65093994140625,-8281,-1369,-386,-1,2,6
218453612,0.207275390625,0.644287109375,0.34442138671875,-0.650634765625,-8290,-1378,-425,-1,1,5
218463595,0.207763671875,0.64453125,0.34405517578125,-0.650390625,-8297,-1393,-438,-1,0,5
218473580,0.208251953125,0.64471435546875,0.34375,-0.65020751953125,-8328,-1411,-454,-1,-1,4
218483559,0.208740234375,0.64483642578125,0.3433837890625,-0.65008544921875,-8350,-1432,-464,-1,-1,5
218493538,0.20928955078125,0.64495849609375,0.343017578125,-0.6500244140625,-8355,-1451,-486,-2,-1,5
218503521,0.2099609375,0.64501953125,0.3426513671875,-0.64996337890625,-8355,-1442,-518,-2,-3,5
218513503,0.2105712890625,0.64508056640625,0.34222412109375,-0.64990234375,-8332,-1429,-557,-1,-3,5
218523484,0.211181640625,0.64508056640625,0.34185791015625,-0.64990234375,-8299,-1417,-584,-2,-4,4
218533472,0.21173095703125,0.64495849609375,0.341552734375,-0.64996337890625,-8252,-1417,-600,-1,-4,4
218543454,0.21234130859375,0.64483642578125,0.3411865234375,-0.65008544921875,-8196,-1402,-579,-2,-4,3
218553441,0.212890625,0.6446533203125,0.34088134765625,-0.6502685546875,-8149,-1392,-580,-1,-5,3
218563416,0.21337890625,0.64434814453125,0.3406982421875,-0.6505126953125,-8098,-1402,-571,-2,-5,2
218573398,0.21380615234375,0.64410400390625,0.34051513671875,-0.6507568359375,-8051,-1393,-574,-1,-5,1
218583385,0.21405029296875,0.64373779296875,0.3404541015625,-0.6510009765625,-8029,-1398,-567,-1,-5,0
218593365,0.21417236328125,0.64337158203125,0.34051513671875,-0.65130615234375,-8002,-1395,-566,-1,-5,-2
218603344,0.214111328125,0.6429443359375,0.3406982421875,-0.65167236328125,-7964,-1402,-576,-1,-5,-4
218613330,0.21392822265625,0.64251708984375,0.3409423828125,-0.65203857421875,-7941,-1401,-586,0,-4,-4
218623306,0.21368408203125,0.64208984375,0.3411865234375,-0.65240478515625,-7909,-1384,-588,0,-4,-5
218633293,0.21343994140625,0.64166259765625,0.34136962890625,-0.65277099609375,-7899,-1381,-580,0,-4,-5
218643272,0.213134765625,0.641357421875,0.341552734375,-0.65313720703125,-7881,-1389,-566,1,-3,-4
218653264,0.2127685546875,0.64105224609375,0.34173583984375,-0.6534423828125,-7860,-1386,-527,1,-3,-4
