subject,Joshua Spiesman
arm,left
label,0
hz,100.17193895823928
time,3.643735

timestamp_us,q0,q1,q2,q3,ax,ay,az,gx,gy,gz
8991528,0.6834716796875,0.41680908203125,-0.59735107421875,0.04766845703125,7526,3730,321,-19,-8,6
9001510,0.68408203125,0.41455078125,-0.5982666015625,0.046875,7677,3750,265,-18,-6,6
9011495,0.684814453125,0.4124755859375,-0.59893798828125,0.046142578125,7815,3783,165,-17,-4,3
9021479,0.68560791015625,0.410888671875,-0.59918212890625,0.04522705078125,7952,3846,57,-16,-1,-2
9031461,0.68658447265625,0.4097900390625,-0.59893798828125,0.0439453125,8022,3924,-54,-16,2,-7
9041448,0.687744140625,0.4091796875,-0.59808349609375,0.04241943359375,8034,4000,-137,-15,5,-13
9051432,0.68914794921875,0.40899658203125,-0.59674072265625,0.04052734375,7991,4078,-158,-15,8,-18
9061417,0.6907958984375,0.40911865234375,-0.59490966796875,0.03839111328125,7922,4125,-153,-15,10,-23
9071399,0.69256591796875,0.40966796875,-0.5926513671875,0.035888671875,7833,4181,-164,-15,12,-28
9081376,0.69439697265625,0.4105224609375,-0.59002685546875,0.032958984375,7765,4259,-187,-15,13,-34
9091359,0.6962890625,0.4119873046875,-0.58697509765625,0.02947998046875,7684,4353,-237,-15,14,-41
9101343,0.69818115234375,0.41400146484375,-0.58349609375,0.0252685546875,7577,4452,-283,-15,14,-49
9111326,0.7000732421875,0.4166259765625,-0.57958984375,0.02032470703125,7451,4536,-314,-15,14,-57
9121308,0.701904296875,0.4197998046875,-0.5751953125,0.0146484375,7318,4610,-319,-15,14,-66
9131292,0.70361328125,0.42352294921875,-0.57049560546875,0.00836181640625,7189,4666,-300,-14,13,-72
9141273,0.7052001953125,0.42767333984375,-0.5654296875,0.001708984375,7057,4736,-286,-13,13,-78
9151257,0.70660400390625,0.43218994140625,-0.5601806640625,-0.00518798828125,6937,4796,-293,-11,13,-81
9161238,0.70782470703125,0.43701171875,-0.5548095703125,-0.01220703125,6834,4857,-320,-9,12,-84
9171231,0.708740234375,0.44207763671875,-0.54937744140625,-0.01910400390625,6713,4921,-352,-7,13,-84
9181214,0.70953369140625,0.447265625,-0.54388427734375,-0.02581787109375,6569,4988,-358,-5,13,-83
9191195,0.710205078125,0.452392578125,-0.5384521484375,-0.03216552734375,6396,5049,-332,-3,13,-80
9201185,0.710693359375,0.4573974609375,-0.5330810546875,-0.03814697265625,6214,5127,-301,-1,13,-77
9211174,0.7110595703125,0.46234130859375,-0.52789306640625,-0.04364013671875,6045,5188,-288,1,13,-73
9221155,0.7113037109375,0.4671630859375,-0.5228271484375,-0.0487060546875,5884,5245,-293,2,13,-70
9231125,0.71142578125,0.471923828125,-0.5179443359375,-0.05340576171875,5732,5279,-323,4,14,-67
9241108,0.71136474609375,0.47662353515625,-0.51318359375,-0.0577392578125,5578,5302,-355,5,14,-64
9251090,0.71124267578125,0.4813232421875,-0.50860595703125,-0.061767578125,5443,5303,-415,7,14,-62
9261072,0.71087646484375,0.4859619140625,-0.50408935546875,-0.06549072265625,5314,5308,-492,8,14,-60
9271056,0.71038818359375,0.49072265625,-0.499755859375,-0.0689697265625,5191,5305,-587,10,14,-59
9281039,0.709716796875,0.49560546875,-0.4954833984375,-0.0721435546875,5054,5296,-696,13,14,-58
9291022,0.70880126953125,0.5006103515625,-0.4912109375,-0.07525634765625,4912,5257,-784,14,14,-58
9301005,0.70770263671875,0.505859375,-0.4869384765625,-0.07830810546875,4765,5234,-868,17,13,-59
9310993,0.70635986328125,0.5113525390625,-0.482666015625,-0.08135986328125,4604,5215,-955,19,12,-60
9320977,0.70477294921875,0.51702880859375,-0.4783935546875,-0.0843505859375,4459,5200,-1047,21,12,-60
9330951,0.70294189453125,0.52276611328125,-0.47430419921875,-0.08721923828125,4337,5201,-1120,23,11,-59
9340934,0.700927734375,0.52850341796875,-0.47039794921875,-0.0897216796875,4210,5199,-1180,25,10,-56
9350917,0.69873046875,0.5341796875,-0.466796875,-0.09197998046875,4075,5187,-1245,26,9,-52
9360900,0.6962890625,0.539794921875,-0.46368408203125,-0.0938720703125,3938,5164,-1301,29,7,-48
9370883,0.693603515625,0.5452880859375,-0.4609375,-0.095458984375,3802,5153,-1358,31,5,-44
9380865,0.690673828125,0.55072021484375,-0.45855712890625,-0.0968017578125,3626,5142,-1378,32,2,-41
9390848,0.6875,0.55609130859375,-0.45654296875,-0.09808349609375,3450,5138,-1380,34,-1,-39
9400827,0.68402099609375,0.56134033203125,-0.455078125,-0.09930419921875,3277,5168,-1377,36,-5,-35
9410811,0.68023681640625,0.56640625,-0.4542236328125,-0.100341796875,3160,5198,-1352,38,-10,-30
9420793,0.6761474609375,0.5711669921875,-0.45428466796875,-0.10107421875,3091,5246,-1305,40,-15,-22
9430773,0.6717529296875,0.575439453125,-0.45538330078125,-0.1011962890625,3093,5312,-1243,42,-20,-13
9440769,0.6671142578125,0.57916259765625,-0.45751953125,-0.10064697265625,3195,5425,-1190,45,-24,-3
9450753,0.66229248046875,0.58258056640625,-0.46051025390625,-0.09942626953125,3343,5562,-1123,47,-27,5
9460736,0.65728759765625,0.58563232421875,-0.464111328125,-0.09771728515625,3560,5722,-1054,50,-29,10
9470714,0.652099609375,0.58868408203125,-0.46807861328125,-0.0955810546875,3818,5916,-976,53,-29,13
9480695,0.6468505859375,0.5916748046875,-0.4720458984375,-0.0931396484375,4115,6126,-881,56,-29,13
9490678,0.64154052734375,0.5948486328125,-0.475830078125,-0.09033203125,4436,6345,-777,59,-26,12
9500658,0.63629150390625,0.5982666015625,-0.4791259765625,-0.08734130859375,4727,6548,-661,61,-23,9
9510644,0.6309814453125,0.6021728515625,-0.48175048828125,-0.08416748046875,4965,6704,-581,65,-19,4
9520635,0.625732421875,0.60662841796875,-0.483642578125,-0.0809326171875,5160,6860,-537,67,-14,-1
9530607,0.62054443359375,0.6114501953125,-0.48480224609375,-0.0775146484375,5290,7035,-539,70,-9,-5
9540590,0.61541748046875,0.61663818359375,-0.48529052734375,-0.0738525390625,5383,7227,-566,72,-4,-7
9550577,0.6104736328125,0.62200927734375,-0.4852294921875,-0.06988525390625,5374,7421,-643,72,1,-8
9560556,0.605712890625,0.62750244140625,-0.4847412109375,-0.06573486328125,5341,7602,-761,72,5,-8
9570542,0.60113525390625,0.6329345703125,-0.48394775390625,-0.06134033203125,5306,7824,-927,71,9,-7
9580522,0.59686279296875,0.63824462890625,-0.48284912109375,-0.0567626953125,5278,8089,-1130,70,12,-6
9590505,0.59283447265625,0.6434326171875,-0.48138427734375,-0.05218505859375,5205,8314,-1336,67,16,-7
9600487,0.589111328125,0.6485595703125,-0.4796142578125,-0.04791259765625,5054,8484,-1528,63,17,-9
9610472,0.58563232421875,0.65362548828125,-0.47723388671875,-0.04412841796875,4914,8566,-1664,60,19,-14
9620454,0.58251953125,0.65869140625,-0.474365234375,-0.04083251953125,4775,8655,-1790,56,19,-19
9630438,0.5797119140625,0.66363525390625,-0.47113037109375,-0.03802490234375,4645,8748,-1929,51,20,-21
9640428,0.57720947265625,0.6683349609375,-0.4677734375,-0.03558349609375,4567,8835,-2110,46,20,-23
9650411,0.57501220703125,0.67266845703125,-0.46441650390625,-0.0333251953125,4492,8907,-2317,42,20,-21
9660392,0.57318115234375,0.67645263671875,-0.4613037109375,-0.03125,4410,8973,-2487,36,20,-18
9670368,0.57177734375,0.6796875,-0.45843505859375,-0.0291748046875,4301,9000,-2619,31,20,-14
9680350,0.5706787109375,0.68243408203125,-0.45587158203125,-0.02728271484375,4180,8993,-2711,26,19,-11
9690334,0.56988525390625,0.6846923828125,-0.45355224609375,-0.02557373046875,4074,8972,-2789,22,18,-9
9700318,0.5694580078125,0.6865234375,-0.451416015625,-0.02398681640625,3983,8955,-2860,18,17,-6
9710301,0.56927490234375,0.68798828125,-0.449462890625,-0.02264404296875,3923,8917,-2900,14,16,-6
9720283,0.5693359375,0.689208984375,-0.44757080078125,-0.02154541015625,3855,8873,-2952,10,15,-5
9730266,0.56964111328125,0.69012451171875,-0.44573974609375,-0.020751953125,3789,8800,-2985,6,14,-6
9740255,0.57012939453125,0.69097900390625,-0.44390869140625,-0.02032470703125,3718,8721,-3012,3,13,-7
9750236,0.57086181640625,0.69158935546875,-0.44207763671875,-0.02020263671875,3645,8671,-3008,0,12,-7
9760220,0.57171630859375,0.69189453125,-0.44036865234375,-0.02032470703125,3593,8652,-2981,-3,10,-6
9770196,0.57281494140625,0.69189453125,-0.43890380859375,-0.02069091796875,3562,8644,-2934,-6,8,-5
9780189,0.5740966796875,0.69158935546875,-0.437744140625,-0.02117919921875,3534,8641,-2897,-9,6,-3
9790173,0.575439453125,0.69110107421875,-0.43670654296875,-0.02203369140625,3492,8604,-2859,-11,5,-4
9800152,0.5767822265625,0.69061279296875,-0.4356689453125,-0.02325439453125,3408,8518,-2793,-13,2,-6
9810121,0.578125,0.690185546875,-0.4344482421875,-0.02508544921875,3299,8401,-2718,-15,0,-11
9820104,0.5794677734375,0.68994140625,-0.432861328125,-0.02764892578125,3171,8306,-2620,-16,-3,-16
9830086,0.58074951171875,0.68988037109375,-0.4310302734375,-0.03076171875,3070,8243,-2559,-17,-5,-21
9840068,0.5819091796875,0.68988037109375,-0.42919921875,-0.03448486328125,2995,8186,-2539,-18,-8,-24
9850050,0.582763671875,0.69012451171875,-0.42730712890625,-0.03857421875,2918,8088,-2568,-18,-11,-27
9860033,0.583251953125,0.69061279296875,-0.4254150390625,-0.04315185546875,2833,7931,-2613,-16,-15,-31
9870016,0.58331298828125,0.69140625,-0.42352294921875,-0.048095703125,2732,7764,-2672,-14,-18,-34
9880000,0.5828857421875,0.6923828125,-0.421875,-0.05328369140625,2659,7625,-2784,-12,-23,-34
9889987,0.581787109375,0.69354248046875,-0.4207763671875,-0.05853271484375,2571,7466,-2915,-9,-27,-32
9899964,0.58013916015625,0.69482421875,-0.420166015625,-0.06378173828125,2430,7277,-3007,-5,-31,-30
9909951,0.57781982421875,0.6962890625,-0.42010498046875,-0.06915283203125,2235,7059,-3094,0,-37,-29
9919933,0.57470703125,0.69805908203125,-0.42047119140625,-0.07464599609375,2067,6839,-3193,5,-42,-28
9929916,0.57086181640625,0.7000732421875,-0.42132568359375,-0.0802001953125,1956,6668,-3288,10,-46,-27
9939900,0.56640625,0.70220947265625,-0.4227294921875,-0.0858154296875,1899,6535,-3394,14,-51,-25
9949882,0.561279296875,0.7044677734375,-0.42462158203125,-0.09130859375,1908,6474,-3550,19,-56,-23
9959866,0.55560302734375,0.70672607421875,-0.42718505859375,-0.09661865234375,2012,6511,-3763,22,-59,-20
9969848,0.54949951171875,0.70892333984375,-0.43023681640625,-0.10162353515625,2145,6593,-4067,25,-61,-16
9979830,0.54302978515625,0.7110595703125,-0.43377685546875,-0.1063232421875,2289,6697,-4370,27,-63,-14
9989813,0.536376953125,0.71307373046875,-0.4376220703125,-0.11083984375,2397,6781,-4649,28,-64,-11
9999799,0.529541015625,0.715087890625,-0.44146728515625,-0.115234375,2463,6838,-4860,28,-63,-11
10009784,0.52276611328125,0.71710205078125,-0.44512939453125,-0.11968994140625,2501,6841,-4992,29,-63,-13
10019767,0.51611328125,0.7191162109375,-0.4483642578125,-0.12420654296875,2506,6816,-5020,27,-62,-16
10029758,0.509765625,0.72113037109375,-0.451171875,-0.12884521484375,2492,6768,-4973,26,-59,-19
10039743,0.503662109375,0.7230224609375,-0.4534912109375,-0.133544921875,2449,6705,-4885,24,-57,-21
10049719,0.4981689453125,0.72467041015625,-0.45556640625,-0.1380615234375,2448,6688,-4733,21,-54,-20
10059701,0.49334716796875,0.725830078125,-0.45770263671875,-0.14227294921875,2469,6718,-4604,17,-50,-15
10069682,0.4892578125,0.72637939453125,-0.46002197265625,-0.14599609375,2519,6781,-4503,12,-46,-9
10079665,0.48614501953125,0.72625732421875,-0.4625244140625,-0.14910888671875,2573,6839,-4403,7,-41,-2
10089646,0.48406982421875,0.72540283203125,-0.46527099609375,-0.151611328125,2644,6893,-4269,1,-36,6
10099624,0.48309326171875,0.7237548828125,-0.46820068359375,-0.15350341796875,2714,6965,-4107,-6,-30,13
10109606,0.4833984375,0.72125244140625,-0.47125244140625,-0.15484619140625,2802,7052,-3923,-13,-23,21
10119588,0.48492431640625,0.718017578125,-0.47442626953125,-0.15545654296875,2881,7097,-3789,-20,-16,29
10129571,0.48748779296875,0.7139892578125,-0.47796630859375,-0.1552734375,2910,7082,-3686,-26,-10,39
10139555,0.49090576171875,0.70904541015625,-0.4820556640625,-0.154296875,2902,7000,-3588,-30,-5,51
10149542,0.4949951171875,0.7032470703125,-0.48699951171875,-0.15240478515625,2844,6838,-3453,-32,-2,64
10159524,0.49932861328125,0.69671630859375,-0.49273681640625,-0.149658203125,2770,6644,-3284,-32,0,76
10169502,0.50372314453125,0.6895751953125,-0.49932861328125,-0.1461181640625,2727,6453,-3112,-30,0,87
10179490,0.50787353515625,0.6820068359375,-0.5067138671875,-0.14190673828125,2698,6284,-2959,-26,-1,95
10189467,0.51141357421875,0.67437744140625,-0.5146484375,-0.13720703125,2708,6163,-2850,-20,-4,99
10199455,0.51416015625,0.6668701171875,-0.5228271484375,-0.13238525390625,2756,6121,-2780,-14,-7,99
10209436,0.51611328125,0.65985107421875,-0.5308837890625,-0.127685546875,2870,6163,-2768,-9,-11,93
10219428,0.5172119140625,0.6536865234375,-0.53839111328125,-0.1236572265625,3024,6264,-2779,-4,-14,81
10229410,0.5177001953125,0.64849853515625,-0.54486083984375,-0.12060546875,3237,6436,-2824,-2,-17,66
10239393,0.5177001953125,0.6444091796875,-0.55010986328125,-0.11871337890625,3479,6645,-2909,-2,-20,48
10249369,0.517333984375,0.641357421875,-0.55413818359375,-0.11798095703125,3735,6849,-3032,-2,-21,32
10259351,0.516845703125,0.63909912109375,-0.55712890625,-0.118408203125,3979,7041,-3159,-5,-22,19
10269334,0.51641845703125,0.6373291015625,-0.55926513671875,-0.1195068359375,4185,7167,-3294,-8,-21,10
10279316,0.51629638671875,0.63568115234375,-0.5609130859375,-0.12115478515625,4365,7226,-3400,-12,-20,5
10289299,0.5164794921875,0.6339111328125,-0.56231689453125,-0.12286376953125,4514,7226,-3520,-16,-18,5
10299282,0.51708984375,0.6318359375,-0.5638427734375,-0.1243896484375,4638,7162,-3653,-19,-15,9
10309265,0.5181884765625,0.62921142578125,-0.56549072265625,-0.12548828125,4748,7053,-3792,-22,-12,14
10319244,0.5196533203125,0.62615966796875,-0.5673828125,-0.12603759765625,4844,6919,-3917,-24,-8,19
10329235,0.52154541015625,0.62286376953125,-0.5693359375,-0.1260986328125,4857,6735,-4015,-25,-4,23
10339222,0.52362060546875,0.6195068359375,-0.57110595703125,-0.12579345703125,4834,6505,-4072,-26,0,23
10349205,0.52593994140625,0.6163330078125,-0.57257080078125,-0.125244140625,4781,6245,-4108,-25,4,21
10359190,0.52813720703125,0.613525390625,-0.57366943359375,-0.12451171875,4690,5964,-4109,-23,7,18
10369173,0.53033447265625,0.6112060546875,-0.5743408203125,-0.12359619140625,4577,5685,-4094,-21,10,15
10379156,0.5323486328125,0.60919189453125,-0.57489013671875,-0.12249755859375,4453,5408,-4055,-17,11,13
10389126,0.5340576171875,0.6075439453125,-0.5753173828125,-0.12103271484375,4334,5148,-3999,-13,12,14
10399109,0.53558349609375,0.60595703125,-0.57598876953125,-0.11907958984375,4217,4931,-3931,-8,13,17
10409093,0.53680419921875,0.60430908203125,-0.57708740234375,-0.11651611328125,4144,4799,-3874,-4,12,24
10419078,0.5377197265625,0.6024169921875,-0.57891845703125,-0.11309814453125,4115,4770,-3868,1,12,32
10429061,0.5384521484375,0.60009765625,-0.5814208984375,-0.10882568359375,4074,4765,-3844,5,12,41
10439050,0.53900146484375,0.59747314453125,-0.58453369140625,-0.10400390625,4025,4767,-3780,8,10,48
10449027,0.539306640625,0.5947265625,-0.587890625,-0.098876953125,3981,4797,-3688,12,9,51
10459011,0.539306640625,0.59210205078125,-0.5914306640625,-0.0936279296875,3994,4855,-3574,14,8,50
10468995,0.53924560546875,0.589599609375,-0.59478759765625,-0.088623046875,4068,4963,-3442,15,6,48
10478980,0.53900146484375,0.58734130859375,-0.59783935546875,-0.0838623046875,4190,5119,-3343,16,5,44
10488958,0.5386962890625,0.58526611328125,-0.6007080078125,-0.07952880859375,4349,5286,-3267,15,4,40
10498940,0.5384521484375,0.58343505859375,-0.603271484375,-0.07562255859375,4522,5469,-3214,14,3,36
10508923,0.5382080078125,0.5816650390625,-0.60565185546875,-0.072021484375,4704,5646,-3174,13,3,34
10518906,0.5380859375,0.58001708984375,-0.60772705078125,-0.0687255859375,4873,5812,-3129,12,2,31
10528889,0.5379638671875,0.5784912109375,-0.60955810546875,-0.0657958984375,5011,5936,-3068,11,2,27
10538871,0.537841796875,0.57733154296875,-0.61102294921875,-0.0633544921875,5125,6014,-2973,10,1,21
10548854,0.5377197265625,0.57647705078125,-0.61212158203125,-0.0614013671875,5227,6052,-2860,10,-1,15
10558836,0.537353515625,0.5760498046875,-0.613037109375,-0.05987548828125,5321,6089,-2760,10,-3,11
10568817,0.536865234375,0.5758056640625,-0.61383056640625,-0.05865478515625,5448,6139,-2707,11,-4,9
10578800,0.53619384765625,0.5755615234375,-0.61474609375,-0.057373046875,5615,6168,-2683,12,-6,9
10588784,0.53546142578125,0.57537841796875,-0.61566162109375,-0.0560302734375,5754,6212,-2699,12,-6,8
10598772,0.5347900390625,0.57525634765625,-0.61651611328125,-0.0546875,5898,6251,-2743,12,-5,8
10608754,0.53424072265625,0.5751953125,-0.6171875,-0.05328369140625,6020,6260,-2764,12,-3,6
10618743,0.53387451171875,0.5751953125,-0.6175537109375,-0.05181884765625,6112,6240,-2783,11,0,5
10628717,0.5338134765625,0.57537841796875,-0.61761474609375,-0.05035400390625,6170,6200,-2844,10,3,2
10638696,0.53399658203125,0.57568359375,-0.61724853515625,-0.0489501953125,6206,6156,-2907,9,6,0
10648679,0.534423828125,0.57611083984375,-0.61663818359375,-0.04742431640625,6211,6087,-2975,8,10,-2
10658659,0.53515625,0.5765380859375,-0.61572265625,-0.0457763671875,6169,6022,-3067,7,13,-2
10668643,0.53607177734375,0.57696533203125,-0.6146240234375,-0.0439453125,6112,5940,-3161,6,17,-1
10678629,0.53729248046875,0.57720947265625,-0.613525390625,-0.0418701171875,6006,5846,-3238,5,19,1
10688609,0.5386962890625,0.57733154296875,-0.6123046875,-0.03961181640625,5873,5748,-3288,4,22,2
10698591,0.5401611328125,0.577392578125,-0.611083984375,-0.0372314453125,5691,5621,-3331,4,24,4
10708576,0.541748046875,0.577392578125,-0.60980224609375,-0.03472900390625,5519,5497,-3367,4,25,5
10718560,0.543212890625,0.57745361328125,-0.608642578125,-0.03216552734375,5349,5386,-3419,4,25,5
10728545,0.5445556640625,0.5775146484375,-0.60748291015625,-0.0296630859375,5188,5286,-3451,5,24,5
10738527,0.54571533203125,0.57763671875,-0.60638427734375,-0.0272216796875,5074,5223,-3502,6,23,5
10748509,0.54669189453125,0.5780029296875,-0.6053466796875,-0.02484130859375,5011,5177,-3542,7,22,3
10758488,0.5474853515625,0.5784912109375,-0.60418701171875,-0.02264404296875,4965,5161,-3555,8,20,1
10768473,0.548095703125,0.579345703125,-0.60284423828125,-0.020751953125,4931,5148,-3534,8,19,-3
10778454,0.54864501953125,0.58062744140625,-0.60125732421875,-0.01922607421875,4909,5135,-3484,9,17,-8
10788434,0.549072265625,0.58221435546875,-0.599365234375,-0.01806640625,4889,5138,-3430,10,17,-13
10798426,0.54937744140625,0.58404541015625,-0.59722900390625,-0.0172119140625,4905,5149,-3384,10,15,-16
10808408,0.5496826171875,0.58612060546875,-0.594970703125,-0.0166015625,4936,5178,-3324,10,14,-19
10818391,0.5499267578125,0.5882568359375,-0.59259033203125,-0.01617431640625,4963,5206,-3273,9,14,-21
10828369,0.5501708984375,0.59039306640625,-0.59033203125,-0.015869140625,5007,5232,-3216,9,13,-20
10838351,0.55047607421875,0.59222412109375,-0.58819580078125,-0.01544189453125,5065,5265,-3158,8,12,-17
10848335,0.55078125,0.59375,-0.58636474609375,-0.0147705078125,5100,5275,-3105,8,12,-13
10858315,0.55120849609375,0.59490966796875,-0.5848388671875,-0.013916015625,5151,5277,-3046,7,12,-10
10868298,0.55157470703125,0.59576416015625,-0.5836181640625,-0.01287841796875,5180,5276,-3020,7,11,-6
10878282,0.55194091796875,0.5965576171875,-0.58245849609375,-0.01165771484375,5176,5260,-2995,7,12,-5
10888264,0.55230712890625,0.59735107421875,-0.58135986328125,-0.01043701171875,5163,5235,-2958,7,11,-5
10898244,0.5526123046875,0.59814453125,-0.58026123046875,-0.00927734375,5123,5207,-2930,8,11,-6
10908235,0.5528564453125,0.59918212890625,-0.57904052734375,-0.0081787109375,5096,5178,-2911,9,11,-7
10918221,0.55291748046875,0.60028076171875,-0.5777587890625,-0.0072021484375,5076,5157,-2911,9,10,-8
10928205,0.55291748046875,0.6015625,-0.57647705078125,-0.0062255859375,5066,5138,-2931,10,9,-10
10938194,0.552734375,0.60296630859375,-0.5751953125,-0.00537109375,5042,5131,-2969,11,9,-10
10948176,0.55242919921875,0.6044921875,-0.57391357421875,-0.0045166015625,5038,5127,-2995,12,8,-11
10958160,0.552001953125,0.6060791015625,-0.5726318359375,-0.0037841796875,5042,5133,-3017,12,7,-12
10968130,0.551513671875,0.6077880859375,-0.5712890625,-0.00311279296875,5048,5134,-3017,13,6,-13
10978115,0.55096435546875,0.60955810546875,-0.5699462890625,-0.0025634765625,5044,5142,-3019,13,5,-14
10988098,0.55029296875,0.6114501953125,-0.56854248046875,-0.00201416015625,5059,5138,-3019,14,5,-15
10998081,0.54962158203125,0.6134033203125,-0.567138671875,-0.00146484375,5076,5144,-3010,15,4,-16
11008065,0.548828125,0.61541748046875,-0.56573486328125,-0.00091552734375,5094,5139,-3001,15,4,-16
11018050,0.54803466796875,0.61749267578125,-0.56427001953125,-0.0003662109375,5128,5153,-3004,16,5,-16
11028029,0.54718017578125,0.61956787109375,-0.562744140625,0.000244140625,5166,5167,-3005,17,4,-17
11038012,0.5462646484375,0.621826171875,-0.5611572265625,0.0008544921875,5214,5195,-3006,17,5,-18
11047995,0.54534912109375,0.62420654296875,-0.55938720703125,0.00140380859375,5235,5206,-3001,18,5,-20
11057984,0.54443359375,0.62677001953125,-0.55743408203125,0.001953125,5265,5249,-2978,19,6,-22
11067961,0.54351806640625,0.62945556640625,-0.55523681640625,0.00250244140625,5280,5284,-2954,20,6,-24
11077943,0.54266357421875,0.63226318359375,-0.55291748046875,0.0030517578125,5316,5317,-2927,20,7,-24
11087927,0.541748046875,0.63507080078125,-0.55059814453125,0.00372314453125,5341,5335,-2898,21,8,-23
11097909,0.5408935546875,0.63775634765625,-0.54833984375,0.00469970703125,5367,5368,-2863,22,9,-21
11107891,0.54010009765625,0.64019775390625,-0.54620361328125,0.006103515625,5391,5403,-2839,23,10,-18
11117877,0.539306640625,0.64251708984375,-0.544189453125,0.00775146484375,5413,5442,-2824,23,12,-15
11127856,0.53857421875,0.644775390625,-0.54229736328125,0.009765625,5403,5492,-2826,24,13,-13
11137841,0.537841796875,0.64691162109375,-0.5404052734375,0.01190185546875,5391,5576,-2817,25,14,-12
11147824,0.53717041015625,0.64910888671875,-0.5384521484375,0.01409912109375,5356,5665,-2814,25,15,-11
11157805,0.53656005859375,0.65130615234375,-0.5362548828125,0.01629638671875,5324,5745,-2825,25,16,-13
11167790,0.5360107421875,0.6536865234375,-0.5338134765625,0.018310546875,5273,5808,-2834,24,16,-15
11177769,0.5355224609375,0.65625,-0.5311279296875,0.0201416015625,5224,5864,-2844,24,17,-19
11187761,0.53515625,0.658935546875,-0.52813720703125,0.021728515625,5173,5895,-2850,23,17,-22
11197746,0.53485107421875,0.6617431640625,-0.52484130859375,0.02313232421875,5131,5905,-2851,23,18,-24
11207723,0.5345458984375,0.66461181640625,-0.52142333984375,0.02435302734375,5081,5894,-2848,22,18,-26
11217706,0.5343017578125,0.6676025390625,-0.51788330078125,0.0255126953125,5050,5886,-2836,22,18,-27
11227688,0.5340576171875,0.6705322265625,-0.51422119140625,0.026611328125,5022,5872,-2828,21,18,-28
11237670,0.53387451171875,0.67340087890625,-0.51055908203125,0.02777099609375,4994,5887,-2815,21,19,-27
11247654,0.53375244140625,0.67626953125,-0.50689697265625,0.02899169921875,4964,5904,-2803,21,19,-27
11257638,0.5335693359375,0.67901611328125,-0.5032958984375,0.0302734375,4931,5948,-2814,22,19,-26
11267619,0.53326416015625,0.6817626953125,-0.499755859375,0.0316162109375,4919,6008,-2839,22,19,-25
11277603,0.53289794921875,0.6844482421875,-0.49639892578125,0.03302001953125,4911,6079,-2902,22,18,-23
11287585,0.53240966796875,0.68707275390625,-0.4931640625,0.03448486328125,4927,6138,-2977,23,18,-22
11297568,0.53167724609375,0.6898193359375,-0.489990234375,0.03594970703125,4934,6151,-3060,24,17,-22
11307551,0.53082275390625,0.692626953125,-0.48687744140625,0.03753662109375,4946,6145,-3168,26,17,-23
11317535,0.52960205078125,0.69561767578125,-0.4837646484375,0.03912353515625,4924,6128,-3322,28,16,-22
11327516,0.52813720703125,0.69873046875,-0.48077392578125,0.04083251953125,4904,6101,-3486,29,15,-22
11337501,0.5264892578125,0.701904296875,-0.47784423828125,0.0426025390625,4869,6116,-3621,31,15,-21
11347482,0.524658203125,0.705078125,-0.47491455078125,0.04437255859375,4854,6169,-3745,32,15,-21
11357465,0.5228271484375,0.708251953125,-0.4720458984375,0.04620361328125,4830,6226,-3867,32,15,-20
11367448,0.5211181640625,0.71142578125,-0.468994140625,0.04803466796875,4809,6303,-3958,31,16,-21
11377435,0.51953125,0.714599609375,-0.46575927734375,0.0496826171875,4772,6372,-4040,30,17,-23
11387418,0.51824951171875,0.7177734375,-0.462158203125,0.0511474609375,4702,6415,-4101,28,19,-26
11397402,0.51715087890625,0.72088623046875,-0.45831298828125,0.0523681640625,4597,6408,-4161,25,20,-29
11407379,0.51629638671875,0.7239990234375,-0.45428466796875,0.05340576171875,4469,6384,-4200,22,20,-29
11417363,0.5157470703125,0.726806640625,-0.4503173828125,0.05426025390625,4326,6335,-4222,19,20,-28
11427350,0.5152587890625,0.72930908203125,-0.4466552734375,0.0550537109375,4191,6254,-4234,16,19,-25
11437326,0.51495361328125,0.7314453125,-0.4434814453125,0.055908203125,4082,6184,-4249,13,18,-20
11447309,0.5146484375,0.73309326171875,-0.44097900390625,0.05682373046875,3972,6091,-4258,11,15,-14
11457292,0.5142822265625,0.73431396484375,-0.43914794921875,0.05780029296875,3863,5976,-4277,9,13,-8
11467272,0.513916015625,0.73516845703125,-0.43804931640625,0.05889892578125,3776,5855,-4306,8,11,-2
11477262,0.51336669921875,0.7357177734375,-0.4376220703125,0.06005859375,3712,5748,-4322,7,8,3
11487238,0.5126953125,0.73602294921875,-0.437744140625,0.06121826171875,3684,5700,-4331,7,5,8
11497231,0.51190185546875,0.736083984375,-0.43841552734375,0.06231689453125,3670,5708,-4349,6,2,11
11507209,0.510986328125,0.736083984375,-0.4393310546875,0.06329345703125,3679,5739,-4382,6,1,12
11517190,0.510009765625,0.73614501953125,-0.4403076171875,0.06396484375,3711,5802,-4413,6,-2,10
11527180,0.509033203125,0.736328125,-0.44097900390625,0.06427001953125,3741,5862,-4446,6,-3,6
11537163,0.508056640625,0.73681640625,-0.44140625,0.06396484375,3767,5937,-4443,5,-6,1
11547141,0.507080078125,0.73748779296875,-0.4415283203125,0.06317138671875,3773,6029,-4446,5,-8,-3
11557114,0.50616455078125,0.73834228515625,-0.44134521484375,0.06195068359375,3770,6163,-4422,4,-9,-7
11567097,0.50543212890625,0.7391357421875,-0.4410400390625,0.06024169921875,3785,6347,-4394,2,-11,-8
11577077,0.50482177734375,0.739990234375,-0.440673828125,0.05816650390625,3807,6571,-4338,0,-13,-11
11587061,0.5045166015625,0.74078369140625,-0.44000244140625,0.05535888671875,3825,6819,-4265,-3,-15,-15
11597042,0.50457763671875,0.74169921875,-0.43878173828125,0.0517578125,3854,7043,-4193,-7,-17,-23
11607026,0.50506591796875,0.74273681640625,-0.43701171875,0.0472412109375,3885,7235,-4112,-12,-20,-31
11617011,0.50592041015625,0.74383544921875,-0.4346923828125,0.0418701171875,3910,7396,-4007,-16,-21,-39
11626995,0.5072021484375,0.744873046875,-0.43194580078125,0.03570556640625,3926,7556,-3905,-22,-23,-43
11636982,0.5089111328125,0.74554443359375,-0.42926025390625,0.029052734375,3927,7683,-3806,-27,-25,-43
11646959,0.51104736328125,0.74566650390625,-0.42694091796875,0.02227783203125,3913,7785,-3726,-33,-26,-39
11656941,0.5135498046875,0.74505615234375,-0.42529296875,0.01568603515625,3932,7837,-3720,-38,-26,-31
11666925,0.51641845703125,0.74365234375,-0.42449951171875,0.00946044921875,3977,7895,-3755,-43,-26,-23
11676905,0.5196533203125,0.741455078125,-0.42437744140625,0.003662109375,4009,7954,-3794,-48,-24,-14
11686889,0.5234375,0.738525390625,-0.4249267578125,-0.001708984375,4022,7967,-3797,-53,-22,-7
11696877,0.52764892578125,0.7349853515625,-0.42572021484375,-0.0067138671875,4027,7977,-3772,-57,-20,-2
11706860,0.532470703125,0.73095703125,-0.42657470703125,-0.01153564453125,4049,8066,-3720,-62,-16,0
11716839,0.53802490234375,0.7264404296875,-0.42718505859375,-0.0162353515625,4109,8229,-3707,-68,-12,1
11726820,0.54425048828125,0.7213134765625,-0.42779541015625,-0.0206298828125,4254,8381,-3771,-75,-7,4
11736806,0.55120849609375,0.71551513671875,-0.428466796875,-0.02447509765625,4459,8624,-3938,-81,-3,9
11746793,0.55877685546875,0.708984375,-0.4293212890625,-0.02801513671875,4610,8902,-4156,-89,2,15
11756771,0.5670166015625,0.70147705078125,-0.4305419921875,-0.031005859375,4736,9139,-4388,-96,6,24
11766762,0.575927734375,0.69317626953125,-0.43206787109375,-0.03338623046875,4845,9293,-4585,-103,11,31
11776745,0.58544921875,0.68414306640625,-0.43353271484375,-0.035400390625,4923,9390,-4758,-110,16,34
11786720,0.59539794921875,0.6746826171875,-0.4345703125,-0.0372314453125,5001,9462,-4902,-115,22,33
11796703,0.6058349609375,0.66510009765625,-0.43475341796875,-0.03924560546875,5086,9512,-5002,-120,27,27
11806686,0.6165771484375,0.65557861328125,-0.43389892578125,-0.0416259765625,5163,9524,-5039,-124,31,18
11816670,0.6275634765625,0.6463623046875,-0.43170166015625,-0.044677734375,5217,9469,-5032,-127,36,5
11826653,0.638671875,0.6375732421875,-0.42803955078125,-0.04864501953125,5204,9360,-4978,-129,40,-9
11836635,0.64984130859375,0.6292724609375,-0.42291259765625,-0.053466796875,5124,9202,-4848,-132,43,-22
11846616,0.6610107421875,0.621337890625,-0.41644287109375,-0.059326171875,4996,9028,-4671,-134,45,-36
11856600,0.67205810546875,0.61376953125,-0.40887451171875,-0.0660400390625,4856,8820,-4455,-135,46,-47
11866586,0.6829833984375,0.60650634765625,-0.40032958984375,-0.07342529296875,4698,8560,-4183,-135,47,-56
11876568,0.69366455078125,0.599365234375,-0.39111328125,-0.08135986328125,4524,8313,-3872,-135,47,-63
11886553,0.70404052734375,0.59222412109375,-0.38153076171875,-0.089599609375,4348,8086,-3545,-134,47,-66
11896542,0.714111328125,0.58502197265625,-0.3717041015625,-0.09796142578125,4140,7852,-3202,-133,46,-68
11906520,0.723876953125,0.57769775390625,-0.36181640625,-0.106201171875,3918,7673,-2881,-132,45,-66
11916502,0.7333984375,0.570068359375,-0.35223388671875,-0.1141357421875,3724,7555,-2560,-131,44,-62
11926487,0.74267578125,0.5621337890625,-0.34295654296875,-0.12164306640625,3566,7473,-2253,-130,43,-56
11936469,0.751708984375,0.5538330078125,-0.3341064453125,-0.12847900390625,3482,7414,-1961,-129,42,-50
11946451,0.76055908203125,0.54522705078125,-0.3258056640625,-0.1346435546875,3462,7371,-1731,-128,42,-43
11956430,0.7691650390625,0.53631591796875,-0.3179931640625,-0.13995361328125,3460,7267,-1509,-126,41,-37
11966422,0.77752685546875,0.52728271484375,-0.3106689453125,-0.14459228515625,3400,7085,-1253,-123,41,-30
11976408,0.78564453125,0.51806640625,-0.3037109375,-0.148681640625,3301,6849,-914,-119,39,-26
11986388,0.79345703125,0.5089111328125,-0.2969970703125,-0.15228271484375,3155,6610,-544,-115,38,-21
11996365,0.80096435546875,0.49981689453125,-0.29058837890625,-0.1556396484375,3013,6380,-190,-111,36,-19
12006350,0.80804443359375,0.49090576171875,-0.28448486328125,-0.1585693359375,2877,6175,128,-106,35,-16
12018995,0.814697265625,0.48223876953125,-0.27874755859375,-0.1611328125,2784,5970,443,-100,33,-13
12026314,0.8209228515625,0.47393798828125,-0.27337646484375,-0.163330078125,2720,5750,755,-95,32,-11
12036296,0.82672119140625,0.46600341796875,-0.268310546875,-0.1651611328125,2652,5541,1037,-88,30,-10
12046278,0.83209228515625,0.4586181640625,-0.26348876953125,-0.16680908203125,2577,5303,1311,-81,29,-9
12056260,0.83697509765625,0.4517822265625,-0.2589111328125,-0.168212890625,2518,5031,1581,-73,28,-9
12066241,0.84136962890625,0.44561767578125,-0.2545166015625,-0.16943359375,2451,4717,1843,-65,27,-10
12076234,0.84521484375,0.44024658203125,-0.250244140625,-0.170654296875,2363,4410,2097,-56,26,-11
12086217,0.8486328125,0.435546875,-0.24609375,-0.1717529296875,2252,4155,2389,-48,25,-12
12096195,0.85162353515625,0.431640625,-0.24212646484375,-0.172607421875,2155,3911,2697,-39,25,-12
12106187,0.85418701171875,0.42840576171875,-0.23834228515625,-0.1732177734375,2028,3686,3013,-31,24,-10
12116173,0.8564453125,0.42578125,-0.23480224609375,-0.17333984375,1903,3504,3359,-23,24,-7
12126153,0.8583984375,0.4237060546875,-0.23150634765625,-0.1729736328125,1799,3429,3756,-16,24,-3
12136126,0.8602294921875,0.42218017578125,-0.2286376953125,-0.17169189453125,1756,3478,4178,-9,24,4
12146107,0.8619384765625,0.42095947265625,-0.22607421875,-0.16949462890625,1750,3650,4607,-3,25,11
12156091,0.863525390625,0.42010498046875,-0.223876953125,-0.1663818359375,1734,3957,5023,1,26,19
12166070,0.8651123046875,0.41943359375,-0.22186279296875,-0.1624755859375,1722,4321,5387,3,27,24
12176055,0.86663818359375,0.41900634765625,-0.2198486328125,-0.15814208984375,1698,4718,5685,4,28,27
12186036,0.86810302734375,0.41864013671875,-0.21771240234375,-0.15386962890625,1641,5098,5878,4,29,25
12196018,0.8695068359375,0.4183349609375,-0.2152099609375,-0.150146484375,1604,5453,6015,2,29,19
12206002,0.87078857421875,0.41815185546875,-0.21234130859375,-0.14727783203125,1539,5813,6036,-1,29,12
12215988,0.8719482421875,0.41802978515625,-0.2091064453125,-0.1453857421875,1477,6141,5979,-3,27,5
12225964,0.873046875,0.4178466796875,-0.20587158203125,-0.14422607421875,1422,6392,5844,-6,25,0
12235947,0.8740234375,0.41748046875,-0.20269775390625,-0.14361572265625,1360,6626,5659,-9,23,-3
12245929,0.875,0.41693115234375,-0.19989013671875,-0.1431884765625,1270,6792,5449,-12,19,-1
12255918,0.87603759765625,0.41607666015625,-0.197509765625,-0.14276123046875,1171,6895,5213,-14,16,1
12265899,0.8770751953125,0.41497802734375,-0.1956787109375,-0.14215087890625,1111,6934,4962,-16,12,5
12275883,0.87811279296875,0.41363525390625,-0.1944580078125,-0.141357421875,1103,6964,4717,-17,9,8
12285865,0.879150390625,0.412109375,-0.19384765625,-0.1402587890625,1167,7007,4509,-18,6,12
12295847,0.88018798828125,0.410400390625,-0.1937255859375,-0.138916015625,1268,7045,4320,-19,4,16
12305831,0.88116455078125,0.40863037109375,-0.19403076171875,-0.1373291015625,1400,7040,4180,-19,2,18
12315813,0.8822021484375,0.40673828125,-0.194580078125,-0.13555908203125,1533,7002,4080,-18,1,19
12325793,0.8831787109375,0.40484619140625,-0.19525146484375,-0.13385009765625,1658,6897,4018,-18,1,19
12335774,0.8841552734375,0.40289306640625,-0.19586181640625,-0.1322021484375,1754,6740,3999,-18,1,17
12345767,0.8851318359375,0.40106201171875,-0.19635009765625,-0.130615234375,1842,6565,4007,-17,2,16
12355751,0.8861083984375,0.39923095703125,-0.19671630859375,-0.12896728515625,1953,6360,4078,-15,3,16
12365732,0.88714599609375,0.39739990234375,-0.1968994140625,-0.1273193359375,2051,6144,4189,-14,5,15
12375708,0.88818359375,0.39569091796875,-0.19696044921875,-0.12542724609375,2148,5916,4337,-12,7,16
12385694,0.88916015625,0.3941650390625,-0.1968994140625,-0.12322998046875,2223,5713,4500,-9,9,17
12395676,0.89019775390625,0.39276123046875,-0.1966552734375,-0.12060546875,2300,5516,4658,-7,11,19
12405659,0.8912353515625,0.39154052734375,-0.19635009765625,-0.11767578125,2363,5333,4839,-4,13,21
12415639,0.89215087890625,0.39056396484375,-0.19586181640625,-0.11444091796875,2419,5161,5004,-1,16,22
12425626,0.89300537109375,0.389892578125,-0.19512939453125,-0.111083984375,2432,5020,5143,2,17,21
12435605,0.89373779296875,0.3896484375,-0.194091796875,-0.1077880859375,2382,4938,5276,5,19,19
12445589,0.89434814453125,0.3897705078125,-0.19281005859375,-0.1046142578125,2326,4951,5371,7,20,17
12455571,0.894775390625,0.3902587890625,-0.19146728515625,-0.1015625,2283,5039,5412,10,20,16
12465556,0.89508056640625,0.39111328125,-0.1900634765625,-0.09857177734375,2256,5177,5423,11,20,15
12475542,0.89520263671875,0.39208984375,-0.188720703125,-0.09564208984375,2246,5343,5396,12,20,15
12485521,0.89532470703125,0.39324951171875,-0.1873779296875,-0.09271240234375,2253,5537,5355,12,19,15
12495503,0.8953857421875,0.39434814453125,-0.1861572265625,-0.08984375,2271,5712,5303,11,19,15
12505485,0.89544677734375,0.39544677734375,-0.1849365234375,-0.0870361328125,2279,5904,5238,10,18,14
12515469,0.8955078125,0.39642333984375,-0.18377685546875,-0.08441162109375,2276,6074,5179,8,18,14
12525451,0.89556884765625,0.397216796875,-0.18267822265625,-0.0819091796875,2245,6228,5113,6,17,14
12535432,0.895751953125,0.39788818359375,-0.181640625,-0.079345703125,2225,6385,5047,4,16,15
12545425,0.89593505859375,0.39825439453125,-0.18084716796875,-0.0767822265625,2205,6509,5001,2,15,17
12555407,0.896240234375,0.39837646484375,-0.18023681640625,-0.073974609375,2232,6587,4966,0,14,20
12565393,0.89666748046875,0.398193359375,-0.17974853515625,-0.07098388671875,2244,6639,4941,-2,13,21
12575365,0.89715576171875,0.39776611328125,-0.17950439453125,-0.06787109375,2283,6640,4931,-3,13,23
12585350,0.897705078125,0.397216796875,-0.17926025390625,-0.06475830078125,2313,6611,4926,-4,12,23
12595332,0.89825439453125,0.396484375,-0.17901611328125,-0.061767578125,2317,6562,4939,-5,12,22
12605313,0.89886474609375,0.39569091796875,-0.17864990234375,-0.0589599609375,2312,6485,4974,-5,12,20
12615297,0.89947509765625,0.3948974609375,-0.17822265625,-0.05645751953125,2305,6396,5009,-6,12,17
12625278,0.90008544921875,0.39410400390625,-0.17767333984375,-0.05426025390625,2286,6296,5065,-6,11,15
12635263,0.900634765625,0.39337158203125,-0.177001953125,-0.05224609375,2266,6190,5099,-5,11,13
