subject,Joshua Spiesman
arm,right
label,2
hz,100.17458098358837
time,4.761687

timestamp_us,q0,q1,q2,q3,ax,ay,az,gx,gy,gz
70653756,-0.227294921875,0.69927978515625,-0.12744140625,-0.66571044921875,-8151,-1165,-41,0,0,0
70663740,-0.227294921875,0.69921875,-0.12750244140625,-0.66571044921875,-8136,-1171,-40,0,0,0
70673715,-0.22735595703125,0.69921875,-0.1275634765625,-0.6656494140625,-8146,-1177,-51,0,0,-1
70683697,-0.2274169921875,0.69927978515625,-0.1275634765625,-0.6656494140625,-8144,-1183,-59,0,0,-1
70693679,-0.2275390625,0.69927978515625,-0.1275634765625,-0.66558837890625,-8136,-1191,-53,0,0,-2
70703662,-0.2276611328125,0.69927978515625,-0.1275634765625,-0.66552734375,-8127,-1201,-61,0,0,-1
70713643,-0.227783203125,0.69927978515625,-0.1275634765625,-0.66546630859375,-8119,-1207,-69,0,0,-1
70723629,-0.22784423828125,0.6993408203125,-0.12762451171875,-0.6654052734375,-8116,-1210,-70,0,0,-1
70733613,-0.22784423828125,0.6993408203125,-0.12774658203125,-0.6654052734375,-8106,-1206,-72,0,0,0
70743593,-0.2279052734375,0.6993408203125,-0.12786865234375,-0.66534423828125,-8098,-1204,-68,0,0,0
70753575,-0.2279052734375,0.6993408203125,-0.12799072265625,-0.665283203125,-8087,-1206,-70,0,0,0
70763559,-0.22796630859375,0.6993408203125,-0.1280517578125,-0.66522216796875,-8094,-1219,-80,1,0,0
70773543,-0.22808837890625,0.69940185546875,-0.128173828125,-0.6651611328125,-8089,-1231,-66,1,1,-1
70783522,-0.22821044921875,0.69940185546875,-0.12823486328125,-0.6650390625,-8088,-1237,-78,1,0,-1
70793504,-0.22833251953125,0.699462890625,-0.1282958984375,-0.66497802734375,-8085,-1241,-81,1,0,-1
70803487,-0.228515625,0.699462890625,-0.12841796875,-0.66485595703125,-8089,-1241,-93,1,0,-1
70813470,-0.2286376953125,0.69952392578125,-0.1285400390625,-0.66473388671875,-8076,-1227,-92,1,0,-1
70823451,-0.228759765625,0.6995849609375,-0.128662109375,-0.66461181640625,-8067,-1219,-90,1,1,-1
70833443,-0.22882080078125,0.6995849609375,-0.1287841796875,-0.66455078125,-8060,-1219,-101,1,0,0
70843426,-0.2288818359375,0.69964599609375,-0.12890625,-0.6644287109375,-8059,-1224,-105,1,1,0
70853409,-0.22900390625,0.69970703125,-0.12896728515625,-0.664306640625,-8049,-1220,-102,1,1,-1
70863389,-0.2291259765625,0.6998291015625,-0.12908935546875,-0.6641845703125,-8062,-1224,-102,1,1,-1
70873368,-0.229248046875,0.69989013671875,-0.129150390625,-0.66400146484375,-8067,-1226,-114,1,1,-1
70883347,-0.22930908203125,0.70001220703125,-0.1292724609375,-0.66387939453125,-8075,-1231,-114,0,1,-1
70893331,-0.22943115234375,0.70013427734375,-0.12933349609375,-0.6636962890625,-8080,-1237,-118,1,1,-1
70903314,-0.22955322265625,0.7001953125,-0.12945556640625,-0.66357421875,-8076,-1239,-103,1,1,-1
70913300,-0.22967529296875,0.70025634765625,-0.12957763671875,-0.66339111328125,-8071,-1249,-97,1,1,0
70923280,-0.22979736328125,0.7003173828125,-0.1297607421875,-0.66326904296875,-8066,-1249,-90,1,1,-1
70933260,-0.22998046875,0.700439453125,-0.1298828125,-0.6630859375,-8057,-1257,-99,1,1,-1
70943249,-0.2301025390625,0.7005615234375,-0.1300048828125,-0.662841796875,-8049,-1254,-95,2,2,-1
70953232,-0.2303466796875,0.70068359375,-0.130126953125,-0.66265869140625,-8055,-1262,-93,1,1,-2
70963216,-0.23065185546875,0.7008056640625,-0.1302490234375,-0.662353515625,-8056,-1271,-106,2,2,-2
70973199,-0.23095703125,0.700927734375,-0.13037109375,-0.66204833984375,-8055,-1290,-107,2,2,-2
70983185,-0.23138427734375,0.70111083984375,-0.13043212890625,-0.6617431640625,-8051,-1324,-104,2,2,-2
70993168,-0.23175048828125,0.70123291015625,-0.130615234375,-0.66143798828125,-8054,-1335,-117,3,2,-2
71003151,-0.232177734375,0.70135498046875,-0.13079833984375,-0.66119384765625,-8033,-1375,-129,3,2,-1
71013134,-0.23260498046875,0.701416015625,-0.13116455078125,-0.66082763671875,-8012,-1408,-139,4,2,0
71023104,-0.2330322265625,0.70147705078125,-0.131591796875,-0.6605224609375,-7976,-1447,-155,5,2,0
71033085,-0.2335205078125,0.70159912109375,-0.13214111328125,-0.66015625,-7936,-1473,-166,6,3,1
71043069,-0.2340087890625,0.70166015625,-0.1328125,-0.65972900390625,-7904,-1496,-172,6,3,1
71053051,-0.23468017578125,0.7017822265625,-0.1334228515625,-0.6593017578125,-7857,-1543,-189,7,3,0
71063033,-0.23553466796875,0.70184326171875,-0.1341552734375,-0.65875244140625,-7796,-1601,-187,9,4,0
71073017,-0.23638916015625,0.70196533203125,-0.1348876953125,-0.65814208984375,-7734,-1637,-180,9,4,0
71083000,-0.2374267578125,0.7021484375,-0.13580322265625,-0.65740966796875,-7658,-1671,-201,11,5,-1
71092987,-0.23858642578125,0.702392578125,-0.13677978515625,-0.65655517578125,-7597,-1705,-218,12,6,-1
71102969,-0.2398681640625,0.70263671875,-0.1378173828125,-0.65557861328125,-7544,-1726,-231,14,7,-2
71112945,-0.24139404296875,0.7030029296875,-0.13885498046875,-0.6544189453125,-7506,-1749,-222,15,9,-3
71122926,-0.2431640625,0.70343017578125,-0.139892578125,-0.653076171875,-7465,-1760,-222,16,10,-5
71132911,-0.2451171875,0.70391845703125,-0.14093017578125,-0.65155029296875,-7435,-1791,-223,18,11,-7
71142893,-0.247314453125,0.7044677734375,-0.14208984375,-0.64990234375,-7386,-1798,-228,19,12,-8
71152876,-0.2496337890625,0.705078125,-0.14324951171875,-0.6480712890625,-7346,-1810,-234,21,13,-8
71162858,-0.25213623046875,0.70574951171875,-0.14459228515625,-0.64605712890625,-7305,-1803,-237,22,15,-9
71172842,-0.2547607421875,0.70648193359375,-0.14605712890625,-0.6439208984375,-7286,-1798,-238,24,16,-9
71182825,-0.25762939453125,0.70721435546875,-0.1475830078125,-0.64166259765625,-7281,-1791,-238,25,17,-11
71192807,-0.26068115234375,0.70806884765625,-0.14910888671875,-0.63916015625,-7257,-1808,-267,27,18,-12
71202791,-0.263916015625,0.70892333984375,-0.1507568359375,-0.636474609375,-7225,-1827,-290,29,20,-13
71212778,-0.26727294921875,0.7098388671875,-0.15252685546875,-0.633544921875,-7171,-1849,-329,30,21,-13
71222762,-0.27081298828125,0.7108154296875,-0.154541015625,-0.6304931640625,-7173,-1850,-372,33,23,-13
71232745,-0.2745361328125,0.71185302734375,-0.1566162109375,-0.627197265625,-7268,-1847,-426,34,24,-15
71242731,-0.278564453125,0.7130126953125,-0.15869140625,-0.62359619140625,-7446,-1798,-494,37,26,-19
71252707,-0.282958984375,0.71429443359375,-0.16064453125,-0.61962890625,-7660,-1699,-549,38,28,-24
71262689,-0.28765869140625,0.71563720703125,-0.16241455078125,-0.61541748046875,-7908,-1588,-640,39,29,-28
71272673,-0.29241943359375,0.71697998046875,-0.164306640625,-0.611083984375,-8183,-1486,-763,40,29,-27
71282655,-0.29669189453125,0.71820068359375,-0.16680908203125,-0.60693359375,-8476,-1351,-885,41,29,-21
71292637,-0.3001708984375,0.7191162109375,-0.17034912109375,-0.6031494140625,-8730,-1192,-956,41,28,-9
71302629,-0.302490234375,0.719482421875,-0.1751708984375,-0.60015869140625,-8953,-1014,-1005,41,27,7
71312606,-0.303466796875,0.71942138671875,-0.18145751953125,-0.597900390625,-9106,-808,-1026,40,25,23
71322587,-0.30322265625,0.71875,-0.18896484375,-0.596435546875,-9226,-577,-1036,39,23,38
71332569,-0.30194091796875,0.7176513671875,-0.197265625,-0.595703125,-9341,-317,-1029,37,20,48
71342552,-0.30010986328125,0.71624755859375,-0.205810546875,-0.595458984375,-9477,-33,-1029,35,18,51
71352536,-0.298095703125,0.714599609375,-0.2139892578125,-0.59552001953125,-9637,259,-1036,32,14,49
71362517,-0.29620361328125,0.71282958984375,-0.22161865234375,-0.5958251953125,-9782,579,-1044,30,11,45
71372499,-0.2943115234375,0.7109375,-0.2286376953125,-0.59637451171875,-9880,901,-1043,27,7,41
71382483,-0.292236328125,0.70880126953125,-0.2353515625,-0.5972900390625,-9977,1207,-1062,25,4,43
71392461,-0.28955078125,0.70635986328125,-0.2423095703125,-0.5987548828125,-10070,1458,-1103,22,0,50
71402444,-0.285888671875,0.703369140625,-0.2498779296875,-0.60089111328125,-10170,1630,-1140,19,-3,63
71412424,-0.281005859375,0.69976806640625,-0.25830078125,-0.6038818359375,-10279,1761,-1172,16,-7,78
71422417,-0.27484130859375,0.6954345703125,-0.26751708984375,-0.607666015625,-10347,1877,-1160,12,-10,94
71432400,-0.267578125,0.6904296875,-0.27740478515625,-0.61224365234375,-10388,2002,-1102,9,-14,105
71442376,-0.2596435546875,0.6849365234375,-0.287353515625,-0.6171875,-10463,2132,-1066,6,-16,109
71452360,-0.25164794921875,0.6793212890625,-0.2967529296875,-0.6221923828125,-10544,2268,-1058,3,-19,106
71462344,-0.2440185546875,0.67376708984375,-0.30535888671875,-0.62713623046875,-10564,2379,-1042,0,-20,99
71472324,-0.236572265625,0.6683349609375,-0.31304931640625,-0.6319580078125,-10527,2488,-1004,-3,-22,95
71482305,-0.22930908203125,0.66290283203125,-0.32025146484375,-0.63677978515625,-10478,2599,-915,-5,-22,92
71492287,-0.22186279296875,0.6573486328125,-0.32708740234375,-0.64166259765625,-10456,2682,-801,-7,-22,92
71502268,-0.21429443359375,0.6517333984375,-0.333740234375,-0.646484375,-10508,2777,-690,-9,-22,94
71512252,-0.20654296875,0.64599609375,-0.34033203125,-0.6513671875,-10594,2882,-573,-10,-23,95
71522231,-0.1986083984375,0.6400146484375,-0.3466796875,-0.65631103515625,-10702,2995,-501,-11,-24,96
71532221,-0.19073486328125,0.63397216796875,-0.35296630859375,-0.66119384765625,-10797,3105,-420,-12,-25,97
71542204,-0.18255615234375,0.62762451171875,-0.35931396484375,-0.6661376953125,-10880,3217,-345,-13,-26,101
71552183,-0.1739501953125,0.620849609375,-0.36590576171875,-0.671142578125,-10928,3325,-249,-13,-26,108
71562177,-0.16461181640625,0.61358642578125,-0.3729248046875,-0.67633056640625,-10953,3423,-137,-14,-27,116
71572158,-0.15478515625,0.60595703125,-0.38018798828125,-0.68145751953125,-10981,3536,-39,-14,-27,122
71582136,-0.14483642578125,0.59820556640625,-0.38739013671875,-0.6864013671875,-11013,3630,47,-15,-27,122
71592113,-0.1351318359375,0.59051513671875,-0.3941650390625,-0.691162109375,-11060,3725,87,-15,-27,118
71602094,-0.12591552734375,0.5830078125,-0.4005126953125,-0.69561767578125,-11083,3824,124,-15,-27,113
71612080,-0.1168212890625,0.5755615234375,-0.4066162109375,-0.6998291015625,-11042,3928,174,-15,-26,113
71622060,-0.1072998046875,0.5677490234375,-0.4129638671875,-0.70404052734375,-11010,4035,258,-15,-26,120
71632044,-0.096923828125,0.5594482421875,-0.419921875,-0.70806884765625,-11034,4124,338,-14,-25,131
71642024,-0.08575439453125,0.550537109375,-0.4273681640625,-0.71197509765625,-11071,4209,401,-14,-24,141
71652007,-0.073974609375,0.54132080078125,-0.43524169921875,-0.71563720703125,-11089,4288,430,-13,-23,148
71661992,-0.06195068359375,0.53179931640625,-0.44317626953125,-0.718994140625,-11074,4374,449,-13,-24,151
71671981,-0.05023193359375,0.52227783203125,-0.450927734375,-0.7220458984375,-11024,4474,452,-11,-24,148
71681959,-0.03887939453125,0.5128173828125,-0.45849609375,-0.72479248046875,-10972,4572,419,-10,-25,146
71691943,-0.02764892578125,0.50311279296875,-0.46600341796875,-0.727294921875,-10875,4698,418,-9,-25,147
71701924,-0.01617431640625,0.49298095703125,-0.4737548828125,-0.7296142578125,-10728,4842,453,-8,-26,153
71711908,-0.0040283203125,0.482177734375,-0.4818115234375,-0.731689453125,-10517,4986,514,-8,-27,161
71721890,0.0087890625,0.47052001953125,-0.4901123046875,-0.73370361328125,-10276,5160,608,-9,-28,169
71731872,0.0218505859375,0.45849609375,-0.498291015625,-0.73553466796875,-10106,5378,667,-10,-29,170
71741854,0.0341796875,0.44659423828125,-0.50579833984375,-0.7373046875,-9971,5582,679,-11,-31,162
71751838,0.0455322265625,0.43511962890625,-0.5125732421875,-0.7388916015625,-9841,5730,664,-11,-33,152
71761820,0.05615234375,0.42376708984375,-0.51873779296875,-0.74041748046875,-9669,5849,653,-12,-35,148
71771802,0.06683349609375,0.41204833984375,-0.5247802734375,-0.74188232421875,-9417,5918,618,-13,-37,151
71781785,0.07818603515625,0.3995361328125,-0.5311279296875,-0.74310302734375,-9049,5927,583,-14,-39,161
71791764,0.090576171875,0.3858642578125,-0.537841796875,-0.744140625,-8661,5954,537,-15,-40,173
71801758,0.103515625,0.37158203125,-0.5445556640625,-0.74481201171875,-8235,5999,498,-16,-41,177
71811738,0.1163330078125,0.35711669921875,-0.5509033203125,-0.74530029296875,-7759,6027,442,-17,-41,174
71821715,0.12896728515625,0.3426513671875,-0.55682373046875,-0.74560546875,-7250,6066,434,-19,-41,170
71831697,0.141357421875,0.32830810546875,-0.562255859375,-0.74578857421875,-6744,6109,463,-20,-40,167
71841682,0.1536865234375,0.31402587890625,-0.567138671875,-0.74578857421875,-6279,6126,470,-22,-39,165
71851664,0.166015625,0.2998046875,-0.5716552734375,-0.74554443359375,-5855,6128,493,-24,-37,164
71861644,0.17828369140625,0.285888671875,-0.57568359375,-0.74505615234375,-5473,6107,496,-25,-34,160
71871629,0.19012451171875,0.2724609375,-0.57916259765625,-0.74444580078125,-5154,6080,496,-26,-33,154
71881611,0.20135498046875,0.259765625,-0.58221435546875,-0.74371337890625,-4828,6010,493,-26,-30,146
71891594,0.21240234375,0.24725341796875,-0.58489990234375,-0.74273681640625,-4454,5900,490,-26,-29,145
71901575,0.2242431640625,0.2342529296875,-0.587646484375,-0.7413330078125,-4006,5807,501,-26,-26,154
71911565,0.23748779296875,0.22021484375,-0.59051513671875,-0.7392578125,-3557,5707,521,-27,-24,170
71921548,0.25213623046875,0.2052001953125,-0.59332275390625,-0.7364501953125,-3198,5681,539,-28,-22,182
71931536,0.26715087890625,0.19000244140625,-0.59588623046875,-0.733154296875,-2882,5648,556,-29,-20,183
71941512,0.281494140625,0.17547607421875,-0.59783935546875,-0.72979736328125,-2657,5616,581,-29,-18,173
71951497,0.2943115234375,0.1622314453125,-0.5992431640625,-0.72662353515625,-2459,5579,611,-28,-17,156
71961478,0.3055419921875,0.15032958984375,-0.60009765625,-0.723876953125,-2272,5502,651,-27,-17,139
71971462,0.31561279296875,0.1392822265625,-0.60076904296875,-0.72119140625,-2036,5401,676,-26,-17,129
71981443,0.32562255859375,0.1280517578125,-0.60137939453125,-0.71832275390625,-1676,5240,728,-25,-18,131
71991432,0.33660888671875,0.1158447265625,-0.60205078125,-0.7147216796875,-1242,5034,771,-24,-18,144
72001414,0.34906005859375,0.10205078125,-0.60284423828125,-0.710205078125,-787,4806,838,-24,-18,162
72011398,0.3626708984375,0.08709716796875,-0.60357666015625,-0.7047119140625,-350,4600,902,-24,-18,173
72021374,0.3763427734375,0.07183837890625,-0.60406494140625,-0.6988525390625,41,4401,955,-24,-18,172
72031356,0.3890380859375,0.05718994140625,-0.6041259765625,-0.693115234375,389,4213,1049,-24,-19,161
72041344,0.4002685546875,0.043701171875,-0.60394287109375,-0.68792724609375,692,4061,1129,-23,-19,143
72051321,0.409912109375,0.03143310546875,-0.603515625,-0.6832275390625,995,3891,1188,-23,-20,127
72063989,0.418701171875,0.0198974609375,-0.6029052734375,-0.67889404296875,1337,3701,1268,-22,-19,118
72071287,0.42730712890625,0.00836181640625,-0.6021728515625,-0.67437744140625,1665,3482,1337,-22,-19,118
72081270,0.4361572265625,-0.003662109375,-0.601318359375,-0.66943359375,2030,3272,1394,-21,-20,123
72091252,0.4453125,-0.0159912109375,-0.60040283203125,-0.6640625,2387,3041,1433,-21,-20,126
72101233,0.45452880859375,-0.02862548828125,-0.59930419921875,-0.65838623046875,2744,2751,1479,-21,-20,127
72111223,0.46356201171875,-0.04132080078125,-0.5980224609375,-0.65252685546875,3131,2415,1522,-20,-21,125
72121205,0.47247314453125,-0.053955078125,-0.5966796875,-0.64642333984375,3552,2070,1582,-19,-20,123
72131184,0.4813232421875,-0.06640625,-0.59521484375,-0.64013671875,3992,1736,1662,-17,-19,120
72141176,0.48992919921875,-0.07855224609375,-0.5936279296875,-0.63360595703125,4390,1454,1720,-16,-18,117
72151160,0.49822998046875,-0.09027099609375,-0.59197998046875,-0.6270751953125,4796,1165,1761,-14,-17,112
72161134,0.506103515625,-0.10150146484375,-0.5902099609375,-0.62066650390625,5189,873,1808,-13,-16,106
72171111,0.5133056640625,-0.11187744140625,-0.5885009765625,-0.61456298828125,5476,577,1841,-11,-15,94
72181096,0.5194091796875,-0.12091064453125,-0.58697509765625,-0.60919189453125,5706,280,1879,-9,-14,78
72191077,0.5242919921875,-0.12847900390625,-0.58575439453125,-0.6046142578125,5909,15,1909,-6,-12,61
72201057,0.52813720703125,-0.13470458984375,-0.58477783203125,-0.600830078125,6108,-231,1949,-4,-12,45
72211038,0.53094482421875,-0.13958740234375,-0.58416748046875,-0.59783935546875,6277,-440,1977,-1,-10,29
72221026,0.53277587890625,-0.14312744140625,-0.5838623046875,-0.595703125,6400,-618,1985,1,-9,13
72231003,0.5333251953125,-0.1451416015625,-0.583984375,-0.5946044921875,6447,-763,1945,3,-8,-6
72240987,0.5323486328125,-0.1453857421875,-0.584716796875,-0.59466552734375,6433,-895,1852,6,-8,-29
72250970,0.5296630859375,-0.1436767578125,-0.5860595703125,-0.59613037109375,6381,-1027,1751,9,-7,-53
72260949,0.525390625,-0.14013671875,-0.58795166015625,-0.598876953125,6339,-1104,1649,11,-7,-76
72270931,0.519775390625,-0.135009765625,-0.59039306640625,-0.60260009765625,6303,-1080,1561,14,-6,-93
72280913,0.5133056640625,-0.12872314453125,-0.5931396484375,-0.6068115234375,6255,-988,1477,17,-5,-104
72290896,0.50616455078125,-0.12139892578125,-0.59613037109375,-0.61138916015625,6161,-823,1370,19,-3,-112
72300876,0.49847412109375,-0.11309814453125,-0.5992431640625,-0.6162109375,6022,-617,1247,21,-1,-119
72310865,0.49017333984375,-0.10394287109375,-0.6024169921875,-0.621337890625,5837,-409,1107,22,1,-127
72320845,0.48126220703125,-0.09375,-0.6055908203125,-0.6268310546875,5596,-177,983,24,3,-136
72330829,0.47149658203125,-0.0823974609375,-0.60870361328125,-0.6328125,5283,107,886,25,5,-147
72340810,0.4608154296875,-0.0697021484375,-0.6116943359375,-0.6392822265625,4929,446,806,25,8,-158
72350793,0.44915771484375,-0.05560302734375,-0.614501953125,-0.646240234375,4559,860,751,26,11,-170
72360778,0.43658447265625,-0.0404052734375,-0.61688232421875,-0.65362548828125,4165,1316,733,25,13,-178
72370764,0.4234619140625,-0.0242919921875,-0.618896484375,-0.6611328125,3729,1749,706,24,17,-184
72380746,0.40972900390625,-0.00738525390625,-0.620361328125,-0.6688232421875,3166,2183,662,24,19,-189
72390729,0.39495849609375,0.0103759765625,-0.62139892578125,-0.6766357421875,2535,2569,613,23,19,-198
72400705,0.379150390625,0.02911376953125,-0.62200927734375,-0.68450927734375,1849,3007,568,23,20,-206
72410691,0.36187744140625,0.04888916015625,-0.62213134765625,-0.69256591796875,1152,3488,541,23,19,-216
72420673,0.34405517578125,0.06890869140625,-0.62188720703125,-0.7001953125,739,3977,537,23,19,-217
72430655,0.32696533203125,0.087890625,-0.62109375,-0.70684814453125,436,4467,613,22,19,-203
72440637,0.31170654296875,0.1053466796875,-0.61981201171875,-0.71246337890625,93,4939,670,19,21,-180
72450619,0.2977294921875,0.12158203125,-0.6181640625,-0.71728515625,-445,5421,718,16,22,-165
72460600,0.28350830078125,0.1378173828125,-0.61614990234375,-0.72186279296875,-1163,5902,729,15,20,-167
72470584,0.26739501953125,0.15533447265625,-0.61346435546875,-0.7266845703125,-1812,6215,745,16,19,-188
72480567,0.2489013671875,0.17431640625,-0.610107421875,-0.73175048828125,-2246,6409,765,17,17,-211
72490548,0.2291259765625,0.19384765625,-0.606201171875,-0.736572265625,-2402,6540,771,18,16,-220
72500536,0.210205078125,0.21234130859375,-0.60198974609375,-0.74053955078125,-2535,6679,880,17,17,-207
72510513,0.19293212890625,0.2293701171875,-0.59759521484375,-0.74371337890625,-3145,7031,890,15,18,-186
72520496,0.17608642578125,0.24615478515625,-0.593017578125,-0.7462158203125,-4083,7450,875,15,18,-180
72530478,0.15826416015625,0.26324462890625,-0.587890625,-0.74835205078125,-4958,7717,819,16,16,-188
72540461,0.1390380859375,0.2808837890625,-0.582275390625,-0.75018310546875,-5521,7705,782,19,13,-200
72550447,0.11932373046875,0.2979736328125,-0.57647705078125,-0.75146484375,-5626,7482,767,22,10,-201
72560428,0.1007080078125,0.31353759765625,-0.57110595703125,-0.751953125,-5414,7192,797,24,9,-187
72570418,0.08416748046875,0.3272705078125,-0.56634521484375,-0.75177001953125,-5339,7036,879,26,10,-166
72580400,0.06890869140625,0.340087890625,-0.56195068359375,-0.75091552734375,-5580,7034,932,27,13,-155
72590382,0.053466796875,0.353271484375,-0.55743408203125,-0.74945068359375,-6030,7066,926,29,15,-159
72600358,0.03692626953125,0.367431640625,-0.55230712890625,-0.7474365234375,-6445,6990,874,32,18,-172
72610344,0.0194091796875,0.3822021484375,-0.54681396484375,-0.74468994140625,-6631,6790,794,35,18,-181
72620324,0.0020751953125,0.39654541015625,-0.5413818359375,-0.74139404296875,-6548,6500,725,38,19,-176
72630307,-0.0137939453125,0.40960693359375,-0.53656005859375,-0.7376708984375,-6378,6209,671,39,19,-161
72640290,-0.02813720703125,0.4215087890625,-0.532470703125,-0.7335205078125,-6543,6090,607,40,21,-146
72650272,-0.04241943359375,0.43341064453125,-0.52825927734375,-0.72894287109375,-7148,6113,482,40,23,-148
72660254,-0.0582275390625,0.446533203125,-0.52294921875,-0.7237548828125,-7835,6122,332,41,24,-168
72670235,-0.07586669921875,0.46075439453125,-0.51654052734375,-0.7177734375,-8349,6033,178,44,25,-186
72680228,-0.09393310546875,0.47491455078125,-0.50958251953125,-0.7113037109375,-8610,5865,44,44,24,-189
72690212,-0.11083984375,0.4879150390625,-0.50311279296875,-0.70465087890625,-8649,5691,-36,44,23,-173
72700199,-0.12567138671875,0.4991455078125,-0.49749755859375,-0.69830322265625,-8774,5531,-101,42,22,-151
72710182,-0.13885498046875,0.5089111328125,-0.49261474609375,-0.692138671875,-9189,5473,-194,39,20,-135
72720167,-0.15179443359375,0.518310546875,-0.487548828125,-0.68603515625,-9778,5426,-315,37,19,-137
72730147,-0.16546630859375,0.52801513671875,-0.4815673828125,-0.6796875,-10282,5287,-434,36,17,-147
72740118,-0.17974853515625,0.53778076171875,-0.474853515625,-0.673095703125,-10575,5055,-555,36,14,-153
72750100,-0.1939697265625,0.54705810546875,-0.4678955078125,-0.66650390625,-10694,4764,-641,35,12,-149
72760083,-0.2073974609375,0.55523681640625,-0.46124267578125,-0.6602783203125,-10689,4452,-694,33,8,-139
72770064,-0.21990966796875,0.5623779296875,-0.45501708984375,-0.65447998046875,-10782,4164,-732,32,5,-128
72780045,-0.232177734375,0.56890869140625,-0.44873046875,-0.64898681640625,-11068,3952,-803,30,1,-127
72790028,-0.24505615234375,0.5755615234375,-0.44158935546875,-0.64324951171875,-11440,3775,-900,29,-1,-139
72800008,-0.2591552734375,0.58270263671875,-0.43316650390625,-0.636962890625,-11751,3538,-1016,29,-4,-155
72809991,-0.274169921875,0.5902099609375,-0.42364501953125,-0.630126953125,-11924,3252,-1124,30,-5,-166
72819980,-0.289306640625,0.59747314453125,-0.413818359375,-0.62298583984375,-11986,2959,-1210,30,-7,-166
72829956,-0.30377197265625,0.60394287109375,-0.4044189453125,-0.61602783203125,-11930,2668,-1243,30,-7,-156
72839939,-0.3167724609375,0.609375,-0.39599609375,-0.60955810546875,-11771,2387,-1226,29,-7,-139
72849922,-0.328125,0.6136474609375,-0.38885498046875,-0.60382080078125,-11578,2162,-1150,28,-7,-119
72859905,-0.3380126953125,0.6170654296875,-0.3828125,-0.59869384765625,-11388,1963,-1065,26,-6,-104
72869887,-0.3468017578125,0.62005615234375,-0.37744140625,-0.59405517578125,-11206,1832,-1008,24,-5,-96
72879871,-0.3551025390625,0.62298583984375,-0.3721923828125,-0.58935546875,-11027,1782,-981,22,-4,-97
72889852,-0.36358642578125,0.62628173828125,-0.36639404296875,-0.584228515625,-10838,1755,-972,21,-2,-105
72899833,-0.372314453125,0.6300048828125,-0.3599853515625,-0.57867431640625,-10613,1699,-929,20,-1,-113
72909821,-0.38116455078125,0.63397216796875,-0.35321044921875,-0.57281494140625,-10371,1643,-865,19,1,-115
72919801,-0.3895263671875,0.63775634765625,-0.3465576171875,-0.5670166015625,-10166,1541,-772,17,3,-110
72929783,-0.39691162109375,0.64105224609375,-0.3406982421875,-0.5616455078125,-9995,1424,-678,16,4,-98
72939763,-0.403076171875,0.64385986328125,-0.3359375,-0.556884765625,-9867,1285,-587,14,5,-82
72949755,-0.40789794921875,0.64599609375,-0.33245849609375,-0.552978515625,-9758,1197,-527,13,6,-65
72959738,-0.41162109375,0.647705078125,-0.33001708984375,-0.5496826171875,-9673,1152,-483,11,7,-53
72969713,-0.41461181640625,0.64923095703125,-0.32818603515625,-0.5467529296875,-9548,1125,-475,10,8,-47
72979695,-0.41717529296875,0.650634765625,-0.32666015625,-0.54400634765625,-9423,1085,-466,10,9,-43
72989679,-0.4195556640625,0.6519775390625,-0.3253173828125,-0.5413818359375,-9269,1039,-433,9,9,-41
72999659,-0.42193603515625,0.65325927734375,-0.32403564453125,-0.5386962890625,-9125,963,-367,10,10,-40
73009642,-0.42437744140625,0.65447998046875,-0.322998046875,-0.5360107421875,-9023,878,-299,12,11,-39
73019629,-0.42681884765625,0.65545654296875,-0.322265625,-0.53326416015625,-8967,784,-222,14,12,-36
73029610,-0.42919921875,0.65625,-0.32196044921875,-0.53057861328125,-8935,673,-182,17,12,-32
73039593,-0.4315185546875,0.65673828125,-0.322265625,-0.52789306640625,-8935,546,-160,20,13,-27
73049575,-0.4337158203125,0.65692138671875,-0.32318115234375,-0.52532958984375,-8978,446,-149,22,13,-22
73059558,-0.435791015625,0.65667724609375,-0.32470703125,-0.52294921875,-9057,381,-151,26,14,-16
73069541,-0.43756103515625,0.65606689453125,-0.32696533203125,-0.52081298828125,-9128,352,-167,27,13,-10
73079524,-0.4390869140625,0.655029296875,-0.329833984375,-0.51904296875,-9187,343,-193,29,13,-3
73089508,-0.44024658203125,0.6536865234375,-0.3333740234375,-0.51751708984375,-9236,363,-216,30,13,4
73099488,-0.4410400390625,0.6519775390625,-0.3372802734375,-0.51641845703125,-9320,387,-254,30,12,9
73109468,-0.44158935546875,0.65008544921875,-0.3414306640625,-0.51556396484375,-9442,400,-306,30,11,12
73119452,-0.44207763671875,0.6480712890625,-0.3455810546875,-0.51495361328125,-9570,406,-345,29,8,13
73129433,-0.44256591796875,0.6458740234375,-0.34954833984375,-0.51458740234375,-9738,408,-399,28,6,14
73139424,-0.4429931640625,0.64361572265625,-0.3533935546875,-0.51446533203125,-9879,464,-502,27,3,14
73149405,-0.4432373046875,0.64111328125,-0.35723876953125,-0.5147705078125,-9931,543,-587,26,0,17
73159386,-0.44305419921875,0.63818359375,-0.361328125,-0.515625,-9940,623,-645,24,-3,24
73169362,-0.4422607421875,0.63482666015625,-0.36590576171875,-0.51727294921875,-9958,681,-659,22,-5,35
73179345,-0.440673828125,0.630859375,-0.37103271484375,-0.519775390625,-10002,776,-647,20,-7,46
73189328,-0.4383544921875,0.6265869140625,-0.37652587890625,-0.52301025390625,-10042,905,-641,17,-8,53
73199311,-0.435546875,0.6220703125,-0.38226318359375,-0.52655029296875,-10079,1099,-646,15,-9,57
73209293,-0.43243408203125,0.6175537109375,-0.387939453125,-0.53021240234375,-10080,1340,-672,13,-8,57
73219276,-0.42889404296875,0.61309814453125,-0.3936767578125,-0.53399658203125,-10000,1545,-678,11,-8,60
73229260,-0.4246826171875,0.6083984375,-0.39990234375,-0.53814697265625,-9833,1684,-642,9,-6,70
73239237,-0.41912841796875,0.60308837890625,-0.4071044921875,-0.54302978515625,-9653,1808,-543,6,-4,88
73249231,-0.4119873046875,0.59698486328125,-0.41558837890625,-0.548828125,-9529,1952,-399,4,-1,107
73259218,-0.40350341796875,0.59033203125,-0.4249267578125,-0.55511474609375,-9514,2107,-265,1,3,119
73269199,-0.3944091796875,0.58367919921875,-0.43438720703125,-0.56134033203125,-9613,2253,-189,-1,5,120
73279183,-0.38543701171875,0.57757568359375,-0.4432373046875,-0.56695556640625,-9799,2378,-207,-2,8,111
73289167,-0.37713623046875,0.57232666015625,-0.4510498046875,-0.57159423828125,-10026,2495,-265,-3,9,97
73299150,-0.36981201171875,0.56793212890625,-0.457763671875,-0.57550048828125,-10260,2582,-270,-4,9,84
73309120,-0.363037109375,0.56378173828125,-0.46380615234375,-0.5791015625,-10461,2615,-180,-4,9,80
73319102,-0.35589599609375,0.5592041015625,-0.46990966796875,-0.58294677734375,-10667,2589,-67,-5,9,89
73329084,-0.3477783203125,0.5537109375,-0.4769287109375,-0.58740234375,-10884,2560,13,-5,8,107
73339066,-0.33819580078125,0.54693603515625,-0.485107421875,-0.5926513671875,-11088,2533,23,-5,7,128
73349050,-0.32745361328125,0.53900146484375,-0.49432373046875,-0.59832763671875,-11271,2550,-45,-4,6,145
73359036,-0.31591796875,0.5301513671875,-0.504150390625,-0.60418701171875,-11379,2617,-169,-3,5,154
73369018,-0.30419921875,0.52081298828125,-0.51397705078125,-0.6099853515625,-11447,2725,-246,-2,3,157
73379002,-0.29266357421875,0.51141357421875,-0.5235595703125,-0.61541748046875,-11503,2893,-298,-1,3,153
73388990,-0.28155517578125,0.50201416015625,-0.53265380859375,-0.6204833984375,-11532,3086,-318,0,2,148
73398974,-0.27069091796875,0.4927978515625,-0.541259765625,-0.625244140625,-11528,3282,-329,0,2,146
73408948,-0.25982666015625,0.4835205078125,-0.54974365234375,-0.62969970703125,-11506,3485,-337,0,3,145
73418934,-0.24871826171875,0.47412109375,-0.55810546875,-0.6339111328125,-11396,3676,-366,0,4,148
73428915,-0.237060546875,0.46429443359375,-0.566650390625,-0.63812255859375,-11256,3879,-389,0,5,155
73438898,-0.2247314453125,0.45404052734375,-0.57525634765625,-0.64227294921875,-11121,4111,-435,-2,5,160
73448878,-0.2120361328125,0.44342041015625,-0.583740234375,-0.64630126953125,-11025,4346,-517,-3,6,163
73458861,-0.198974609375,0.4326171875,-0.5921630859375,-0.650146484375,-11011,4572,-619,-3,6,167
73468844,-0.18572998046875,0.421630859375,-0.600341796875,-0.65374755859375,-11042,4791,-713,-4,6,169
73478825,-0.17236328125,0.4105224609375,-0.608154296875,-0.6572265625,-11013,5005,-757,-6,6,169
73488811,-0.15899658203125,0.39935302734375,-0.6156005859375,-0.66058349609375,-10910,5199,-752,-7,5,169
73498793,-0.14569091796875,0.3880615234375,-0.6224365234375,-0.6639404296875,-10750,5390,-715,-10,4,167
73508778,-0.132568359375,0.376708984375,-0.6287841796875,-0.66729736328125,-10624,5577,-701,-12,3,165
73518760,-0.11968994140625,0.36541748046875,-0.634521484375,-0.6705322265625,-10526,5768,-724,-14,0,163
73528744,-0.10687255859375,0.35382080078125,-0.63983154296875,-0.673828125,-10363,5914,-757,-16,-2,166
73538718,-0.093505859375,0.3414306640625,-0.64508056640625,-0.67718505859375,-10127,6033,-794,-18,-4,175
73548701,-0.0791015625,0.32769775390625,-0.65045166015625,-0.6806640625,-9775,6152,-803,-21,-7,189
73558682,-0.0634765625,0.31243896484375,-0.6558837890625,-0.684326171875,-9329,6279,-784,-23,-9,202
73568667,-0.046875,0.2960205078125,-0.6611328125,-0.6878662109375,-8789,6383,-767,-26,-10,211
73578649,-0.02978515625,0.27899169921875,-0.6658935546875,-0.69134521484375,-8235,6498,-740,-29,-11,213
73588632,-0.012939453125,0.2620849609375,-0.669921875,-0.694580078125,-7759,6629,-741,-32,-11,208
73598612,0.003173828125,0.24591064453125,-0.673095703125,-0.697509765625,-7349,6735,-754,-34,-10,197
73608596,0.01837158203125,0.2305908203125,-0.67547607421875,-0.7001953125,-6960,6813,-774,-35,-10,187
73618579,0.03302001953125,0.216064453125,-0.67718505859375,-0.70263671875,-6562,6848,-769,-37,-8,179
73628562,0.04736328125,0.20172119140625,-0.67840576171875,-0.70489501953125,-6100,6844,-747,-38,-8,176
73638545,0.06182861328125,0.18743896484375,-0.67919921875,-0.70697021484375,-5686,6831,-737,-40,-7,176
73648528,0.07635498046875,0.1729736328125,-0.6796875,-0.708740234375,-5320,6792,-758,-41,-6,177
73658509,0.09112548828125,0.15838623046875,-0.67987060546875,-0.71026611328125,-4974,6718,-762,-41,-6,179
73668493,0.10626220703125,0.14349365234375,-0.67987060546875,-0.71136474609375,-4594,6559,-738,-41,-5,184
73678478,0.1219482421875,0.12811279296875,-0.67962646484375,-0.71197509765625,-4249,6374,-716,-40,-4,190
73688460,0.13800048828125,0.11224365234375,-0.67926025390625,-0.71209716796875,-3941,6203,-644,-39,-4,195
73698444,0.154052734375,0.09637451171875,-0.6785888671875,-0.71173095703125,-3671,6035,-587,-38,-3,194
73708424,0.16961669921875,0.0806884765625,-0.67767333984375,-0.71099853515625,-3365,5850,-522,-36,-5,189
73718415,0.1846923828125,0.065185546875,-0.67657470703125,-0.70989990234375,-3003,5614,-457,-35,-5,185
73728397,0.19952392578125,0.0496826171875,-0.67523193359375,-0.7083740234375,-2565,5313,-374,-33,-6,183
73738375,0.21435546875,0.03387451171875,-0.673828125,-0.70635986328125,-2109,4983,-279,-31,-7,184
73748357,0.2293701171875,0.01776123046875,-0.6722412109375,-0.7037353515625,-1659,4669,-205,-28,-7,186
73758344,0.244384765625,0.0015869140625,-0.6705322265625,-0.7005615234375,-1271,4393,-133,-26,-8,187
73768321,0.25921630859375,-0.01458740234375,-0.6685791015625,-0.6968994140625,-926,4113,-61,-25,-8,186
73778305,0.2738037109375,-0.030517578125,-0.66650390625,-0.69281005859375,-585,3830,6,-23,-8,183
73788289,0.2879638671875,-0.0462646484375,-0.66424560546875,-0.6883544921875,-250,3520,71,-21,-9,179
73798270,0.30169677734375,-0.06182861328125,-0.661865234375,-0.6834716796875,110,3201,126,-18,-10,174
73808252,0.31494140625,-0.07708740234375,-0.659423828125,-0.67828369140625,477,2866,167,-16,-11,169
73818233,0.32769775390625,-0.092041015625,-0.65704345703125,-0.67266845703125,851,2552,202,-14,-12,165
73828224,0.34014892578125,-0.10687255859375,-0.654541015625,-0.66668701171875,1253,2244,224,-11,-13,162
73838207,0.35247802734375,-0.1217041015625,-0.65203857421875,-0.66021728515625,1691,1917,238,-9,-14,162
73848187,0.36474609375,-0.1365966796875,-0.6494140625,-0.6531982421875,2179,1596,269,-7,-14,161
73858178,0.376708984375,-0.15142822265625,-0.64666748046875,-0.645751953125,2705,1246,330,-5,-16,157
73868160,0.38812255859375,-0.1656494140625,-0.64398193359375,-0.63818359375,3220,869,393,-3,-16,147
73878138,0.39862060546875,-0.17901611328125,-0.64141845703125,-0.63067626953125,3751,481,450,0,-16,135
73888113,0.40826416015625,-0.19146728515625,-0.63897705078125,-0.62322998046875,4360,61,502,2,-16,123
73898095,0.4173583984375,-0.203125,-0.6365966796875,-0.61590576171875,5012,-343,563,4,-15,114
73908080,0.42596435546875,-0.21380615234375,-0.63433837890625,-0.608642578125,5632,-711,603,6,-13,103
73918063,0.4337158203125,-0.22320556640625,-0.63232421875,-0.6019287109375,6149,-1042,631,8,-10,87
73928046,0.440185546875,-0.230712890625,-0.6307373046875,-0.59600830078125,6598,-1324,644,10,-8,66
73938029,0.44525146484375,-0.2362060546875,-0.629638671875,-0.59124755859375,6986,-1535,716,11,-5,42
73948010,0.44873046875,-0.239501953125,-0.62908935546875,-0.587890625,7306,-1679,798,12,-3,16
73957996,0.45068359375,-0.24066162109375,-0.629150390625,-0.58587646484375,7584,-1759,867,13,0,-7
73967975,0.45135498046875,-0.23992919921875,-0.629638671875,-0.5850830078125,7794,-1782,925,13,3,-27
73977953,0.4510498046875,-0.2374267578125,-0.630615234375,-0.5853271484375,7916,-1734,954,14,7,-45
73987935,0.44976806640625,-0.2333984375,-0.63189697265625,-0.5865478515625,7917,-1613,939,15,10,-59
73997918,0.44744873046875,-0.2279052734375,-0.633544921875,-0.588623046875,7770,-1456,905,15,13,-75
74007900,0.4439697265625,-0.22076416015625,-0.6356201171875,-0.59173583984375,7507,-1240,854,15,14,-92
74017884,0.43902587890625,-0.21185302734375,-0.63818359375,-0.595947265625,7167,-1008,792,16,16,-112
74027871,0.43267822265625,-0.20135498046875,-0.64117431640625,-0.6009521484375,6819,-753,729,16,16,-128
74037852,0.4251708984375,-0.18963623046875,-0.64447021484375,-0.60662841796875,6455,-460,687,16,16,-141
74047834,0.4166259765625,-0.1767578125,-0.64788818359375,-0.61279296875,6043,-142,638,17,16,-151
74057817,0.40716552734375,-0.16302490234375,-0.65142822265625,-0.619140625,5582,184,579,18,16,-159
74067799,0.39678955078125,-0.1483154296875,-0.655029296875,-0.625732421875,5073,506,513,19,16,-168
74077783,0.38543701171875,-0.13287353515625,-0.65869140625,-0.63238525390625,4479,807,402,20,14,-175
74087762,0.37310791015625,-0.11663818359375,-0.6624755859375,-0.63909912109375,3903,1156,312,21,13,-182
74097753,0.35986328125,-0.099853515625,-0.6661376953125,-0.64569091796875,3379,1587,276,21,11,-187
74107737,0.3458251953125,-0.08251953125,-0.66961669921875,-0.652099609375,2796,2035,266,22,10,-190
74117712,0.331298828125,-0.0648193359375,-0.6728515625,-0.6583251953125,2249,2458,266,23,9,-191
74127695,0.31646728515625,-0.047119140625,-0.67584228515625,-0.66400146484375,1728,2808,219,24,7,-189
74137678,0.30145263671875,-0.0296630859375,-0.6787109375,-0.6690673828125,1188,3125,152,26,6,-185
74147660,0.28594970703125,-0.01226806640625,-0.68145751953125,-0.67364501953125,598,3483,74,27,2,-185
74157644,0.26947021484375,0.00537109375,-0.68408203125,-0.6778564453125,-11,3955,-13,28,-2,-190
74167623,0.2515869140625,0.02386474609375,-0.6865234375,-0.68182373046875,-557,4491,-81,31,-5,-200
74177606,0.23260498046875,0.04290771484375,-0.68865966796875,-0.68548583984375,-1029,5015,-149,32,-7,-207
74187588,0.21319580078125,0.0621337890625,-0.6904296875,-0.6884765625,-1467,5455,-207,34,-6,-206
74197571,0.1942138671875,0.0806884765625,-0.69195556640625,-0.690673828125,-1805,5766,-313,35,-7,-198
74207558,0.17620849609375,0.09783935546875,-0.69329833984375,-0.69195556640625,-2117,6005,-401,36,-8,-182
74217539,0.15948486328125,0.1134033203125,-0.69439697265625,-0.6925048828125,-2466,6320,-481,36,-10,-166
74227521,0.1429443359375,0.12823486328125,-0.6953125,-0.692626953125,-2963,6794,-565,35,-13,-162
74237501,0.1253662109375,0.14361572265625,-0.6956787109375,-0.69268798828125,-3443,7328,-646,35,-14,-173
74247485,0.10650634765625,0.16015625,-0.69537353515625,-0.69244384765625,-3791,7787,-732,35,-14,-188
74257468,0.08709716796875,0.17730712890625,-0.6944580078125,-0.69189453125,-3915,8107,-735,35,-11,-196
74267450,0.0684814453125,0.194091796875,-0.693115234375,-0.69085693359375,-3833,8278,-704,35,-8,-190
74277429,0.05181884765625,0.2093505859375,-0.6915283203125,-0.689453125,-3706,8360,-675,32,-5,-171
74287421,0.03765869140625,0.22247314453125,-0.68988037109375,-0.68792724609375,-3645,8445,-634,28,-3,-146
74297403,0.025390625,0.23388671875,-0.6881103515625,-0.68646240234375,-3838,8594,-598,22,-2,-128
74307386,0.01348876953125,0.24505615234375,-0.6856689453125,-0.68536376953125,-4173,8788,-585,16,-2,-129
74317367,0.00054931640625,0.2574462890625,-0.6822509765625,-0.684326171875,-4475,8932,-616,12,0,-147
74327348,-0.01373291015625,0.2716064453125,-0.67767333984375,-0.68328857421875,-4610,8963,-623,9,2,-168
74337331,-0.0284423828125,0.2867431640625,-0.67218017578125,-0.68206787109375,-4538,8869,-590,6,6,-179
74347311,-0.0423583984375,0.30169677734375,-0.6661376953125,-0.6807861328125,-4537,8692,-523,2,9,-172
74357292,-0.05462646484375,0.315673828125,-0.65997314453125,-0.67962646484375,-4744,8558,-534,-4,12,-155
74367273,-0.06536865234375,0.32843017578125,-0.65374755859375,-0.67864990234375,-5219,8518,-613,-9,12,-140
74377255,-0.07568359375,0.3408203125,-0.6470947265625,-0.6778564453125,-5841,8506,-713,-14,11,-137
74387234,-0.08673095703125,0.35369873046875,-0.63958740234375,-0.67706298828125,-6419,8431,-839,-17,10,-150
74397227,-0.09918212890625,0.3677978515625,-0.630859375,-0.67596435546875,-6827,8280,-928,-19,8,-168
74407210,-0.11279296875,0.3826904296875,-0.62115478515625,-0.67462158203125,-6931,8006,-969,-20,7,-182
74417199,-0.1260986328125,0.397216796875,-0.61102294921875,-0.673095703125,-6904,7641,-949,-23,6,-177
74427180,-0.13812255859375,0.4105224609375,-0.6009521484375,-0.67181396484375,-6999,7316,-908,-25,6,-162
74437167,-0.14874267578125,0.42254638671875,-0.5911865234375,-0.67071533203125,-7220,7067,-880,-28,6,-147
74447147,-0.15863037109375,0.43389892578125,-0.58148193359375,-0.66973876953125,-7673,6864,-880,-30,5,-141
74457115,-0.1688232421875,0.445556640625,-0.57110595703125,-0.66845703125,-8263,6692,-945,-31,4,-149
74467098,-0.180419921875,0.45806884765625,-0.5596923828125,-0.66668701171875,-8802,6446,-1001,-31,3,-167
74477081,-0.19329833984375,0.47137451171875,-0.547119140625,-0.6641845703125,-9150,6094,-1037,-30,1,-180
74487064,-0.20635986328125,0.484375,-0.5341796875,-0.66143798828125,-9228,5704,-1013,-30,0,-179
74497045,-0.21832275390625,0.49615478515625,-0.52178955078125,-0.65875244140625,-9205,5351,-975,-29,-1,-164
74507028,-0.228515625,0.5064697265625,-0.51043701171875,-0.6563720703125,-9304,5105,-930,-30,-1,-144
74517014,-0.2371826171875,0.515625,-0.49993896484375,-0.65423583984375,-9527,4962,-899,-30,1,-130
74526996,-0.2449951171875,0.52435302734375,-0.4898681640625,-0.65203857421875,-9770,4839,-860,-30,3,-125
74536984,-0.25262451171875,0.5330810546875,-0.479736328125,-0.6495361328125,-9900,4697,-792,-30,5,-126
74546960,-0.26031494140625,0.5419921875,-0.46929931640625,-0.64678955078125,-9956,4494,-706,-30,7,-130
74556944,-0.2679443359375,0.551025390625,-0.45855712890625,-0.6436767578125,-9911,4216,-607,-31,9,-131
74566928,-0.27490234375,0.55975341796875,-0.447998046875,-0.640625,-9746,3916,-478,-32,10,-124
74576909,-0.28070068359375,0.56781005859375,-0.43817138671875,-0.63787841796875,-9562,3646,-380,-34,12,-110
74586891,-0.2850341796875,0.57501220703125,-0.42926025390625,-0.63555908203125,-9421,3444,-291,-35,13,-96
74596876,-0.288330078125,0.5816650390625,-0.42108154296875,-0.6334228515625,-9321,3291,-218,-36,15,-86
74606858,-0.29107666015625,0.588134765625,-0.4132080078125,-0.63140869140625,-9209,3142,-148,-36,16,-84
74616840,-0.29376220703125,0.59478759765625,-0.40509033203125,-0.62921142578125,-9071,2991,-94,-37,18,-86
74626824,-0.296630859375,0.60174560546875,-0.39666748046875,-0.6265869140625,-8933,2808,-51,-38,20,-92
74636805,-0.29986572265625,0.609130859375,-0.3876953125,-0.62353515625,-8848,2550,-16,-39,22,-97
74646787,-0.30316162109375,0.61669921875,-0.37835693359375,-0.6202392578125,-8826,2258,4,-40,23,-99
74656778,-0.30633544921875,0.624267578125,-0.368896484375,-0.61676025390625,-8850,1945,-11,-40,25,-98
74666761,-0.3092041015625,0.63177490234375,-0.3594970703125,-0.61322021484375,-8894,1671,-22,-41,25,-96
74676744,-0.311767578125,0.63909912109375,-0.3502197265625,-0.6097412109375,-8955,1425,-66,-42,25,-93
74686727,-0.3143310546875,0.64630126953125,-0.34075927734375,-0.60614013671875,-9034,1223,-127,-42,24,-95
74696703,-0.31707763671875,0.653564453125,-0.33087158203125,-0.6024169921875,-9148,1042,-211,-43,23,-101
74706688,-0.3203125,0.66094970703125,-0.3203125,-0.59832763671875,-9263,876,-304,-43,22,-109
74716667,-0.323974609375,0.6683349609375,-0.30902099609375,-0.593994140625,-9385,714,-372,-44,20,-115
74726650,-0.327880859375,0.67559814453125,-0.29730224609375,-0.58966064453125,-9552,564,-417,-44,18,-117
74736633,-0.33154296875,0.68243408203125,-0.2855224609375,-0.5855712890625,-9718,402,-466,-45,15,-115
74746615,-0.334716796875,0.6885986328125,-0.274169921875,-0.58197021484375,-9852,200,-509,-45,12,-105
74756598,-0.3372802734375,0.6939697265625,-0.2635498046875,-0.57891845703125,-9936,-31,-561,-44,8,-94
74766581,-0.33929443359375,0.69854736328125,-0.25396728515625,-0.5765380859375,-9958,-280,-624,-41,4,-82
74776563,-0.3409423828125,0.702392578125,-0.24554443359375,-0.5745849609375,-9888,-534,-662,-36,2,-70
74786543,-0.3424072265625,0.70550537109375,-0.2381591796875,-0.572998046875,-9745,-801,-664,-31,1,-60
74796536,-0.3438720703125,0.7080078125,-0.23199462890625,-0.571533203125,-9577,-1090,-610,-23,2,-51
74806511,-0.34552001953125,0.71002197265625,-0.22698974609375,-0.57000732421875,-9389,-1377,-535,-15,3,-43
74816492,-0.34735107421875,0.7115478515625,-0.22344970703125,-0.5684814453125,-9229,-1656,-432,-7,6,-34
74826476,-0.34918212890625,0.7125244140625,-0.22149658203125,-0.56689453125,-9092,-1867,-331,3,9,-23
74836458,-0.350830078125,0.7130126953125,-0.22125244140625,-0.56536865234375,-8984,-1966,-248,11,12,-11
74846445,-0.35211181640625,0.7130126953125,-0.22283935546875,-0.56390380859375,-8887,-1952,-196,18,14,1
74856428,-0.35296630859375,0.7125244140625,-0.22607421875,-0.56268310546875,-8815,-1846,-172,23,17,13
74866411,-0.35321044921875,0.71173095703125,-0.2305908203125,-0.56170654296875,-8764,-1657,-181,26,18,23
74876393,-0.35284423828125,0.71063232421875,-0.236083984375,-0.56103515625,-8734,-1430,-225,28,18,30
74886371,-0.35205078125,0.7093505859375,-0.24224853515625,-0.560546875,-8727,-1182,-276,28,18,36
74896353,-0.350830078125,0.7078857421875,-0.24859619140625,-0.56036376953125,-8739,-941,-315,26,17,39
74906334,-0.349365234375,0.70648193359375,-0.25482177734375,-0.560302734375,-8753,-728,-376,23,16,39
74916318,-0.34765625,0.705078125,-0.2606201171875,-0.5604248046875,-8770,-540,-444,19,15,37
74926298,-0.345703125,0.703857421875,-0.26593017578125,-0.5606689453125,-8792,-370,-503,15,13,35
74936287,-0.34356689453125,0.7027587890625,-0.2705078125,-0.5611572265625,-8797,-233,-544,9,11,32
74946265,-0.34130859375,0.701904296875,-0.2742919921875,-0.561767578125,-8798,-136,-598,4,9,28
74956249,-0.33892822265625,0.7012939453125,-0.27716064453125,-0.5626220703125,-8812,-95,-670,-2,6,24
74966234,-0.33648681640625,0.70086669921875,-0.27923583984375,-0.56353759765625,-8834,-85,-754,-7,4,20
74976213,-0.333984375,0.70062255859375,-0.28045654296875,-0.56475830078125,-8831,-86,-834,-12,1,16
74986199,-0.3314208984375,0.70050048828125,-0.2808837890625,-0.566162109375,-8820,-100,-899,-17,-2,12
74996183,-0.32879638671875,0.70050048828125,-0.280517578125,-0.56787109375,-8808,-101,-929,-22,-5,9
75006167,-0.32623291015625,0.70062255859375,-0.279296875,-0.56982421875,-8792,-145,-927,-26,-8,4
75016148,-0.32379150390625,0.70086669921875,-0.27728271484375,-0.57196044921875,-8745,-217,-931,-30,-11,0
75026119,-0.32147216796875,0.701171875,-0.2745361328125,-0.57415771484375,-8678,-307,-938,-33,-14,-5
75036098,-0.3194580078125,0.70166015625,-0.27105712890625,-0.57635498046875,-8623,-430,-959,-35,-15,-9
75046084,-0.31768798828125,0.70220947265625,-0.2669677734375,-0.57855224609375,-8571,-565,-969,-37,-17,-13
75056066,-0.31622314453125,0.70281982421875,-0.26239013671875,-0.5806884765625,-8507,-694,-968,-37,-19,-18
75066050,-0.31512451171875,0.70343017578125,-0.2574462890625,-0.582763671875,-8445,-827,-954,-36,-20,-21
75076034,-0.31439208984375,0.7039794921875,-0.25225830078125,-0.58477783203125,-8363,-970,-940,-35,-21,-23
75086016,-0.31390380859375,0.70452880859375,-0.2470703125,-0.58660888671875,-8295,-1138,-920,-33,-21,-23
75095998,-0.31365966796875,0.70489501953125,-0.2420654296875,-0.58837890625,-8220,-1302,-910,-30,-21,-22
75105986,-0.31341552734375,0.70513916015625,-0.23748779296875,-0.59002685546875,-8167,-1458,-899,-27,-20,-20
75115971,-0.313232421875,0.705322265625,-0.2333984375,-0.59161376953125,-8119,-1584,-891,-24,-19,-16
75125948,-0.31292724609375,0.705322265625,-0.2298583984375,-0.5931396484375,-8067,-1674,-894,-21,-18,-12
75135931,-0.31256103515625,0.7052001953125,-0.22698974609375,-0.59454345703125,-8010,-1719,-872,-18,-16,-8
75145911,-0.31201171875,0.7049560546875,-0.2247314453125,-0.59600830078125,-7973,-1739,-857,-16,-14,-4
75155902,-0.311279296875,0.7047119140625,-0.2230224609375,-0.59735107421875,-7928,-1746,-853,-14,-13,0
75165878,-0.310302734375,0.704345703125,-0.22186279296875,-0.59869384765625,-7883,-1725,-849,-13,-11,4
75175861,-0.30902099609375,0.7039794921875,-0.2213134765625,-0.5999755859375,-7850,-1668,-855,-12,-10,8
75185843,-0.30755615234375,0.70355224609375,-0.22113037109375,-0.601318359375,-7820,-1611,-824,-11,-8,11
75195826,-0.305908203125,0.703125,-0.22119140625,-0.60260009765625,-7820,-1541,-814,-11,-7,13
75205808,-0.30419921875,0.7027587890625,-0.22137451171875,-0.60382080078125,-7828,-1501,-795,-11,-6,14
75215791,-0.3023681640625,0.70245361328125,-0.22161865234375,-0.60498046875,-7855,-1483,-789,-11,-5,14
75225778,-0.30059814453125,0.7021484375,-0.22186279296875,-0.606201171875,-7906,-1459,-790,-11,-5,14
75235762,-0.29876708984375,0.701904296875,-0.2220458984375,-0.6072998046875,-7946,-1444,-796,-12,-5,13
75245745,-0.29693603515625,0.70166015625,-0.22210693359375,-0.6083984375,-7990,-1436,-806,-12,-5,12
75255729,-0.29522705078125,0.7015380859375,-0.22198486328125,-0.60943603515625,-8020,-1400,-821,-12,-5,10
75265703,-0.293701171875,0.70147705078125,-0.22161865234375,-0.61041259765625,-8056,-1372,-828,-13,-6,7
75275687,-0.2923583984375,0.701416015625,-0.220947265625,-0.61138916015625,-8086,-1350,-825,-13,-6,4
75285670,-0.291259765625,0.701416015625,-0.21990966796875,-0.61224365234375,-8112,-1349,-823,-14,-7,1
75295653,-0.290283203125,0.70135498046875,-0.2186279296875,-0.6131591796875,-8123,-1369,-817,-14,-8,0
75305636,-0.28948974609375,0.701416015625,-0.21722412109375,-0.61407470703125,-8114,-1395,-816,-14,-8,-2
75315616,-0.288818359375,0.70135498046875,-0.2156982421875,-0.61492919921875,-8103,-1409,-810,-13,-9,-3
75325598,-0.28826904296875,0.7012939453125,-0.21417236328125,-0.6158447265625,-8070,-1431,-790,-13,-9,-3
75335580,-0.28778076171875,0.70123291015625,-0.21258544921875,-0.61669921875,-8026,-1446,-763,-12,-9,-4
75345564,-0.2874755859375,0.70111083984375,-0.2110595703125,-0.61749267578125,-7992,-1448,-734,-11,-9,-5
75355546,-0.287353515625,0.70098876953125,-0.20953369140625,-0.61822509765625,-7951,-1469,-689,-10,-9,-5
75365530,-0.28729248046875,0.70086669921875,-0.2080078125,-0.618896484375,-7896,-1497,-644,-9,-8,-5
75375511,-0.287353515625,0.70068359375,-0.20672607421875,-0.61944580078125,-7860,-1512,-594,-7,-8,-5
75385494,-0.28741455078125,0.70050048828125,-0.20556640625,-0.6199951171875,-7833,-1549,-550,-6,-7,-4
75395477,-0.28753662109375,0.7003173828125,-0.2047119140625,-0.6204833984375,-7815,-1579,-518,-4,-6,-2
75405463,-0.28765869140625,0.70013427734375,-0.20404052734375,-0.620849609375,-7812,-1598,-501,-3,-5,-2
75415443,-0.287841796875,0.699951171875,-0.20367431640625,-0.62109375,-7828,-1613,-482,-1,-4,-1
