subject,Joshua Spiesman
arm,right
label,1
hz,100.17142931758447
time,5.36081

timestamp_us,q0,q1,q2,q3,ax,ay,az,gx,gy,gz
136784311,0.60614013671875,0.2353515625,-0.759765625,0.00018310546875,8619,2572,-1859,-15,-1,-13
136794298,0.6068115234375,0.235107421875,-0.75927734375,-0.00177001953125,8598,2560,-1855,-15,0,-9
136804278,0.60760498046875,0.23468017578125,-0.75872802734375,-0.00347900390625,8631,2553,-1851,-14,2,-7
136814260,0.60858154296875,0.234130859375,-0.75811767578125,-0.0050048828125,8667,2536,-1833,-14,4,-7
136824240,0.609619140625,0.2337646484375,-0.75738525390625,-0.0064697265625,8664,2489,-1810,-13,5,-8
136834231,0.61083984375,0.23358154296875,-0.7564697265625,-0.00799560546875,8628,2425,-1780,-12,6,-11
136844216,0.61212158203125,0.2335205078125,-0.75543212890625,-0.00946044921875,8576,2379,-1738,-12,8,-11
136854195,0.613525390625,0.23345947265625,-0.75433349609375,-0.0108642578125,8552,2358,-1700,-11,9,-11
136864187,0.61492919921875,0.23321533203125,-0.753173828125,-0.01202392578125,8525,2355,-1682,-11,10,-7
136874174,0.616455078125,0.23260498046875,-0.75213623046875,-0.01263427734375,8504,2367,-1679,-10,11,-2
136884154,0.6180419921875,0.2315673828125,-0.75115966796875,-0.0128173828125,8482,2368,-1677,-10,12,4
136894121,0.61968994140625,0.2301025390625,-0.75030517578125,-0.012451171875,8432,2333,-1673,-9,13,8
136904105,0.621337890625,0.22833251953125,-0.74945068359375,-0.01171875,8345,2263,-1663,-8,14,12
136914087,0.623046875,0.22637939453125,-0.74859619140625,-0.01068115234375,8218,2163,-1631,-7,15,13
136924071,0.62481689453125,0.2244873046875,-0.74774169921875,-0.009521484375,8094,2080,-1594,-7,16,13
136934055,0.6265869140625,0.22271728515625,-0.74676513671875,-0.0084228515625,8006,2013,-1541,-6,16,12
136944037,0.62847900390625,0.22113037109375,-0.7457275390625,-0.0074462890625,7954,1977,-1495,-6,17,10
136954020,0.63031005859375,0.2198486328125,-0.74456787109375,-0.00665283203125,7949,1987,-1490,-5,17,7
136964002,0.63214111328125,0.21893310546875,-0.7432861328125,-0.00604248046875,7991,2006,-1514,-5,17,3
136973992,0.63397216796875,0.2183837890625,-0.74188232421875,-0.0057373046875,8020,2011,-1537,-5,18,0
136983976,0.6358642578125,0.21820068359375,-0.74029541015625,-0.0057373046875,8067,2040,-1561,-5,19,-4
136993951,0.63775634765625,0.2183837890625,-0.73858642578125,-0.00604248046875,8119,2079,-1561,-5,20,-8
137003932,0.6397705078125,0.21881103515625,-0.73675537109375,-0.0064697265625,8166,2144,-1556,-5,20,-10
137013916,0.64178466796875,0.21929931640625,-0.73486328125,-0.007080078125,8196,2210,-1530,-5,20,-10
137023900,0.643798828125,0.2196044921875,-0.73297119140625,-0.0074462890625,8214,2270,-1481,-5,21,-7
137033880,0.6458740234375,0.2196044921875,-0.73114013671875,-0.00750732421875,8217,2323,-1406,-4,21,-3
137043870,0.64788818359375,0.21929931640625,-0.72943115234375,-0.0072021484375,8188,2363,-1329,-4,20,1
137053849,0.64990234375,0.21875,-0.72784423828125,-0.006591796875,8133,2362,-1239,-3,20,4
137063830,0.65185546875,0.21807861328125,-0.72625732421875,-0.00579833984375,8045,2350,-1153,-3,19,5
137073810,0.65380859375,0.217529296875,-0.7247314453125,-0.0050048828125,7951,2313,-1067,-1,19,4
137083794,0.6556396484375,0.2171630859375,-0.72314453125,-0.00421142578125,7834,2264,-994,-1,19,2
137093785,0.65740966796875,0.21710205078125,-0.7215576171875,-0.003662109375,7720,2232,-925,0,18,-1
137103767,0.65911865234375,0.21728515625,-0.719970703125,-0.003173828125,7606,2225,-868,1,18,-2
137113749,0.66070556640625,0.21759033203125,-0.7183837890625,-0.00262451171875,7529,2231,-850,2,17,-2
137123733,0.6622314453125,0.2178955078125,-0.7169189453125,-0.0020751953125,7477,2222,-860,2,17,-3
137133709,0.66363525390625,0.218505859375,-0.7154541015625,-0.001708984375,7431,2199,-859,3,16,-6
137143691,0.66497802734375,0.21954345703125,-0.7138671875,-0.00164794921875,7419,2184,-836,3,16,-11
137153674,0.666259765625,0.2210693359375,-0.71221923828125,-0.00201416015625,7410,2199,-826,3,15,-16
137163660,0.66741943359375,0.2230224609375,-0.71044921875,-0.00286865234375,7407,2226,-803,3,14,-21
137173640,0.6685791015625,0.22540283203125,-0.7086181640625,-0.0040283203125,7400,2270,-773,4,13,-25
137183625,0.66961669921875,0.22784423828125,-0.70684814453125,-0.0052490234375,7404,2323,-736,4,12,-25
137193612,0.67059326171875,0.230224609375,-0.70513916015625,-0.00640869140625,7429,2371,-691,4,11,-23
137203593,0.6715087890625,0.2322998046875,-0.70355224609375,-0.00726318359375,7444,2380,-659,5,11,-20
137213577,0.67236328125,0.234130859375,-0.7021484375,-0.0079345703125,7456,2350,-605,5,9,-18
137223561,0.673095703125,0.23577880859375,-0.700927734375,-0.00848388671875,7429,2287,-557,4,9,-16
137233543,0.67376708984375,0.2373046875,-0.69976806640625,-0.0089111328125,7362,2230,-498,4,7,-15
137243526,0.67431640625,0.2386474609375,-0.69873046875,-0.00921630859375,7307,2179,-435,4,6,-13
137253510,0.6748046875,0.23980712890625,-0.6978759765625,-0.00933837890625,7275,2171,-390,5,5,-10
137263493,0.67523193359375,0.2406005859375,-0.69720458984375,-0.0091552734375,7232,2172,-340,4,4,-6
137273479,0.67559814453125,0.24090576171875,-0.69677734375,-0.008544921875,7209,2169,-292,5,3,0
137283457,0.6759033203125,0.24072265625,-0.696533203125,-0.00750732421875,7188,2134,-243,5,3,5
137293439,0.67620849609375,0.240234375,-0.6964111328125,-0.006103515625,7159,2083,-191,5,2,8
137303428,0.67645263671875,0.23968505859375,-0.6964111328125,-0.00457763671875,7128,2019,-157,5,2,9
137313412,0.6766357421875,0.2391357421875,-0.6964111328125,-0.003173828125,7079,1946,-147,5,1,8
137323392,0.67669677734375,0.23883056640625,-0.6964111328125,-0.00189208984375,7061,1870,-149,5,0,5
137333370,0.6767578125,0.23876953125,-0.6964111328125,-0.0008544921875,7052,1823,-149,5,0,2
137343355,0.67681884765625,0.23895263671875,-0.6962890625,-0.0001220703125,7066,1802,-146,6,0,-1
137353334,0.6767578125,0.239501953125,-0.6961669921875,0.00042724609375,7136,1809,-157,6,-1,-4
137363315,0.6766357421875,0.240234375,-0.69598388671875,0.00067138671875,7262,1865,-189,6,-1,-7
137373298,0.67657470703125,0.2415771484375,-0.69561767578125,0.00048828125,7445,1967,-222,6,-1,-13
137383280,0.6763916015625,0.243408203125,-0.6951904296875,-0.00018310546875,7674,2135,-275,7,-2,-19
137393266,0.6761474609375,0.24591064453125,-0.6944580078125,-0.0013427734375,7931,2330,-353,8,-1,-25
137403246,0.6759033203125,0.2489013671875,-0.69366455078125,-0.0029296875,8117,2519,-421,8,-2,-29
137413236,0.67559814453125,0.251953125,-0.69287109375,-0.004638671875,8246,2694,-479,8,-2,-29
137423220,0.6751708984375,0.25482177734375,-0.69219970703125,-0.0059814453125,8326,2837,-540,9,-2,-24
137433206,0.6746826171875,0.25714111328125,-0.6917724609375,-0.0067138671875,8350,2941,-586,9,-3,-16
137443192,0.6741943359375,0.25872802734375,-0.6917724609375,-0.0067138671875,8322,3003,-632,10,-3,-7
137453178,0.673583984375,0.25946044921875,-0.6920166015625,-0.00579833984375,8252,3023,-682,10,-4,3
137463156,0.67291259765625,0.25946044921875,-0.69268798828125,-0.004150390625,8138,2989,-733,11,-4,12
137473127,0.67230224609375,0.25885009765625,-0.69354248046875,-0.0018310546875,8010,2926,-760,11,-4,19
137483109,0.67156982421875,0.2578125,-0.694580078125,0.0009765625,7870,2829,-792,11,-4,24
137493094,0.6708984375,0.25640869140625,-0.69573974609375,0.00408935546875,7738,2724,-809,11,-4,26
137503076,0.67022705078125,0.2550048828125,-0.6968994140625,0.0072021484375,7635,2638,-837,11,-4,27
137513059,0.66961669921875,0.25372314453125,-0.69793701171875,0.01025390625,7567,2565,-842,11,-3,25
137523041,0.6690673828125,0.25262451171875,-0.6988525390625,0.0130615234375,7563,2504,-844,11,-3,21
137533026,0.66851806640625,0.251953125,-0.69952392578125,0.0155029296875,7586,2452,-843,11,-2,16
137543008,0.6680908203125,0.25177001953125,-0.699951171875,0.01751708984375,7648,2401,-847,11,-1,10
137552996,0.667724609375,0.2520751953125,-0.70013427734375,0.0189208984375,7719,2380,-834,10,-1,3
137562987,0.66748046875,0.2529296875,-0.7000732421875,0.0198974609375,7807,2384,-837,10,0,-2
137572956,0.667236328125,0.25408935546875,-0.6998291015625,0.02056884765625,7920,2397,-829,10,1,-6
137582940,0.6671142578125,0.25531005859375,-0.699462890625,0.02099609375,8053,2424,-843,9,1,-7
137592922,0.6671142578125,0.25640869140625,-0.6990966796875,0.02166748046875,8195,2447,-849,9,2,-4
137602911,0.6671142578125,0.257080078125,-0.6988525390625,0.0225830078125,8310,2454,-868,9,2,0
137612889,0.6671142578125,0.2572021484375,-0.69866943359375,0.02398681640625,8388,2443,-854,8,3,6
137622878,0.66729736328125,0.25677490234375,-0.69866943359375,0.02593994140625,8442,2418,-835,8,4,13
137632856,0.66748046875,0.25567626953125,-0.69879150390625,0.02850341796875,8505,2396,-812,8,5,20
137642839,0.66766357421875,0.25421142578125,-0.698974609375,0.0313720703125,8572,2364,-785,7,5,23
137652820,0.66790771484375,0.25250244140625,-0.69921875,0.034423828125,8641,2316,-761,7,5,25
137662804,0.668212890625,0.25067138671875,-0.69940185546875,0.03753662109375,8684,2252,-726,7,6,26
137672788,0.6685791015625,0.24884033203125,-0.6995849609375,0.0406494140625,8711,2189,-711,6,7,25
137682766,0.66900634765625,0.24688720703125,-0.69970703125,0.04376220703125,8714,2096,-684,6,7,26
137692758,0.66943359375,0.24481201171875,-0.69976806640625,0.0469970703125,8675,2001,-646,5,8,27
137702742,0.669921875,0.24261474609375,-0.69989013671875,0.05029296875,8655,1899,-582,5,8,28
137712719,0.67041015625,0.2403564453125,-0.699951171875,0.0535888671875,8651,1790,-528,5,8,28
137722703,0.67095947265625,0.23809814453125,-0.69989013671875,0.05670166015625,8655,1653,-459,5,8,26
137732687,0.67156982421875,0.236083984375,-0.69976806640625,0.0595703125,8697,1546,-398,4,8,22
137742671,0.67218017578125,0.234375,-0.69952392578125,0.0621337890625,8784,1467,-366,3,8,19
137752651,0.6728515625,0.232666015625,-0.69921875,0.06451416015625,8878,1407,-346,3,8,18
137762635,0.6734619140625,0.2305908203125,-0.6990966796875,0.06719970703125,8910,1320,-328,2,8,24
137772618,0.6739501953125,0.2276611328125,-0.69921875,0.070556640625,8920,1217,-290,2,7,34
137782602,0.67425537109375,0.2237548828125,-0.69976806640625,0.07489013671875,8942,1116,-243,2,6,46
137792587,0.6744384765625,0.2188720703125,-0.70062255859375,0.080078125,8990,1003,-211,2,6,57
137802571,0.67437744140625,0.2132568359375,-0.70166015625,0.0859375,9060,868,-189,2,5,64
137812553,0.67413330078125,0.20733642578125,-0.702880859375,0.092041015625,9112,733,-176,1,4,66
137822536,0.67388916015625,0.20135498046875,-0.70404052734375,0.09820556640625,9173,603,-183,2,4,66
137832520,0.67352294921875,0.1954345703125,-0.7052001953125,0.10406494140625,9222,494,-199,1,4,64
137842503,0.67315673828125,0.18975830078125,-0.70623779296875,0.1097412109375,9289,391,-230,0,4,62
137852486,0.67279052734375,0.18389892578125,-0.70721435546875,0.11529541015625,9368,300,-243,-1,5,63
137862466,0.67236328125,0.1778564453125,-0.708251953125,0.1209716796875,9449,203,-280,-2,5,66
137872449,0.671875,0.17144775390625,-0.709228515625,0.126953125,9540,109,-294,-2,5,70
137882436,0.6712646484375,0.16461181640625,-0.7103271484375,0.13323974609375,9625,-18,-282,-2,5,75
137892421,0.67059326171875,0.15740966796875,-0.7113037109375,0.13983154296875,9695,-141,-285,-2,5,78
137902401,0.6697998046875,0.1500244140625,-0.7122802734375,0.1466064453125,9732,-260,-303,-2,6,80
137912380,0.66888427734375,0.14251708984375,-0.7132568359375,0.15338134765625,9751,-355,-324,-2,6,82
137922362,0.66796875,0.13482666015625,-0.71405029296875,0.16033935546875,9740,-432,-343,-2,7,84
137932350,0.6669921875,0.1268310546875,-0.71478271484375,0.16741943359375,9730,-532,-365,-3,8,87
137942328,0.666015625,0.1187744140625,-0.7154541015625,0.17462158203125,9757,-640,-386,-3,8,88
137952312,0.6649169921875,0.1107177734375,-0.7159423828125,0.18170166015625,9768,-784,-411,-2,9,86
137962294,0.66400146484375,0.10296630859375,-0.71624755859375,0.18853759765625,9734,-934,-414,-2,10,83
137972278,0.66314697265625,0.09564208984375,-0.71624755859375,0.19500732421875,9675,-1081,-392,-2,12,78
137982259,0.66253662109375,0.0887451171875,-0.716064453125,0.2010498046875,9650,-1177,-395,-1,13,73
137992256,0.6619873046875,0.082275390625,-0.71563720703125,0.2069091796875,9626,-1287,-410,0,14,70
138002232,0.6614990234375,0.07568359375,-0.715087890625,0.2127685546875,9613,-1395,-402,0,15,72
138012215,0.66094970703125,0.06884765625,-0.7144775390625,0.218994140625,9581,-1507,-409,0,16,77
138022195,0.66015625,0.0614013671875,-0.7137451171875,0.2257080078125,9539,-1615,-401,1,17,84
138032188,0.65911865234375,0.05340576171875,-0.71295166015625,0.23309326171875,9452,-1762,-382,1,17,91
138042174,0.657958984375,0.04498291015625,-0.71209716796875,0.2408447265625,9342,-1903,-349,2,17,95
138052155,0.65667724609375,0.03668212890625,-0.71099853515625,0.248779296875,9244,-2020,-328,4,17,94
138062126,0.6553955078125,0.0286865234375,-0.7098388671875,0.25640869140625,9177,-2112,-318,5,18,91
138072108,0.6541748046875,0.02105712890625,-0.70855712890625,0.2637939453125,9110,-2191,-321,5,18,88
138082090,0.65289306640625,0.013671875,-0.7071533203125,0.27093505859375,9003,-2268,-314,5,18,86
138092074,0.651611328125,0.0062255859375,-0.7056884765625,0.27813720703125,8870,-2344,-299,5,18,88
138102058,0.65008544921875,-0.0013427734375,-0.70416259765625,0.2855224609375,8744,-2434,-279,6,17,90
138112041,0.6484375,-0.00897216796875,-0.70257568359375,0.29296875,8646,-2536,-252,6,17,91
138122024,0.646728515625,-0.01654052734375,-0.70086669921875,0.30035400390625,8600,-2627,-245,6,17,90
138132006,0.64501953125,-0.02374267578125,-0.69921875,0.307373046875,8601,-2723,-244,6,17,86
138141994,0.64349365234375,-0.030517578125,-0.69744873046875,0.3138427734375,8593,-2826,-243,5,17,81
138151977,0.64202880859375,-0.03704833984375,-0.69573974609375,0.32000732421875,8536,-2925,-238,5,17,79
138161954,0.64031982421875,-0.04376220703125,-0.69403076171875,0.326171875,8405,-3035,-207,4,16,81
138171936,0.6383056640625,-0.051025390625,-0.6922607421875,0.33270263671875,8268,-3144,-188,3,16,87
138181920,0.63592529296875,-0.05877685546875,-0.6904296875,0.33966064453125,8109,-3289,-135,3,15,93
138191903,0.63330078125,-0.06683349609375,-0.68853759765625,0.346923828125,7974,-3446,-90,3,14,96
138201886,0.6304931640625,-0.0748291015625,-0.6866455078125,0.35406494140625,7881,-3616,-48,3,14,95
138211868,0.62774658203125,-0.08258056640625,-0.68463134765625,0.36102294921875,7757,-3804,-18,3,13,91
138221852,0.625,-0.09002685546875,-0.68267822265625,0.36767578125,7588,-3986,10,3,13,87
138231834,0.62237548828125,-0.09722900390625,-0.6806640625,0.37396240234375,7428,-4160,50,3,13,84
138241817,0.6197509765625,-0.104248046875,-0.6785888671875,0.380126953125,7280,-4332,78,3,13,83
138251799,0.6170654296875,-0.11126708984375,-0.6763916015625,0.38641357421875,7133,-4490,127,4,13,84
138261784,0.61419677734375,-0.1185302734375,-0.674072265625,0.39288330078125,6999,-4641,179,4,13,88
138271772,0.61102294921875,-0.1260986328125,-0.6715087890625,0.3997802734375,6868,-4792,215,5,13,92
138281756,0.60772705078125,-0.13385009765625,-0.66876220703125,0.40679931640625,6756,-4923,244,6,14,94
138291737,0.6044921875,-0.14129638671875,-0.6658935546875,0.4136962890625,6682,-5037,256,7,14,91
138301714,0.60162353515625,-0.148193359375,-0.66302490234375,0.4200439453125,6648,-5143,257,7,16,84
138311698,0.59912109375,-0.154541015625,-0.66015625,0.42584228515625,6598,-5252,260,8,17,78
138321679,0.596923828125,-0.1605224609375,-0.6572265625,0.4312744140625,6538,-5344,277,8,18,75
138331665,0.5946044921875,-0.1666259765625,-0.65411376953125,0.43682861328125,6394,-5451,316,9,18,77
138341646,0.59197998046875,-0.17315673828125,-0.65069580078125,0.44293212890625,6206,-5539,354,9,18,84
138351635,0.58880615234375,-0.18023681640625,-0.6470947265625,0.4495849609375,5980,-5622,368,10,17,91
138361615,0.58526611328125,-0.1876220703125,-0.64324951171875,0.45660400390625,5776,-5688,385,11,17,95
138371597,0.581787109375,-0.19476318359375,-0.63934326171875,0.46343994140625,5622,-5765,403,12,17,91
138381580,0.57867431640625,-0.2012939453125,-0.63555908203125,0.46978759765625,5484,-5876,431,12,17,83
138391563,0.57598876953125,-0.20703125,-0.6318359375,0.47552490234375,5354,-5993,471,13,17,75
138401547,0.57354736328125,-0.21234130859375,-0.628173828125,0.48095703125,5190,-6106,525,14,17,71
138411529,0.571044921875,-0.217529296875,-0.6243896484375,0.48651123046875,5020,-6178,553,15,16,72
138421512,0.56817626953125,-0.22296142578125,-0.62042236328125,0.492431640625,4794,-6221,591,16,15,78
138431496,0.56475830078125,-0.22882080078125,-0.61627197265625,0.4989013671875,4542,-6220,621,16,14,84
138441479,0.56085205078125,-0.23504638671875,-0.6119384765625,0.50567626953125,4314,-6231,651,17,13,89
138451461,0.556884765625,-0.2410888671875,-0.6075439453125,0.51251220703125,4166,-6246,666,17,12,87
138461449,0.55328369140625,-0.24658203125,-0.603271484375,0.518798828125,4116,-6289,730,18,13,81
138471433,0.55023193359375,-0.2513427734375,-0.59918212890625,0.52447509765625,4071,-6329,798,18,13,71
138481415,0.547607421875,-0.25555419921875,-0.59527587890625,0.529541015625,4024,-6349,856,17,13,65
138491398,0.545166015625,-0.25946044921875,-0.591552734375,0.5343017578125,3912,-6348,902,16,12,63
138501374,0.54254150390625,-0.2635498046875,-0.58782958984375,0.5390625,3765,-6324,926,15,12,64
138511358,0.53961181640625,-0.2679443359375,-0.58404541015625,0.5439453125,3589,-6313,952,14,12,68
138521343,0.53619384765625,-0.2728271484375,-0.5802001953125,0.54901123046875,3405,-6302,961,12,12,73
138531327,0.5323486328125,-0.278076171875,-0.576171875,0.5543212890625,3270,-6320,1005,11,12,78
138541309,0.52838134765625,-0.28363037109375,-0.572021484375,0.5595703125,3188,-6373,1050,10,12,80
138551293,0.5244140625,-0.2889404296875,-0.56805419921875,0.5645751953125,3126,-6447,1107,9,12,76
138561274,0.5208740234375,-0.2939453125,-0.56427001953125,0.569091796875,3016,-6491,1150,8,12,70
138571258,0.5177001953125,-0.298583984375,-0.560791015625,0.572998046875,2866,-6509,1191,6,13,63
138581239,0.51458740234375,-0.30316162109375,-0.5574951171875,0.57659912109375,2681,-6558,1225,4,12,60
138591229,0.51129150390625,-0.307861328125,-0.55419921875,0.5802001953125,2483,-6607,1242,3,12,63
138601211,0.507568359375,-0.31298828125,-0.55084228515625,0.583984375,2287,-6684,1266,2,12,69
138611193,0.503173828125,-0.31866455078125,-0.547119140625,0.58819580078125,2062,-6765,1305,2,11,76
138621183,0.4981689453125,-0.32464599609375,-0.543212890625,0.5927734375,1855,-6848,1367,1,10,82
138631166,0.49285888671875,-0.33074951171875,-0.539306640625,0.597412109375,1654,-6908,1393,0,9,83
138641142,0.487548828125,-0.33660888671875,-0.535400390625,0.6019287109375,1424,-6942,1434,0,8,79
138651119,0.4825439453125,-0.34210205078125,-0.53173828125,0.6060791015625,1254,-6997,1461,0,7,74
138661102,0.47784423828125,-0.34710693359375,-0.52838134765625,0.60992431640625,1134,-7076,1473,0,7,68
138671086,0.47344970703125,-0.3516845703125,-0.52520751953125,0.6134033203125,1081,-7177,1486,0,6,65
138681068,0.46917724609375,-0.35601806640625,-0.52215576171875,0.6168212890625,1034,-7264,1511,0,5,63
138691051,0.4647216796875,-0.36029052734375,-0.5191650390625,0.6202392578125,1010,-7356,1506,0,4,65
138701033,0.46014404296875,-0.364501953125,-0.51617431640625,0.62371826171875,955,-7406,1512,0,3,66
138711015,0.455322265625,-0.36871337890625,-0.51312255859375,0.627197265625,894,-7443,1474,0,2,67
138720997,0.4503173828125,-0.37310791015625,-0.51007080078125,0.6307373046875,814,-7476,1472,-1,2,69
138730988,0.445068359375,-0.37762451171875,-0.50677490234375,0.6343994140625,703,-7509,1457,0,3,72
138740964,0.43951416015625,-0.3824462890625,-0.503173828125,0.63824462890625,546,-7525,1449,0,3,77
138750946,0.43353271484375,-0.3875732421875,-0.499267578125,0.642333984375,342,-7529,1460,0,3,81
138760929,0.4273681640625,-0.392822265625,-0.4951171875,0.646484375,117,-7510,1479,1,4,82
138770911,0.42132568359375,-0.39794921875,-0.49090576171875,0.6505126953125,-84,-7453,1491,1,4,79
138780896,0.415771484375,-0.40264892578125,-0.48687744140625,0.6541748046875,-245,-7393,1509,1,5,73
138790878,0.41094970703125,-0.40692138671875,-0.48321533203125,0.65728759765625,-350,-7347,1502,1,6,64
138800861,0.4068603515625,-0.41070556640625,-0.47991943359375,0.659912109375,-435,-7356,1506,1,7,56
138810843,0.4031982421875,-0.414306640625,-0.47674560546875,0.66217041015625,-543,-7375,1512,1,8,54
138820826,0.3992919921875,-0.4180908203125,-0.473388671875,0.66461181640625,-688,-7397,1525,2,8,58
138830809,0.39471435546875,-0.42230224609375,-0.46942138671875,0.66741943359375,-875,-7398,1537,3,8,66
138840792,0.3895263671875,-0.4268798828125,-0.4649658203125,0.67071533203125,-1053,-7390,1544,4,8,74
138850773,0.38397216796875,-0.43170166015625,-0.4600830078125,0.6741943359375,-1215,-7353,1559,5,8,78
138860763,0.37835693359375,-0.43646240234375,-0.455078125,0.67767333984375,-1357,-7299,1577,5,8,76
138870750,0.37322998046875,-0.44091796875,-0.45025634765625,0.68084716796875,-1493,-7255,1595,6,9,71
138880734,0.3685302734375,-0.44500732421875,-0.4456787109375,0.68377685546875,-1652,-7226,1593,6,9,65
138890708,0.36431884765625,-0.44879150390625,-0.4412841796875,0.68634033203125,-1827,-7168,1599,7,9,59
138900692,0.36053466796875,-0.4522705078125,-0.43707275390625,0.68878173828125,-1993,-7096,1604,7,9,55
138910676,0.35693359375,-0.45556640625,-0.43304443359375,0.6910400390625,-2114,-6994,1611,7,9,52
138920657,0.35357666015625,-0.45867919921875,-0.42913818359375,0.69317626953125,-2208,-6892,1626,6,9,50
138930640,0.35015869140625,-0.4617919921875,-0.42529296875,0.6951904296875,-2292,-6800,1636,6,9,50
138940623,0.34661865234375,-0.4649658203125,-0.42132568359375,0.69720458984375,-2374,-6738,1637,6,9,52
138950607,0.3427734375,-0.46832275390625,-0.4173583984375,0.69927978515625,-2466,-6707,1639,5,9,55
138960590,0.33880615234375,-0.47174072265625,-0.413330078125,0.7012939453125,-2559,-6655,1634,4,9,56
138970572,0.33465576171875,-0.4752197265625,-0.4093017578125,0.70330810546875,-2683,-6593,1614,3,9,56
138980554,0.33050537109375,-0.4786376953125,-0.4053955078125,0.7052001953125,-2782,-6537,1611,2,8,54
138990542,0.32635498046875,-0.48193359375,-0.40167236328125,0.70703125,-2877,-6491,1611,1,8,53
139000518,0.32220458984375,-0.48516845703125,-0.39813232421875,0.708740234375,-2966,-6459,1611,0,7,52
139010501,0.31793212890625,-0.4884033203125,-0.39459228515625,0.71038818359375,-3057,-6442,1599,-1,7,53
139020483,0.31341552734375,-0.49169921875,-0.39105224609375,0.71209716796875,-3170,-6421,1596,-1,6,55
139030467,0.30865478515625,-0.49505615234375,-0.387451171875,0.71380615234375,-3266,-6394,1566,-1,6,57
139040450,0.30377197265625,-0.4984130859375,-0.3837890625,0.715576171875,-3376,-6350,1554,-2,5,58
139050438,0.298828125,-0.501708984375,-0.3802490234375,0.71722412109375,-3466,-6292,1549,-3,5,57
139060421,0.29400634765625,-0.5048828125,-0.3768310546875,0.71881103515625,-3553,-6268,1548,-3,5,55
139070402,0.2891845703125,-0.5079345703125,-0.37359619140625,0.72027587890625,-3634,-6252,1537,-4,4,54
139080380,0.28424072265625,-0.51092529296875,-0.370361328125,0.7218017578125,-3723,-6278,1545,-5,4,55
139090362,0.2791748046875,-0.513916015625,-0.3671875,0.7232666015625,-3810,-6280,1539,-5,3,56
139100350,0.2740478515625,-0.516845703125,-0.36395263671875,0.7247314453125,-3924,-6249,1518,-6,2,56
139110329,0.2686767578125,-0.51983642578125,-0.36077880859375,0.72625732421875,-4031,-6192,1495,-6,1,57
139120310,0.26312255859375,-0.52276611328125,-0.35748291015625,0.727783203125,-4157,-6134,1469,-6,1,59
139130293,0.25726318359375,-0.52569580078125,-0.3541259765625,0.72943115234375,-4248,-6085,1448,-7,0,61
139140274,0.25115966796875,-0.52862548828125,-0.35064697265625,0.7310791015625,-4348,-6038,1449,-8,-1,64
139150256,0.24462890625,-0.53167724609375,-0.3470458984375,0.73284912109375,-4460,-6003,1435,-8,-2,67
139160243,0.2379150390625,-0.53460693359375,-0.3433837890625,0.734619140625,-4591,-5954,1424,-8,-3,68
139170228,0.23114013671875,-0.5374755859375,-0.33966064453125,0.73638916015625,-4720,-5896,1404,-8,-4,67
139180212,0.22442626953125,-0.5401611328125,-0.336181640625,0.7381591796875,-4844,-5827,1382,-9,-5,65
139190192,0.2178955078125,-0.54266357421875,-0.33294677734375,0.73974609375,-4941,-5743,1377,-9,-5,61
139200182,0.211669921875,-0.54486083984375,-0.32989501953125,0.74127197265625,-5010,-5676,1372,-10,-6,59
139210165,0.2054443359375,-0.5469970703125,-0.3270263671875,0.74273681640625,-5102,-5612,1359,-10,-7,58
139220142,0.19903564453125,-0.549072265625,-0.32403564453125,0.7442626953125,-5195,-5542,1344,-10,-7,61
139230118,0.19219970703125,-0.55120849609375,-0.3206787109375,0.74591064453125,-5297,-5468,1355,-10,-9,65
139240100,0.1849365234375,-0.5533447265625,-0.31707763671875,0.7476806640625,-5407,-5384,1346,-10,-9,69
139250083,0.17730712890625,-0.5555419921875,-0.31329345703125,0.74951171875,-5514,-5283,1335,-10,-10,71
139260067,0.16961669921875,-0.55767822265625,-0.30938720703125,0.7513427734375,-5610,-5171,1334,-10,-11,71
139270051,0.16204833984375,-0.55963134765625,-0.3055419921875,0.75311279296875,-5727,-5054,1356,-10,-11,70
139280033,0.15460205078125,-0.5614013671875,-0.3017578125,0.7548828125,-5815,-4934,1377,-9,-12,68
139290015,0.14727783203125,-0.56304931640625,-0.298095703125,0.756591796875,-5908,-4827,1423,-9,-12,66
139299997,0.13995361328125,-0.5645751953125,-0.29437255859375,0.75830078125,-6011,-4721,1457,-9,-13,66
139309987,0.13262939453125,-0.56597900390625,-0.29058837890625,0.760009765625,-6100,-4610,1479,-9,-13,67
139319965,0.125244140625,-0.56732177734375,-0.2867431640625,0.76171875,-6177,-4495,1491,-9,-14,67
139329948,0.117919921875,-0.56854248046875,-0.282958984375,0.76336669921875,-6214,-4364,1499,-8,-14,65
139339931,0.11083984375,-0.56964111328125,-0.279296875,0.76495361328125,-6240,-4229,1518,-9,-14,62
139349913,0.10394287109375,-0.5706787109375,-0.27581787109375,0.7664794921875,-6281,-4103,1559,-9,-14,61
139359895,0.0970458984375,-0.57159423828125,-0.2724609375,0.76788330078125,-6338,-3993,1600,-10,-13,60
139369881,0.09002685546875,-0.572509765625,-0.26898193359375,0.76922607421875,-6424,-3895,1606,-10,-14,62
139379862,0.08270263671875,-0.5736083984375,-0.2652587890625,0.77056884765625,-6517,-3778,1604,-10,-14,66
139389844,0.0748291015625,-0.57476806640625,-0.26123046875,0.77191162109375,-6609,-3641,1592,-11,-14,70
139399826,0.0667724609375,-0.57586669921875,-0.25714111328125,0.77313232421875,-6676,-3509,1598,-11,-14,71
139409812,0.05877685546875,-0.57696533203125,-0.25311279296875,0.77435302734375,-6753,-3380,1619,-11,-14,70
139419792,0.05096435546875,-0.577880859375,-0.24920654296875,0.7755126953125,-6826,-3248,1643,-12,-14,67
139429773,0.043212890625,-0.57867431640625,-0.24542236328125,0.77655029296875,-6916,-3132,1678,-12,-15,66
139439765,0.03558349609375,-0.57940673828125,-0.24176025390625,0.77752685546875,-7016,-2994,1705,-12,-14,65
139449747,0.02777099609375,-0.5802001953125,-0.23797607421875,0.7784423828125,-7123,-2856,1712,-13,-14,66
139459731,0.019775390625,-0.5809326171875,-0.23419189453125,0.779296875,-7229,-2691,1700,-14,-15,67
139469709,0.01177978515625,-0.5816650390625,-0.23046875,0.780029296875,-7302,-2519,1679,-14,-15,66
139479690,0.00390625,-0.582275390625,-0.2269287109375,0.78070068359375,-7363,-2339,1692,-15,-15,63
139489674,-0.00360107421875,-0.5826416015625,-0.2237548828125,0.78131103515625,-7419,-2183,1718,-16,-15,58
139499657,-0.0107421875,-0.5828857421875,-0.22088623046875,0.7818603515625,-7468,-2047,1752,-16,-15,54
139509639,-0.017578125,-0.58294677734375,-0.21832275390625,0.78240966796875,-7552,-1927,1798,-16,-15,51
139519621,-0.024169921875,-0.58294677734375,-0.21588134765625,0.782958984375,-7638,-1802,1836,-17,-16,49
139529607,-0.03082275390625,-0.5828857421875,-0.21343994140625,0.78338623046875,-7726,-1687,1847,-17,-15,49
139539589,-0.03753662109375,-0.58282470703125,-0.2109375,0.7838134765625,-7783,-1562,1866,-17,-16,50
139549571,-0.04437255859375,-0.58270263671875,-0.20843505859375,0.78424072265625,-7846,-1460,1913,-17,-16,50
139559555,-0.051025390625,-0.58245849609375,-0.20599365234375,0.78466796875,-7897,-1375,1981,-17,-16,48
139569542,-0.0572509765625,-0.58197021484375,-0.203857421875,0.78515625,-7931,-1321,2052,-17,-17,44
139579518,-0.06304931640625,-0.58135986328125,-0.2020263671875,0.78564453125,-7977,-1301,2127,-17,-17,40
139589500,-0.068359375,-0.58056640625,-0.200439453125,0.78619384765625,-8040,-1285,2179,-16,-17,36
139599484,-0.07330322265625,-0.5797119140625,-0.198974609375,0.7867431640625,-8094,-1265,2205,-15,-17,33
139609468,-0.077880859375,-0.57867431640625,-0.19775390625,0.787353515625,-8104,-1252,2227,-14,-18,29
139619452,-0.0819091796875,-0.57757568359375,-0.19677734375,0.78802490234375,-8077,-1208,2244,-14,-18,24
139629435,-0.08544921875,-0.57623291015625,-0.1961669921875,0.78875732421875,-8029,-1212,2282,-13,-18,19
139639426,-0.08843994140625,-0.5748291015625,-0.19573974609375,0.78955078125,-7978,-1227,2333,-12,-17,15
139649411,-0.0911865234375,-0.5733642578125,-0.19549560546875,0.7904052734375,-7922,-1271,2364,-11,-17,14
139659395,-0.09368896484375,-0.5718994140625,-0.1951904296875,0.791259765625,-7881,-1351,2402,-11,-18,14
139669370,-0.09619140625,-0.57037353515625,-0.19482421875,0.7921142578125,-7835,-1412,2407,-9,-18,14
139679354,-0.0985107421875,-0.56884765625,-0.19439697265625,0.79302978515625,-7773,-1457,2418,-8,-18,13
139689336,-0.10040283203125,-0.5672607421875,-0.194091796875,0.79400634765625,-7698,-1505,2431,-7,-18,9
139699317,-0.101806640625,-0.56561279296875,-0.1939697265625,0.7950439453125,-7621,-1541,2442,-6,-17,4
139709299,-0.1025390625,-0.56390380859375,-0.1942138671875,0.796142578125,-7558,-1561,2455,-5,-17,-1
139719279,-0.10284423828125,-0.5621337890625,-0.194580078125,0.7972412109375,-7512,-1592,2460,-4,-17,-4
139729261,-0.1029052734375,-0.5604248046875,-0.19500732421875,0.79833984375,-7443,-1606,2472,-3,-16,-5
139739240,-0.1029052734375,-0.5587158203125,-0.1953125,0.7994384765625,-7375,-1608,2488,-2,-15,-5
139749230,-0.10284423828125,-0.55718994140625,-0.19561767578125,0.80047607421875,-7270,-1613,2480,-2,-14,-5
139759213,-0.10272216796875,-0.55572509765625,-0.1959228515625,0.8013916015625,-7178,-1613,2471,-1,-13,-5
139769191,-0.1025390625,-0.554443359375,-0.1961669921875,0.80224609375,-7087,-1618,2475,-1,-11,-5
139779183,-0.10235595703125,-0.5533447265625,-0.19647216796875,0.802978515625,-7042,-1645,2471,-1,-9,-4
139789166,-0.10235595703125,-0.552490234375,-0.19671630859375,0.803466796875,-7044,-1688,2465,-2,-7,-2
139799160,-0.1025390625,-0.55194091796875,-0.19677734375,0.8038330078125,-7076,-1742,2460,-2,-6,1
139809125,-0.1029052734375,-0.55157470703125,-0.19677734375,0.80401611328125,-7079,-1769,2436,-2,-4,3
139819109,-0.10333251953125,-0.5513916015625,-0.19677734375,0.8040771484375,-7095,-1799,2424,-2,-2,3
139829094,-0.103515625,-0.5513916015625,-0.19696044921875,0.80401611328125,-7099,-1831,2436,-3,0,0
139839073,-0.10333251953125,-0.55145263671875,-0.197509765625,0.80389404296875,-7110,-1880,2465,-3,2,-3
139849052,-0.10272216796875,-0.5516357421875,-0.19830322265625,0.80364990234375,-7128,-1896,2483,-3,4,-7
139859038,-0.1019287109375,-0.55181884765625,-0.19921875,0.8033447265625,-7149,-1923,2510,-3,5,-8
139869020,-0.10107421875,-0.55218505859375,-0.2001953125,0.802978515625,-7181,-1954,2524,-3,7,-8
139879003,-0.10028076171875,-0.552734375,-0.20111083984375,0.802490234375,-7219,-1952,2540,-3,8,-7
139888992,-0.09954833984375,-0.5533447265625,-0.20196533203125,0.80194091796875,-7249,-1962,2549,-3,9,-7
139898975,-0.0987548828125,-0.55401611328125,-0.20281982421875,0.8013916015625,-7267,-1954,2566,-3,9,-7
139908950,-0.097900390625,-0.55474853515625,-0.20367431640625,0.80072021484375,-7288,-1951,2583,-3,10,-7
139918933,-0.09710693359375,-0.5555419921875,-0.2044677734375,0.80010986328125,-7328,-1961,2575,-2,11,-7
139928917,-0.09637451171875,-0.55645751953125,-0.2052001953125,0.79937744140625,-7386,-1973,2560,-2,11,-5
139938899,-0.09588623046875,-0.557373046875,-0.20574951171875,0.79864501953125,-7433,-1987,2544,-2,10,-3
139948887,-0.09564208984375,-0.558349609375,-0.2060546875,0.79791259765625,-7490,-1975,2529,-2,11,0
139958865,-0.09552001953125,-0.55938720703125,-0.20623779296875,0.79718017578125,-7539,-1965,2515,-1,10,0
139968852,-0.09521484375,-0.560302734375,-0.2064208984375,0.7965087890625,-7582,-1967,2505,-1,10,-1
139978834,-0.09466552734375,-0.56109619140625,-0.206787109375,0.7958984375,-7626,-1951,2507,0,9,-5
139988814,-0.09368896484375,-0.56170654296875,-0.20733642578125,0.79541015625,-7674,-1927,2511,0,8,-9
139998795,-0.09222412109375,-0.56219482421875,-0.2081298828125,0.7950439453125,-7694,-1895,2511,0,8,-14
140008784,-0.090576171875,-0.56256103515625,-0.2091064453125,0.79473876953125,-7698,-1873,2504,1,7,-16
140018770,-0.08892822265625,-0.5628662109375,-0.2099609375,0.79449462890625,-7688,-1831,2482,1,7,-15
140028752,-0.08740234375,-0.56317138671875,-0.21075439453125,0.79425048828125,-7665,-1783,2462,1,6,-14
140038734,-0.08612060546875,-0.56353759765625,-0.21136474609375,0.7939453125,-7633,-1726,2417,1,6,-12
140048713,-0.08489990234375,-0.56390380859375,-0.21197509765625,0.79364013671875,-7607,-1663,2405,0,6,-12
140058694,-0.0836181640625,-0.564208984375,-0.21258544921875,0.79339599609375,-7589,-1603,2397,0,6,-13
140068675,-0.0821533203125,-0.564453125,-0.21337890625,0.79315185546875,-7562,-1551,2383,0,6,-16
140078660,-0.08038330078125,-0.564697265625,-0.2144775390625,0.7928466796875,-7556,-1503,2388,0,7,-19
140088643,-0.07830810546875,-0.56488037109375,-0.2158203125,0.7926025390625,-7545,-1471,2373,-1,7,-23
140098624,-0.0760498046875,-0.5650634765625,-0.21734619140625,0.792236328125,-7531,-1439,2357,-1,8,-25
140108606,-0.0736083984375,-0.56524658203125,-0.21905517578125,0.7918701171875,-7526,-1403,2345,-2,8,-27
140121995,-0.07098388671875,-0.5654296875,-0.22088623046875,0.79150390625,-7530,-1391,2336,-2,9,-29
140128573,-0.06829833984375,-0.5655517578125,-0.22296142578125,0.79107666015625,-7535,-1406,2327,-3,9,-31
140138555,-0.0653076171875,-0.5655517578125,-0.2252197265625,0.7906494140625,-7538,-1432,2308,-3,9,-34
140148542,-0.06207275390625,-0.56561279296875,-0.227783203125,0.7901611328125,-7519,-1461,2293,-4,10,-36
140158522,-0.0587158203125,-0.5655517578125,-0.23052978515625,0.7896728515625,-7478,-1501,2268,-5,10,-39
140168504,-0.05511474609375,-0.56549072265625,-0.23345947265625,0.78912353515625,-7457,-1557,2246,-5,11,-40
140178487,-0.0516357421875,-0.5654296875,-0.23651123046875,0.7884521484375,-7453,-1629,2216,-6,11,-39
140188471,-0.048095703125,-0.5654296875,-0.239501953125,0.78778076171875,-7452,-1707,2187,-6,11,-39
140198455,-0.04461669921875,-0.5654296875,-0.2425537109375,0.78704833984375,-7461,-1791,2151,-6,11,-40
140208435,-0.04107666015625,-0.56536865234375,-0.24578857421875,0.78631591796875,-7428,-1877,2120,-7,11,-41
140218430,-0.03729248046875,-0.5653076171875,-0.2491455078125,0.78546142578125,-7391,-1957,2078,-7,12,-43
140228412,-0.03326416015625,-0.565185546875,-0.2528076171875,0.7845458984375,-7341,-2048,2035,-8,13,-46
140238396,-0.02899169921875,-0.56500244140625,-0.2567138671875,0.7835693359375,-7286,-2147,1976,-9,13,-49
140248373,-0.02459716796875,-0.5648193359375,-0.26080322265625,0.78253173828125,-7245,-2251,1916,-9,13,-50
140258354,-0.02008056640625,-0.56451416015625,-0.26495361328125,0.781494140625,-7205,-2367,1858,-9,13,-51
140268338,-0.0155029296875,-0.56427001953125,-0.26910400390625,0.7803955078125,-7168,-2483,1811,-9,14,-51
140278322,-0.0107421875,-0.56396484375,-0.27337646484375,0.7791748046875,-7120,-2587,1749,-9,14,-53
140288305,-0.00567626953125,-0.5634765625,-0.27783203125,0.7779541015625,-7059,-2684,1691,-9,14,-57
140298293,-0.00018310546875,-0.56292724609375,-0.28265380859375,0.77667236328125,-6978,-2783,1640,-9,14,-62
140308270,0.0057373046875,-0.5621337890625,-0.2877197265625,0.77532958984375,-6896,-2887,1578,-9,14,-65
140318256,0.011962890625,-0.56134033203125,-0.29290771484375,0.77392578125,-6833,-3009,1520,-8,15,-67
140328242,0.01812744140625,-0.56048583984375,-0.298095703125,0.7724609375,-6774,-3152,1478,-8,15,-66
140338225,0.02410888671875,-0.55963134765625,-0.3031005859375,0.77093505859375,-6717,-3282,1448,-8,14,-64
140348207,0.030029296875,-0.55877685546875,-0.30792236328125,0.76947021484375,-6643,-3406,1411,-7,14,-62
140358195,0.035888671875,-0.55792236328125,-0.31256103515625,0.7679443359375,-6573,-3498,1366,-6,14,-63
140368180,0.0419921875,-0.55694580078125,-0.31732177734375,0.76641845703125,-6479,-3586,1341,-6,14,-65
140378163,0.04852294921875,-0.5557861328125,-0.322265625,0.7647705078125,-6375,-3678,1311,-6,15,-69
140388142,0.05535888671875,-0.55450439453125,-0.32745361328125,0.76300048828125,-6295,-3791,1273,-5,15,-72
140398117,0.06243896484375,-0.5531005859375,-0.332763671875,0.76123046875,-6216,-3901,1244,-5,16,-74
140408103,0.06964111328125,-0.5516357421875,-0.3380126953125,0.75933837890625,-6153,-4029,1203,-5,15,-74
140418085,0.07672119140625,-0.55023193359375,-0.3431396484375,0.75738525390625,-6066,-4154,1184,-4,16,-72
140428070,0.08367919921875,-0.548828125,-0.34808349609375,0.75543212890625,-5978,-4269,1160,-4,16,-71
140438052,0.0906982421875,-0.54736328125,-0.3529052734375,0.75341796875,-5875,-4366,1143,-3,16,-72
140448034,0.09796142578125,-0.5457763671875,-0.3577880859375,0.7513427734375,-5756,-4460,1130,-3,17,-74
140458018,0.1055908203125,-0.5439453125,-0.3629150390625,0.74920654296875,-5664,-4568,1133,-3,17,-78
140467998,0.113525390625,-0.5419921875,-0.3681640625,0.74688720703125,-5571,-4677,1116,-3,17,-80
140477989,0.12139892578125,-0.5400390625,-0.3734130859375,0.74444580078125,-5515,-4789,1085,-3,17,-80
140487965,0.12908935546875,-0.53814697265625,-0.37847900390625,0.741943359375,-5434,-4905,1051,-3,17,-78
140497947,0.13653564453125,-0.536376953125,-0.38323974609375,0.73944091796875,-5330,-5007,1032,-2,18,-74
140507932,0.143798828125,-0.53460693359375,-0.3878173828125,0.73699951171875,-5208,-5088,1030,-2,17,-73
140517912,0.15106201171875,-0.53277587890625,-0.392333984375,0.73443603515625,-5080,-5168,1026,-2,18,-73
140527897,0.15863037109375,-0.53082275390625,-0.39703369140625,0.73175048828125,-4930,-5242,1027,-2,19,-76
140537881,0.16644287109375,-0.52874755859375,-0.40191650390625,0.72882080078125,-4812,-5323,1005,-3,19,-80
140547863,0.17437744140625,-0.526611328125,-0.406982421875,0.7257080078125,-4703,-5396,965,-4,20,-81
140557845,0.18212890625,-0.52459716796875,-0.41180419921875,0.7225341796875,-4591,-5487,945,-4,20,-77
140567829,0.18951416015625,-0.52276611328125,-0.4163818359375,0.7193603515625,-4459,-5591,916,-4,21,-73
140577810,0.19671630859375,-0.52099609375,-0.42071533203125,0.71612548828125,-4298,-5713,907,-4,21,-71
140587792,0.20391845703125,-0.51922607421875,-0.42510986328125,0.71282958984375,-4147,-5838,878,-4,21,-72
140597775,0.21136474609375,-0.5172119140625,-0.42962646484375,0.7093505859375,-4010,-5937,853,-4,22,-75
140607766,0.21917724609375,-0.5150146484375,-0.4344482421875,0.7056884765625,-3902,-6035,819,-5,21,-80
140617748,0.2274169921875,-0.512451171875,-0.43951416015625,0.7017822265625,-3788,-6149,773,-5,22,-85
140627732,0.23590087890625,-0.50970458984375,-0.44476318359375,0.69769287109375,-3689,-6276,738,-4,22,-88
140637708,0.24444580078125,-0.50689697265625,-0.44989013671875,0.6934814453125,-3578,-6448,701,-4,22,-87
140647692,0.25286865234375,-0.50396728515625,-0.45489501953125,0.6893310546875,-3456,-6622,679,-3,21,-85
140657671,0.26104736328125,-0.5009765625,-0.45953369140625,0.68536376953125,-3329,-6759,648,-2,20,-82
140667655,0.26873779296875,-0.49810791015625,-0.46392822265625,0.6815185546875,-3240,-6866,611,-1,19,-78
140677647,0.276123046875,-0.4952392578125,-0.46795654296875,0.6778564453125,-3160,-6952,567,0,17,-75
140687629,0.2833251953125,-0.4923095703125,-0.471923828125,0.67425537109375,-3065,-7039,516,1,16,-75
140697610,0.29071044921875,-0.48907470703125,-0.47589111328125,0.670654296875,-2928,-7134,493,2,15,-78
140707592,0.29840087890625,-0.48541259765625,-0.4801025390625,0.6669921875,-2758,-7220,479,2,14,-82
140717575,0.306396484375,-0.4813232421875,-0.484375,0.6632080078125,-2568,-7302,472,4,13,-85
140727559,0.314453125,-0.47698974609375,-0.4886474609375,0.659423828125,-2376,-7358,495,5,12,-85
140737542,0.322265625,-0.4725341796875,-0.49273681640625,0.65576171875,-2186,-7382,493,5,11,-83
140747525,0.3299560546875,-0.46807861328125,-0.49664306640625,0.6522216796875,-1994,-7381,464,6,10,-81
140757508,0.33758544921875,-0.46356201171875,-0.50054931640625,0.6485595703125,-1735,-7359,429,6,10,-82
140767490,0.34552001953125,-0.458740234375,-0.5045166015625,0.6446533203125,-1454,-7357,391,7,11,-86
140777473,0.35394287109375,-0.45367431640625,-0.50872802734375,0.640380859375,-1196,-7378,359,7,12,-90
140787456,0.36260986328125,-0.44842529296875,-0.512939453125,0.6358642578125,-1003,-7410,361,7,13,-93
140797436,0.37127685546875,-0.44317626953125,-0.5169677734375,0.63128662109375,-886,-7436,383,7,14,-92
140807428,0.37939453125,-0.438232421875,-0.52056884765625,0.62689208984375,-844,-7415,403,7,13,-86
140817411,0.38665771484375,-0.43377685546875,-0.523681640625,0.62298583984375,-863,-7360,393,8,12,-77
140827394,0.39312744140625,-0.429931640625,-0.526123046875,0.6195068359375,-879,-7280,399,8,12,-68
140837370,0.39910888671875,-0.4263916015625,-0.5281982421875,0.61639404296875,-776,-7238,419,9,11,-62
140847354,0.40533447265625,-0.4224853515625,-0.53033447265625,0.6131591796875,-576,-7238,472,10,11,-67
140857337,0.41253662109375,-0.4176025390625,-0.53302001953125,0.60931396484375,-327,-7231,534,10,11,-82
140867320,0.4210205078125,-0.4114990234375,-0.53668212890625,0.60443115234375,-105,-7184,545,10,11,-99
140877302,0.43035888671875,-0.4044189453125,-0.54107666015625,0.59869384765625,18,-7086,553,8,10,-113
140887286,0.43975830078125,-0.39697265625,-0.54583740234375,0.592529296875,36,-6965,551,6,8,-117
140897269,0.44854736328125,-0.38970947265625,-0.550537109375,0.58636474609375,35,-6840,531,4,6,-112
140907256,0.4564208984375,-0.38287353515625,-0.55487060546875,0.5806884765625,162,-6745,521,3,4,-102
140917239,0.46368408203125,-0.376220703125,-0.55908203125,0.5751953125,472,-6708,538,2,2,-97
140927218,0.47100830078125,-0.36920166015625,-0.56353759765625,0.5694580078125,836,-6718,573,1,1,-100
140937206,0.47869873046875,-0.36151123046875,-0.56854248046875,0.56298828125,1165,-6706,585,-1,-1,-110
140947186,0.48675537109375,-0.35308837890625,-0.5740966796875,0.55572509765625,1378,-6662,583,-3,-2,-120
140957174,0.4947509765625,-0.34429931640625,-0.57989501953125,0.54803466796875,1463,-6643,559,-5,-4,-124
140967153,0.5020751953125,-0.33575439453125,-0.58563232421875,0.54058837890625,1511,-6620,537,-6,-7,-117
140977123,0.5081787109375,-0.32794189453125,-0.5909423828125,0.5338134765625,1690,-6622,517,-7,-9,-103
140987108,0.51336669921875,-0.32080078125,-0.59588623046875,0.5277099609375,2052,-6689,531,-7,-11,-91
140997090,0.51806640625,-0.313720703125,-0.6007080078125,0.52191162109375,2449,-6745,525,-8,-13,-87
141007072,0.52252197265625,-0.30657958984375,-0.6055908203125,0.5159912109375,2756,-6749,510,-8,-14,-87
141017055,0.5267333984375,-0.2994384765625,-0.6104736328125,0.5101318359375,2915,-6698,473,-9,-16,-86
141027038,0.530517578125,-0.29254150390625,-0.615234375,0.50439453125,2996,-6645,439,-9,-17,-83
141037021,0.5340576171875,-0.2857666015625,-0.619873046875,0.49884033203125,3198,-6604,391,-9,-17,-82
141047004,0.53790283203125,-0.27838134765625,-0.62469482421875,0.492919921875,3629,-6589,389,-9,-18,-87
141056991,0.54241943359375,-0.26995849609375,-0.62982177734375,0.48602294921875,4244,-6620,379,-9,-17,-98
141066976,0.54779052734375,-0.2603759765625,-0.63531494140625,0.47802734375,4889,-6633,361,-9,-16,-111
141076952,0.5537109375,-0.25,-0.6409912109375,0.46905517578125,5388,-6629,340,-10,-16,-120
141086936,0.5594482421875,-0.23974609375,-0.646484375,0.46002197265625,5666,-6608,299,-11,-14,-117
141096917,0.56439208984375,-0.230712890625,-0.6513671875,0.45159912109375,5746,-6582,244,-12,-14,-104
141106899,0.568115234375,-0.223388671875,-0.655517578125,0.444580078125,5759,-6578,208,-11,-12,-82
141116884,0.5706787109375,-0.2177734375,-0.65899658203125,0.43896484375,5817,-6617,194,-12,-12,-64
141126866,0.5726318359375,-0.21307373046875,-0.6619873046875,0.43408203125,5902,-6689,199,-12,-12,-55
141136848,0.5745849609375,-0.20849609375,-0.66485595703125,0.42938232421875,5944,-6744,210,-11,-12,-56
141146831,0.57672119140625,-0.2034912109375,-0.6678466796875,0.42425537109375,5896,-6793,213,-11,-11,-63
141156814,0.5791015625,-0.1981201171875,-0.67083740234375,0.41876220703125,5733,-6810,204,-11,-11,-70
141166798,0.58160400390625,-0.19256591796875,-0.67376708984375,0.41314697265625,5581,-6812,180,-11,-11,-71
141176784,0.58404541015625,-0.1871337890625,-0.67645263671875,0.40777587890625,5478,-6794,162,-9,-10,-69
141186773,0.58642578125,-0.18170166015625,-0.678955078125,0.402587890625,5475,-6798,171,-8,-9,-68
141196756,0.58892822265625,-0.17596435546875,-0.681396484375,0.39727783203125,5522,-6790,181,-7,-9,-72
141206739,0.5916748046875,-0.16961669921875,-0.68389892578125,0.39166259765625,5572,-6730,205,-6,-11,-78
141216716,0.59466552734375,-0.1624755859375,-0.6865234375,0.3856201171875,5599,-6647,202,-4,-12,-86
141226698,0.59765625,-0.15478515625,-0.689208984375,0.3792724609375,5594,-6532,171,-3,-13,-90
141236677,0.6005859375,-0.14697265625,-0.6917724609375,0.37298583984375,5574,-6377,121,-1,-13,-89
141246665,0.60321044921875,-0.139404296875,-0.69415283203125,0.3671875,5608,-6200,35,1,-13,-83
141256647,0.60565185546875,-0.1322021484375,-0.69622802734375,0.36187744140625,5768,-6038,-49,2,-12,-78
141266629,0.60821533203125,-0.124755859375,-0.69818115234375,0.3564453125,6065,-5869,-126,3,-11,-79
141276612,0.611083984375,-0.11663818359375,-0.70013427734375,0.35040283203125,6388,-5693,-206,4,-10,-88
141286593,0.614501953125,-0.1075439453125,-0.70196533203125,0.34356689453125,6694,-5507,-271,5,-8,-98
141296575,0.6182861328125,-0.09771728515625,-0.70379638671875,0.33599853515625,6903,-5319,-343,5,-7,-106
141306558,0.6221923828125,-0.087646484375,-0.705322265625,0.3282470703125,7026,-5123,-411,6,-5,-107
141316544,0.6258544921875,-0.0780029296875,-0.70660400390625,0.32086181640625,7190,-4906,-486,7,-4,-100
141326526,0.6292724609375,-0.06903076171875,-0.70751953125,0.31402587890625,7435,-4729,-551,7,-2,-93
141336509,0.63250732421875,-0.060546875,-0.708251953125,0.3076171875,7782,-4547,-607,8,-1,-87
141346492,0.6357421875,-0.0521240234375,-0.7088623046875,0.30108642578125,8144,-4361,-675,7,-1,-88
141356478,0.63897705078125,-0.04364013671875,-0.70941162109375,0.294189453125,8422,-4163,-742,5,0,-90
141366457,0.64215087890625,-0.0352783203125,-0.70989990234375,0.287109375,8542,-3978,-799,3,1,-89
141376440,0.64508056640625,-0.0274658203125,-0.7103271484375,0.2801513671875,8512,-3792,-834,1,1,-85
141386431,0.64764404296875,-0.02056884765625,-0.71075439453125,0.2738037109375,8372,-3655,-833,0,0,-76
141396414,0.6497802734375,-0.01458740234375,-0.7110595703125,0.26824951171875,8247,-3513,-802,-1,0,-66
141406395,0.65155029296875,-0.00921630859375,-0.71142578125,0.26318359375,8200,-3390,-758,-1,-1,-60
141416369,0.6531982421875,-0.00396728515625,-0.7117919921875,0.2581787109375,8211,-3274,-706,-2,-2,-61
141426352,0.65496826171875,0.00177001953125,-0.712158203125,0.25274658203125,8223,-3142,-687,-2,-3,-67
141436336,0.65673828125,0.00811767578125,-0.71258544921875,0.24664306640625,8181,-2995,-696,-2,-4,-75
141446318,0.65863037109375,0.0150146484375,-0.7130126953125,0.239990234375,8099,-2831,-714,-2,-4,-80
141456301,0.6605224609375,0.022216796875,-0.71337890625,0.2330322265625,8065,-2639,-736,-2,-4,-83
141466284,0.66241455078125,0.02972412109375,-0.71368408203125,0.22576904296875,8110,-2445,-749,-3,-4,-86
141476269,0.664306640625,0.0374755859375,-0.71392822265625,0.2181396484375,8224,-2281,-757,-3,-5,-90
141486256,0.666259765625,0.0457763671875,-0.71405029296875,0.2099609375,8380,-2092,-742,-3,-5,-96
141496237,0.66827392578125,0.0545654296875,-0.714111328125,0.20123291015625,8517,-1905,-740,-4,-6,-102
141506220,0.670166015625,0.06365966796875,-0.714111328125,0.1920166015625,8600,-1691,-742,-5,-7,-106
141516206,0.6719970703125,0.072998046875,-0.7139892578125,0.1826171875,8670,-1492,-723,-5,-7,-107
141526194,0.673583984375,0.0821533203125,-0.7137451171875,0.17333984375,8776,-1319,-694,-5,-8,-106
141536175,0.67498779296875,0.09112548828125,-0.7135009765625,0.16424560546875,8970,-1158,-673,-4,-9,-103
141546160,0.6761474609375,0.09991455078125,-0.71319580078125,0.15533447265625,9201,-1013,-654,-4,-10,-102
141556131,0.67718505859375,0.10858154296875,-0.71282958984375,0.146484375,9415,-884,-667,-5,-10,-101
141566113,0.677978515625,0.11700439453125,-0.7125244140625,0.13775634765625,9540,-765,-683,-5,-11,-99
141576095,0.678466796875,0.12493896484375,-0.7122802734375,0.1292724609375,9593,-647,-705,-6,-12,-93
141586078,0.67864990234375,0.13201904296875,-0.712158203125,0.12152099609375,9557,-565,-716,-7,-13,-84
141596062,0.67864990234375,0.1380615234375,-0.71221923828125,0.1146240234375,9479,-489,-694,-7,-14,-73
141606051,0.67840576171875,0.14288330078125,-0.71240234375,0.10882568359375,9406,-428,-651,-8,-14,-60
141616030,0.677978515625,0.146728515625,-0.7127685546875,0.10394287109375,9390,-369,-587,-8,-14,-49
141626010,0.67742919921875,0.14990234375,-0.71319580078125,0.099609375,9454,-330,-545,-8,-14,-44
141635996,0.67694091796875,0.1529541015625,-0.713623046875,0.0953369140625,9540,-320,-527,-8,-14,-45
141645980,0.676513671875,0.1563720703125,-0.71392822265625,0.0906982421875,9571,-323,-545,-9,-13,-51
141655958,0.6761474609375,0.16009521484375,-0.71405029296875,0.08551025390625,9552,-330,-571,-10,-12,-57
141665948,0.6759033203125,0.1639404296875,-0.7139892578125,0.080078125,9480,-336,-583,-11,-12,-58
141675929,0.67578125,0.16748046875,-0.71392822265625,0.07470703125,9415,-314,-556,-12,-11,-55
141685916,0.6756591796875,0.17041015625,-0.71380615234375,0.06982421875,9369,-284,-519,-13,-10,-48
141695895,0.67559814453125,0.17254638671875,-0.71380615234375,0.0655517578125,9355,-228,-485,-14,-9,-40
141705881,0.67559814453125,0.174072265625,-0.71380615234375,0.06182861328125,9331,-146,-461,-15,-8,-34
141715863,0.67559814453125,0.17498779296875,-0.71380615234375,0.0584716796875,9292,-71,-445,-15,-7,-28
141725847,0.67572021484375,0.1756591796875,-0.7137451171875,0.055419921875,9246,8,-429,-15,-5,-26
141735830,0.67596435546875,0.17626953125,-0.713623046875,0.0523681640625,9239,111,-430,-16,-4,-26
141745814,0.67626953125,0.177001953125,-0.71337890625,0.04913330078125,9289,233,-443,-16,-3,-28
141755792,0.67669677734375,0.17803955078125,-0.71295166015625,0.045654296875,9374,352,-484,-16,-2,-32
141765773,0.67718505859375,0.179443359375,-0.71234130859375,0.04180908203125,9476,472,-546,-16,-1,-36
141775768,0.6778564453125,0.1810302734375,-0.7115478515625,0.03765869140625,9541,597,-586,-16,1,-39
141785749,0.6785888671875,0.1827392578125,-0.71063232421875,0.03350830078125,9584,720,-619,-17,2,-38
141795733,0.67938232421875,0.18408203125,-0.709716796875,0.02960205078125,9600,831,-623,-17,3,-34
141805708,0.68023681640625,0.1849365234375,-0.70880126953125,0.02618408203125,9573,934,-600,-17,4,-28
141815693,0.68115234375,0.18511962890625,-0.70794677734375,0.02337646484375,9534,1002,-565,-17,4,-20
141825674,0.68212890625,0.18475341796875,-0.7071533203125,0.02130126953125,9493,1053,-491,-16,5,-14
141835656,0.68316650390625,0.18402099609375,-0.7064208984375,0.01959228515625,9434,1081,-449,-16,6,-10
141845640,0.6842041015625,0.18310546875,-0.7056884765625,0.01812744140625,9321,1075,-412,-15,7,-8
141855623,0.68524169921875,0.18218994140625,-0.7049560546875,0.0167236328125,9181,1063,-374,-15,7,-9
141865605,0.68634033203125,0.181396484375,-0.70416259765625,0.01519775390625,9005,1043,-343,-15,7,-10
141875589,0.6873779296875,0.1806640625,-0.70330810546875,0.01361083984375,8822,1014,-330,-15,8,-11
141885571,0.6884765625,0.1800537109375,-0.70245361328125,0.011962890625,8669,1007,-293,-15,7,-11
141895555,0.68951416015625,0.1793212890625,-0.70166015625,0.0103759765625,8548,1021,-268,-15,7,-10
141905542,0.69049072265625,0.17852783203125,-0.700927734375,0.00897216796875,8418,1053,-244,-14,7,-7
141915522,0.69140625,0.1773681640625,-0.70025634765625,0.0078125,8283,1082,-209,-15,6,-4
141925504,0.69232177734375,0.176025390625,-0.69976806640625,0.0069580078125,8166,1122,-180,-14,5,0
141935482,0.693115234375,0.17431640625,-0.69940185546875,0.00628662109375,8068,1177,-184,-15,4,4
141945466,0.69384765625,0.17242431640625,-0.69915771484375,0.005859375,8008,1224,-189,-15,4,6
141955449,0.6944580078125,0.17041015625,-0.69903564453125,0.00555419921875,7981,1274,-204,-15,3,7
141965437,0.69500732421875,0.16845703125,-0.698974609375,0.00506591796875,7956,1334,-209,-15,2,6
141975421,0.6954345703125,0.16656494140625,-0.698974609375,0.0045166015625,7942,1376,-214,-15,1,5
141985403,0.69586181640625,0.164794921875,-0.698974609375,0.00384521484375,7938,1420,-232,-15,1,4
141995380,0.69622802734375,0.1630859375,-0.69903564453125,0.0030517578125,7925,1487,-254,-15,0,5
142005364,0.696533203125,0.16119384765625,-0.69915771484375,0.00238037109375,7913,1534,-279,-16,0,6
142015350,0.69683837890625,0.15924072265625,-0.6993408203125,0.001708984375,7922,1573,-308,-16,-1,7
142025328,0.697021484375,0.15716552734375,-0.6995849609375,0.0010986328125,7909,1610,-338,-16,-1,8
142035309,0.697265625,0.155029296875,-0.6998291015625,0.00048828125,7918,1627,-371,-17,-1,9
142045293,0.69744873046875,0.15283203125,-0.70013427734375,-0.0001220703125,7931,1652,-396,-17,-1,8
142055277,0.6976318359375,0.15069580078125,-0.700439453125,-0.00091552734375,7937,1681,-428,-18,-1,8
142065259,0.6978759765625,0.14862060546875,-0.70062255859375,-0.0018310546875,7944,1701,-457,-18,-1,6
142075239,0.69805908203125,0.1466064453125,-0.70086669921875,-0.00286865234375,7958,1709,-462,-19,-1,5
142085231,0.69830322265625,0.1446533203125,-0.7010498046875,-0.004150390625,7958,1722,-473,-19,-1,4
142095219,0.69854736328125,0.14276123046875,-0.701171875,-0.0054931640625,7971,1721,-477,-20,0,2
142105195,0.69879150390625,0.14093017578125,-0.70123291015625,-0.00701904296875,8006,1714,-458,-20,0,2
142115187,0.6990966796875,0.13916015625,-0.7012939453125,-0.00860595703125,8042,1720,-445,-21,0,0
142125174,0.69940185546875,0.137451171875,-0.7012939453125,-0.01031494140625,8067,1722,-421,-21,0,-1
142135144,0.69970703125,0.13580322265625,-0.7012939453125,-0.01214599609375,8083,1722,-397,-21,0,-2
142145121,0.7000732421875,0.13421630859375,-0.701171875,-0.0140380859375,8080,1725,-382,-21,1,-2
