subject,Joshua Spiesman
arm,right
label,0
hz,100.17834458095223
time,5.160796

timestamp_us,q0,q1,q2,q3,ax,ay,az,gx,gy,gz
119769138,0.185791015625,0.4786376953125,0.46923828125,-0.71844482421875,-6871,-4021,535,6,-3,-8
119779122,0.18475341796875,0.47821044921875,0.4691162109375,-0.71905517578125,-6854,-4017,527,6,-2,-9
119789103,0.18365478515625,0.477783203125,0.46905517578125,-0.7197265625,-6827,-4001,546,7,-2,-9
119799087,0.1824951171875,0.4774169921875,0.46893310546875,-0.7203369140625,-6791,-3995,569,7,-1,-9
119809074,0.1812744140625,0.4771728515625,0.46875,-0.72088623046875,-6761,-3982,603,7,0,-9
119819050,0.18011474609375,0.4769287109375,0.46856689453125,-0.721435546875,-6726,-3964,626,7,0,-8
119829035,0.17889404296875,0.47686767578125,0.4683837890625,-0.721923828125,-6704,-3941,653,7,2,-8
119839024,0.1776123046875,0.47686767578125,0.46820068359375,-0.72235107421875,-6688,-3915,682,7,2,-8
119848998,0.17645263671875,0.4769287109375,0.46795654296875,-0.7227783203125,-6670,-3881,727,7,3,-7
119858979,0.17547607421875,0.4771728515625,0.4676513671875,-0.7230224609375,-6646,-3850,779,7,4,-5
119868961,0.174560546875,0.47760009765625,0.46734619140625,-0.72320556640625,-6634,-3818,809,6,5,-4
119878945,0.17376708984375,0.4781494140625,0.4669189453125,-0.7232666015625,-6627,-3804,860,6,6,-2
119888934,0.173095703125,0.47882080078125,0.46649169921875,-0.7232666015625,-6619,-3810,888,5,6,0
119898912,0.17254638671875,0.47967529296875,0.466064453125,-0.72314453125,-6622,-3812,903,5,7,1
119908893,0.1719970703125,0.4805908203125,0.465576171875,-0.72296142578125,-6632,-3831,925,5,8,1
119918875,0.17132568359375,0.48150634765625,0.4652099609375,-0.72271728515625,-6660,-3856,939,4,9,1
119928857,0.17071533203125,0.4825439453125,0.46484375,-0.72247314453125,-6699,-3864,946,4,9,1
119938839,0.16998291015625,0.48345947265625,0.46453857421875,-0.72216796875,-6745,-3882,958,4,9,0
119948823,0.16912841796875,0.484375,0.46435546875,-0.72186279296875,-6787,-3912,955,4,10,-1
119958806,0.16827392578125,0.4852294921875,0.4642333984375,-0.72161865234375,-6845,-3956,957,3,10,-2
119968791,0.16729736328125,0.48602294921875,0.46417236328125,-0.7213134765625,-6910,-3988,955,3,9,-3
119978772,0.16619873046875,0.4866943359375,0.4642333984375,-0.7210693359375,-6967,-4045,919,3,9,-5
119988748,0.1650390625,0.4873046875,0.46441650390625,-0.7208251953125,-7010,-4111,889,3,8,-6
119998732,0.163818359375,0.48779296875,0.464599609375,-0.72064208984375,-7054,-4169,854,3,8,-6
120008714,0.16259765625,0.48822021484375,0.46478271484375,-0.72052001953125,-7089,-4224,819,4,7,-6
120018695,0.16131591796875,0.488525390625,0.4649658203125,-0.720458984375,-7111,-4253,788,4,7,-7
120028679,0.1600341796875,0.48883056640625,0.46514892578125,-0.720458984375,-7136,-4280,752,4,6,-8
120038660,0.15875244140625,0.489013671875,0.46533203125,-0.72052001953125,-7148,-4310,732,4,5,-8
120048642,0.15740966796875,0.48907470703125,0.46551513671875,-0.72064208984375,-7167,-4331,723,5,4,-9
120058623,0.1561279296875,0.48907470703125,0.46563720703125,-0.72088623046875,-7164,-4346,718,5,4,-9
120068605,0.15478515625,0.489013671875,0.4656982421875,-0.72113037109375,-7157,-4380,706,6,3,-9
120078588,0.15338134765625,0.4888916015625,0.46575927734375,-0.72149658203125,-7150,-4426,701,6,2,-9
120088577,0.15203857421875,0.48870849609375,0.46575927734375,-0.72186279296875,-7148,-4463,700,7,2,-9
120098553,0.150634765625,0.48858642578125,0.46563720703125,-0.72235107421875,-7133,-4485,701,8,2,-9
120108536,0.1492919921875,0.48846435546875,0.4654541015625,-0.72283935546875,-7121,-4483,705,8,1,-8
120118517,0.14801025390625,0.4884033203125,0.46514892578125,-0.72332763671875,-7108,-4466,720,8,2,-8
120128501,0.14678955078125,0.48834228515625,0.46478271484375,-0.723876953125,-7060,-4426,735,9,1,-7
120138483,0.1456298828125,0.48834228515625,0.46429443359375,-0.724365234375,-7027,-4383,748,9,2,-6
120148470,0.14447021484375,0.48846435546875,0.46380615234375,-0.724853515625,-7010,-4336,762,9,2,-6
120158451,0.14337158203125,0.48858642578125,0.4632568359375,-0.725341796875,-6996,-4302,780,9,2,-5
120168434,0.142333984375,0.48883056640625,0.46270751953125,-0.7257080078125,-6982,-4284,803,8,3,-5
120178410,0.141357421875,0.489013671875,0.46209716796875,-0.72613525390625,-6980,-4253,839,8,3,-4
120188394,0.1405029296875,0.4893798828125,0.46148681640625,-0.7264404296875,-6987,-4216,855,8,3,-3
120198375,0.1397705078125,0.48980712890625,0.46087646484375,-0.72674560546875,-6990,-4189,866,7,4,-2
120208358,0.13909912109375,0.490234375,0.46026611328125,-0.7269287109375,-6992,-4161,874,6,4,-1
120218340,0.13848876953125,0.49078369140625,0.459716796875,-0.72705078125,-7013,-4147,896,6,4,-1
120228327,0.13800048828125,0.4913330078125,0.45916748046875,-0.72711181640625,-7023,-4133,893,5,4,0
120238305,0.1375732421875,0.49188232421875,0.45867919921875,-0.72711181640625,-7040,-4128,888,4,4,0
120248290,0.13726806640625,0.49249267578125,0.4581298828125,-0.72711181640625,-7038,-4112,879,4,4,1
120258276,0.13714599609375,0.49322509765625,0.45758056640625,-0.72698974609375,-7040,-4088,861,3,4,3
120268256,0.13714599609375,0.4940185546875,0.45703125,-0.726806640625,-7016,-4067,830,3,4,4
120278240,0.13726806640625,0.49493408203125,0.4564208984375,-0.7265625,-7010,-4053,808,3,4,6
120288227,0.1376953125,0.49591064453125,0.45562744140625,-0.72625732421875,-6992,-4023,784,3,4,8
120298211,0.13824462890625,0.49700927734375,0.454833984375,-0.7259521484375,-6975,-3995,751,2,4,10
120308192,0.13897705078125,0.4981689453125,0.453857421875,-0.7255859375,-6968,-3964,734,2,4,11
120318162,0.1397705078125,0.49932861328125,0.45294189453125,-0.7252197265625,-6967,-3931,719,2,4,11
120328144,0.1405029296875,0.50042724609375,0.4520263671875,-0.72491455078125,-6963,-3904,728,2,3,11
120338126,0.14117431640625,0.50140380859375,0.45123291015625,-0.72454833984375,-6970,-3878,730,1,4,9
120348109,0.1416015625,0.5023193359375,0.45062255859375,-0.7242431640625,-6983,-3877,730,1,4,7
120358089,0.1419677734375,0.50311279296875,0.45013427734375,-0.7239990234375,-7017,-3860,744,1,3,5
120368073,0.14215087890625,0.50372314453125,0.44970703125,-0.72369384765625,-7064,-3854,755,0,3,3
120378055,0.142333984375,0.5042724609375,0.449462890625,-0.7235107421875,-7085,-3858,762,0,3,2
120388045,0.14251708984375,0.5047607421875,0.44921875,-0.7232666015625,-7107,-3844,762,0,2,3
120398028,0.14288330078125,0.5052490234375,0.44891357421875,-0.7230224609375,-7114,-3828,771,-1,2,3
120408001,0.143310546875,0.50567626953125,0.44873046875,-0.7227783203125,-7110,-3811,777,-2,2,4
120417985,0.14385986328125,0.50604248046875,0.44854736328125,-0.72247314453125,-7108,-3790,776,-3,1,4
120427965,0.14447021484375,0.50628662109375,0.44854736328125,-0.72222900390625,-7099,-3766,779,-4,0,3
120437946,0.14501953125,0.5064697265625,0.44866943359375,-0.721923828125,-7091,-3738,772,-5,0,2
120447927,0.1456298828125,0.5064697265625,0.448974609375,-0.72161865234375,-7076,-3722,769,-7,-1,0
120457912,0.14617919921875,0.5062255859375,0.44952392578125,-0.72125244140625,-7066,-3718,767,-8,-2,-2
120467889,0.146728515625,0.50592041015625,0.4503173828125,-0.72088623046875,-7047,-3715,750,-10,-2,-3
120477870,0.1473388671875,0.5054931640625,0.4512939453125,-0.720458984375,-7022,-3697,736,-11,-2,-3
120487853,0.1480712890625,0.5050048828125,0.452392578125,-0.719970703125,-6978,-3693,718,-13,-3,-3
120497836,0.14886474609375,0.50445556640625,0.45361328125,-0.71942138671875,-6927,-3695,703,-14,-3,-3
120507819,0.14990234375,0.50390625,0.45489501953125,-0.71881103515625,-6885,-3701,685,-16,-3,-2
120517805,0.151123046875,0.50335693359375,0.45623779296875,-0.71807861328125,-6853,-3722,673,-17,-4,-1
120527791,0.1524658203125,0.5028076171875,0.4576416015625,-0.71728515625,-6820,-3753,648,-18,-4,1
120537771,0.154052734375,0.5023193359375,0.458984375,-0.7164306640625,-6806,-3777,621,-19,-4,2
120547748,0.15576171875,0.50189208984375,0.4603271484375,-0.71551513671875,-6786,-3817,598,-19,-4,4
120557728,0.15765380859375,0.50152587890625,0.4615478515625,-0.71453857421875,-6770,-3816,587,-20,-4,6
120567712,0.15966796875,0.501220703125,0.46270751953125,-0.7135009765625,-6751,-3817,572,-20,-5,7
120577693,0.1617431640625,0.5009765625,0.4638671875,-0.7125244140625,-6743,-3818,584,-20,-4,7
120587676,0.16375732421875,0.50067138671875,0.4649658203125,-0.71148681640625,-6749,-3826,597,-20,-4,6
120597656,0.1656494140625,0.50030517578125,0.4661865234375,-0.7105712890625,-6768,-3848,630,-20,-3,5
120607640,0.16729736328125,0.4998779296875,0.467529296875,-0.7095947265625,-6794,-3886,652,-19,-3,3
120617621,0.16864013671875,0.499267578125,0.46893310546875,-0.708740234375,-6846,-3920,672,-19,-3,0
120627605,0.16986083984375,0.49859619140625,0.470458984375,-0.70794677734375,-6897,-3955,693,-18,-2,-1
120637585,0.17083740234375,0.4979248046875,0.47198486328125,-0.7071533203125,-6942,-4007,701,-17,-2,-2
120647567,0.17181396484375,0.49725341796875,0.473388671875,-0.7064208984375,-6985,-4045,702,-17,-2,-2
120657549,0.17279052734375,0.4967041015625,0.47467041015625,-0.70574951171875,-7040,-4084,707,-16,-2,-1
120667535,0.17388916015625,0.4962158203125,0.475830078125,-0.70501708984375,-7112,-4127,675,-15,-3,1
120677516,0.17523193359375,0.49591064453125,0.47674560546875,-0.704345703125,-7169,-4167,649,-14,-3,4
120687497,0.17669677734375,0.49566650390625,0.47747802734375,-0.70361328125,-7228,-4195,634,-14,-4,6
120697483,0.17840576171875,0.4954833984375,0.47802734375,-0.7030029296875,-7290,-4208,616,-13,-4,8
120707468,0.18017578125,0.49530029296875,0.47845458984375,-0.70233154296875,-7323,-4217,578,-13,-5,9
120717449,0.18206787109375,0.49505615234375,0.4788818359375,-0.70172119140625,-7345,-4213,527,-14,-7,8
120727432,0.18389892578125,0.49462890625,0.47943115234375,-0.70111083984375,-7351,-4201,471,-14,-7,7
120737410,0.18560791015625,0.49407958984375,0.48016357421875,-0.70062255859375,-7343,-4199,421,-14,-8,4
120747392,0.18707275390625,0.49322509765625,0.48114013671875,-0.70013427734375,-7325,-4177,366,-15,-8,1
120757373,0.1883544921875,0.49212646484375,0.48236083984375,-0.69970703125,-7295,-4155,328,-16,-9,-3
120767354,0.1893310546875,0.49078369140625,0.48388671875,-0.69940185546875,-7242,-4161,279,-16,-9,-6
120777335,0.19000244140625,0.48919677734375,0.48565673828125,-0.69903564453125,-7201,-4181,226,-16,-9,-9
120787318,0.1905517578125,0.48748779296875,0.48760986328125,-0.69873046875,-7131,-4208,196,-17,-9,-11
120797300,0.19097900390625,0.48577880859375,0.48968505859375,-0.6983642578125,-7064,-4243,142,-17,-9,-11
120807281,0.19140625,0.484130859375,0.49176025390625,-0.69793701171875,-6981,-4278,115,-17,-8,-11
120817270,0.19189453125,0.48260498046875,0.49371337890625,-0.697509765625,-6916,-4312,90,-17,-7,-9
120827257,0.1923828125,0.4813232421875,0.49554443359375,-0.69696044921875,-6860,-4362,82,-16,-6,-7
120837240,0.19305419921875,0.48028564453125,0.4971923828125,-0.69635009765625,-6831,-4398,73,-16,-5,-4
120847227,0.19384765625,0.4794921875,0.49859619140625,-0.69561767578125,-6809,-4404,75,-15,-4,-2
120857214,0.1947021484375,0.47894287109375,0.4998779296875,-0.69482421875,-6770,-4395,80,-14,-3,1
120867191,0.19573974609375,0.47869873046875,0.50091552734375,-0.6939697265625,-6742,-4353,97,-13,-1,3
120877175,0.19677734375,0.4786376953125,0.50177001953125,-0.693115234375,-6732,-4319,113,-13,0,5
120887148,0.19775390625,0.478759765625,0.5025634765625,-0.692138671875,-6721,-4267,140,-12,1,5
120897127,0.19873046875,0.47906494140625,0.50323486328125,-0.691162109375,-6724,-4226,154,-11,2,5
120907112,0.199462890625,0.47943115234375,0.50390625,-0.690185546875,-6730,-4194,176,-11,3,5
120917092,0.20013427734375,0.4798583984375,0.50457763671875,-0.68927001953125,-6753,-4159,183,-10,4,4
120927074,0.20068359375,0.48028564453125,0.5052490234375,-0.68829345703125,-6787,-4126,216,-10,5,3
120937058,0.2010498046875,0.48065185546875,0.5059814453125,-0.6873779296875,-6821,-4097,234,-9,5,2
120947038,0.201416015625,0.48101806640625,0.5067138671875,-0.68646240234375,-6866,-4063,257,-10,5,1
120957028,0.2017822265625,0.4814453125,0.50750732421875,-0.685546875,-6916,-4029,266,-10,6,1
120967010,0.2021484375,0.4818115234375,0.50823974609375,-0.6845703125,-6967,-3992,278,-10,5,1
120976986,0.20257568359375,0.48211669921875,0.50909423828125,-0.68365478515625,-7008,-3956,278,-11,5,1
120986969,0.2030029296875,0.4822998046875,0.50994873046875,-0.68267822265625,-7052,-3931,278,-11,5,0
120996952,0.2034912109375,0.482421875,0.51092529296875,-0.68170166015625,-7101,-3918,272,-12,4,-1
121006929,0.20404052734375,0.48248291015625,0.51202392578125,-0.68072509765625,-7172,-3935,257,-13,3,-1
121016912,0.20465087890625,0.48236083984375,0.51312255859375,-0.6798095703125,-7244,-3957,235,-13,2,-1
121026895,0.205322265625,0.482177734375,0.51422119140625,-0.6788330078125,-7297,-3979,199,-14,1,-1
121036882,0.20623779296875,0.48199462890625,0.51531982421875,-0.67791748046875,-7340,-3996,160,-15,0,1
121046862,0.20733642578125,0.48175048828125,0.516357421875,-0.67694091796875,-7356,-4006,134,-15,-1,2
121056842,0.20867919921875,0.48150634765625,0.517333984375,-0.67596435546875,-7354,-4002,101,-16,-2,3
121066823,0.2100830078125,0.481201171875,0.51824951171875,-0.675048828125,-7333,-3984,69,-16,-3,3
121076803,0.2115478515625,0.4808349609375,0.5191650390625,-0.67413330078125,-7334,-3975,29,-16,-4,3
121086793,0.2130126953125,0.4803466796875,0.5201416015625,-0.67327880859375,-7325,-3975,-3,-16,-5,2
121096775,0.21441650390625,0.47967529296875,0.52117919921875,-0.6724853515625,-7314,-3978,-23,-16,-5,0
121106755,0.21563720703125,0.4788818359375,0.5223388671875,-0.67181396484375,-7278,-3985,-49,-16,-6,-1
121116733,0.216796875,0.4779052734375,0.5235595703125,-0.67120361328125,-7254,-3992,-71,-16,-7,-2
121126716,0.2178955078125,0.47686767578125,0.52484130859375,-0.67059326171875,-7224,-4004,-91,-16,-7,-3
121136697,0.21893310546875,0.47576904296875,0.526123046875,-0.66998291015625,-7191,-4014,-112,-16,-7,-4
121146679,0.21990966796875,0.474609375,0.5274658203125,-0.66943359375,-7168,-4032,-125,-16,-7,-4
121156661,0.220947265625,0.4735107421875,0.52874755859375,-0.6688232421875,-7163,-4054,-154,-16,-7,-4
121166643,0.221923828125,0.47235107421875,0.53009033203125,-0.66827392578125,-7143,-4089,-176,-15,-7,-3
121176624,0.22296142578125,0.47137451171875,0.53131103515625,-0.66766357421875,-7125,-4115,-193,-15,-7,-2
121186606,0.22406005859375,0.47039794921875,0.53253173828125,-0.66705322265625,-7104,-4138,-216,-15,-6,-2
121196595,0.2252197265625,0.46954345703125,0.53363037109375,-0.6663818359375,-7085,-4145,-228,-15,-6,0
121206577,0.2264404296875,0.46881103515625,0.53460693359375,-0.6656494140625,-7080,-4142,-234,-15,-6,1
121216555,0.22772216796875,0.4681396484375,0.53558349609375,-0.6649169921875,-7035,-4128,-237,-15,-5,2
121226537,0.22894287109375,0.46759033203125,0.53656005859375,-0.66412353515625,-6994,-4094,-245,-15,-5,2
121236518,0.230224609375,0.467041015625,0.53753662109375,-0.66326904296875,-6962,-4074,-248,-15,-4,2
121246502,0.23138427734375,0.46661376953125,0.53851318359375,-0.662353515625,-6943,-4052,-266,-15,-3,2
121256483,0.23248291015625,0.46612548828125,0.53955078125,-0.6614990234375,-6926,-4047,-275,-15,-3,1
121266471,0.23345947265625,0.4656982421875,0.54058837890625,-0.66058349609375,-6909,-4039,-282,-15,-2,1
121276455,0.23443603515625,0.46527099609375,0.5416259765625,-0.65966796875,-6918,-4040,-291,-14,-2,1
121286438,0.23541259765625,0.4649658203125,0.54266357421875,-0.65869140625,-6941,-4046,-310,-14,-1,2
121296414,0.2364501953125,0.46478271484375,0.54364013671875,-0.65765380859375,-6967,-4048,-331,-14,-1,3
121306396,0.237548828125,0.464599609375,0.5445556640625,-0.6566162109375,-6979,-4046,-323,-14,-1,4
121316377,0.23876953125,0.4644775390625,0.54541015625,-0.65557861328125,-6995,-4044,-329,-14,-1,5
121326361,0.239990234375,0.46441650390625,0.54620361328125,-0.65447998046875,-7015,-4040,-334,-14,-1,5
121336342,0.2412109375,0.46435546875,0.54705810546875,-0.65338134765625,-7022,-4039,-357,-14,-1,5
121346327,0.242431640625,0.4642333984375,0.54791259765625,-0.65228271484375,-7038,-4033,-361,-14,-1,5
121356307,0.24359130859375,0.464111328125,0.548828125,-0.65118408203125,-7050,-4029,-377,-14,-1,4
121366290,0.24468994140625,0.46380615234375,0.54974365234375,-0.65020751953125,-7072,-4030,-376,-15,-2,3
121376276,0.2457275390625,0.46343994140625,0.55072021484375,-0.64923095703125,-7096,-4031,-380,-15,-2,1
121386258,0.24664306640625,0.46295166015625,0.55181884765625,-0.6483154296875,-7135,-4040,-395,-15,-2,0
121396242,0.24755859375,0.46234130859375,0.55291748046875,-0.6474609375,-7166,-4057,-417,-15,-3,-1
121406229,0.2484130859375,0.461669921875,0.5540771484375,-0.6466064453125,-7194,-4085,-437,-14,-3,-2
121416209,0.24920654296875,0.4609375,0.55523681640625,-0.6458740234375,-7203,-4114,-446,-14,-4,-2
121426192,0.25,0.46014404296875,0.55633544921875,-0.6451416015625,-7226,-4150,-465,-14,-4,-2
121436161,0.25079345703125,0.4593505859375,0.55743408203125,-0.64447021484375,-7244,-4181,-484,-13,-4,-2
121446144,0.25164794921875,0.45855712890625,0.55841064453125,-0.643798828125,-7257,-4200,-487,-13,-5,-1
121456130,0.252685546875,0.4578857421875,0.55926513671875,-0.6431884765625,-7276,-4200,-475,-13,-5,1
121466110,0.2537841796875,0.45733642578125,0.55999755859375,-0.64251708984375,-7264,-4194,-466,-12,-5,2
121476093,0.25494384765625,0.456787109375,0.56060791015625,-0.641845703125,-7266,-4172,-470,-12,-5,3
121486075,0.2562255859375,0.45635986328125,0.5611572265625,-0.64117431640625,-7247,-4138,-470,-12,-5,4
121496055,0.25750732421875,0.4559326171875,0.5616455078125,-0.64056396484375,-7235,-4119,-470,-11,-5,4
121506038,0.2587890625,0.45556640625,0.56207275390625,-0.639892578125,-7257,-4096,-474,-11,-5,4
121516027,0.26007080078125,0.4552001953125,0.5625,-0.6392822265625,-7258,-4072,-479,-11,-6,4
121526009,0.2613525390625,0.454833984375,0.56292724609375,-0.638671875,-7259,-4044,-486,-11,-6,4
121535986,0.2628173828125,0.4544677734375,0.56329345703125,-0.63800048828125,-7254,-4011,-500,-11,-6,6
121545969,0.26434326171875,0.4542236328125,0.56353759765625,-0.6373291015625,-7253,-3985,-516,-11,-6,7
121555950,0.26593017578125,0.4539794921875,0.56378173828125,-0.6365966796875,-7230,-3959,-547,-11,-7,8
121565934,0.26763916015625,0.4537353515625,0.56396484375,-0.6358642578125,-7221,-3932,-565,-11,-7,8
121575915,0.2694091796875,0.45355224609375,0.564208984375,-0.6351318359375,-7199,-3904,-584,-12,-7,9
121585897,0.271240234375,0.45330810546875,0.56439208984375,-0.63433837890625,-7173,-3866,-604,-12,-8,9
121595880,0.27301025390625,0.4530029296875,0.56463623046875,-0.633544921875,-7138,-3832,-623,-12,-8,8
121605862,0.274658203125,0.45257568359375,0.56500244140625,-0.6328125,-7110,-3809,-625,-13,-8,6
121615843,0.276123046875,0.45196533203125,0.5655517578125,-0.63214111328125,-7077,-3819,-638,-13,-8,4
121625827,0.27740478515625,0.451171875,0.56622314453125,-0.63153076171875,-7059,-3851,-641,-13,-7,2
121635807,0.2783203125,0.4503173828125,0.5670166015625,-0.63104248046875,-7031,-3884,-660,-12,-7,-1
121645796,0.27899169921875,0.4493408203125,0.56793212890625,-0.630615234375,-7008,-3942,-689,-11,-6,-3
121655776,0.27935791015625,0.44830322265625,0.56890869140625,-0.63031005859375,-6982,-3980,-705,-9,-6,-5
121665753,0.27947998046875,0.447265625,0.56982421875,-0.630126953125,-6961,-4029,-720,-8,-4,-6
121675736,0.2794189453125,0.4464111328125,0.57073974609375,-0.6300048828125,-6935,-4067,-723,-6,-3,-6
121685717,0.2791748046875,0.44561767578125,0.571533203125,-0.62994384765625,-6925,-4098,-718,-5,-2,-6
121695698,0.27886962890625,0.44500732421875,0.57220458984375,-0.6298828125,-6922,-4118,-689,-3,-1,-6
121705686,0.2784423828125,0.444580078125,0.57269287109375,-0.6298828125,-6932,-4117,-668,-2,0,-5
121715670,0.2779541015625,0.4444580078125,0.5731201171875,-0.62982177734375,-6943,-4101,-652,-1,1,-4
121725653,0.27752685546875,0.4444580078125,0.5733642578125,-0.6297607421875,-6967,-4089,-631,0,2,-2
121735631,0.277099609375,0.44464111328125,0.573486328125,-0.62969970703125,-6999,-4091,-602,1,3,-1
121745613,0.276611328125,0.44488525390625,0.57354736328125,-0.62969970703125,-7033,-4080,-561,2,3,-1
121755604,0.276123046875,0.4453125,0.573486328125,-0.62969970703125,-7077,-4076,-534,3,4,0
121765578,0.27557373046875,0.44580078125,0.5733642578125,-0.6297607421875,-7114,-4063,-519,4,4,0
121775558,0.27496337890625,0.44635009765625,0.5731201171875,-0.6297607421875,-7129,-4029,-504,4,5,0
121785542,0.27435302734375,0.447021484375,0.5728759765625,-0.62982177734375,-7163,-4005,-486,5,5,0
121795526,0.273681640625,0.4476318359375,0.5726318359375,-0.6298828125,-7182,-3975,-479,5,5,-1
121805504,0.27288818359375,0.44818115234375,0.5723876953125,-0.63006591796875,-7202,-3968,-471,6,5,-1
121815488,0.27203369140625,0.44879150390625,0.5721435546875,-0.6302490234375,-7231,-3964,-468,6,5,-2
121825465,0.2711181640625,0.4493408203125,0.5718994140625,-0.63043212890625,-7261,-3959,-476,6,5,-2
121835457,0.270263671875,0.449951171875,0.5716552734375,-0.630615234375,-7292,-3962,-481,7,5,-2
121845439,0.26947021484375,0.4505615234375,0.57135009765625,-0.63079833984375,-7308,-3961,-484,7,5,-1
121855429,0.26873779296875,0.451171875,0.5709228515625,-0.63104248046875,-7321,-3944,-504,7,4,0
121865400,0.26812744140625,0.451904296875,0.5704345703125,-0.6312255859375,-7319,-3937,-525,7,4,1
121875385,0.26763916015625,0.45269775390625,0.56988525390625,-0.63140869140625,-7291,-3919,-541,7,4,2
121885365,0.26708984375,0.4534912109375,0.56927490234375,-0.631591796875,-7254,-3916,-541,8,4,3
121895346,0.2666015625,0.45440673828125,0.56854248046875,-0.63177490234375,-7209,-3905,-561,8,4,4
121905329,0.26605224609375,0.45538330078125,0.56781005859375,-0.6319580078125,-7173,-3912,-577,9,4,4
121915310,0.26544189453125,0.45635986328125,0.56707763671875,-0.6322021484375,-7137,-3913,-594,10,5,3
121925293,0.26458740234375,0.4573974609375,0.56634521484375,-0.6324462890625,-7104,-3933,-608,10,5,3
121935272,0.263671875,0.45843505859375,0.56561279296875,-0.63275146484375,-7105,-3950,-619,11,6,2
121945262,0.26263427734375,0.45947265625,0.5648193359375,-0.63311767578125,-7112,-3981,-640,12,6,2
121955246,0.261474609375,0.460693359375,0.56402587890625,-0.63348388671875,-7148,-4010,-659,13,7,2
121965224,0.26019287109375,0.46197509765625,0.56304931640625,-0.63385009765625,-7165,-4042,-684,15,8,3
121975216,0.25885009765625,0.46337890625,0.56201171875,-0.63427734375,-7172,-4068,-719,16,8,3
121985199,0.2574462890625,0.46502685546875,0.56085205078125,-0.634765625,-7165,-4077,-761,18,9,4
121995174,0.25592041015625,0.4666748046875,0.55950927734375,-0.63531494140625,-7154,-4078,-766,19,10,5
122005150,0.25433349609375,0.468505859375,0.55810546875,-0.6358642578125,-7144,-4058,-779,20,10,5
122015132,0.25262451171875,0.47039794921875,0.55657958984375,-0.63641357421875,-7126,-4033,-797,21,11,4
122025115,0.2508544921875,0.47235107421875,0.5550537109375,-0.63702392578125,-7104,-3972,-785,22,11,5
122035097,0.2491455078125,0.474365234375,0.55340576171875,-0.63763427734375,-7100,-3907,-759,22,12,5
122045085,0.24737548828125,0.4764404296875,0.5517578125,-0.63824462890625,-7081,-3841,-753,22,12,5
122055060,0.24560546875,0.478515625,0.550048828125,-0.63885498046875,-7072,-3790,-742,23,12,4
122065043,0.2437744140625,0.48052978515625,0.54840087890625,-0.639404296875,-7101,-3776,-748,22,12,4
122075031,0.2418212890625,0.48248291015625,0.54681396484375,-0.6400146484375,-7132,-3792,-769,23,12,3
122085013,0.23980712890625,0.484375,0.54534912109375,-0.64068603515625,-7171,-3802,-775,23,12,1
122098030,0.23760986328125,0.4862060546875,0.5438232421875,-0.641357421875,-7214,-3821,-775,23,12,0
122104973,0.23541259765625,0.48797607421875,0.5423583984375,-0.64202880859375,-7244,-3838,-768,23,12,1
122114954,0.23321533203125,0.48980712890625,0.54083251953125,-0.64276123046875,-7292,-3849,-764,24,12,1
122124936,0.2310791015625,0.49176025390625,0.5391845703125,-0.64349365234375,-7340,-3860,-746,24,12,2
122134920,0.22906494140625,0.49371337890625,0.537353515625,-0.6441650390625,-7387,-3851,-721,24,12,4
122144901,0.2271728515625,0.49578857421875,0.53533935546875,-0.6448974609375,-7414,-3831,-668,25,12,5
122154886,0.22540283203125,0.49786376953125,0.533203125,-0.64569091796875,-7466,-3819,-609,25,12,6
122164866,0.22369384765625,0.5,0.53094482421875,-0.64654541015625,-7539,-3797,-566,26,11,6
122174849,0.221923828125,0.5020751953125,0.5286865234375,-0.64739990234375,-7616,-3808,-521,26,11,6
122184832,0.2200927734375,0.5040283203125,0.5263671875,-0.64837646484375,-7705,-3816,-493,27,10,5
122194819,0.2181396484375,0.50579833984375,0.5240478515625,-0.6495361328125,-7823,-3848,-477,28,9,3
122204802,0.21612548828125,0.5074462890625,0.52178955078125,-0.6507568359375,-7914,-3873,-468,28,8,1
122214786,0.2139892578125,0.50897216796875,0.51947021484375,-0.652099609375,-8001,-3872,-457,29,7,0
122224769,0.2119140625,0.5103759765625,0.51715087890625,-0.653564453125,-8048,-3873,-431,29,6,1
122234742,0.21002197265625,0.51177978515625,0.51470947265625,-0.655029296875,-8049,-3866,-435,29,5,3
122244727,0.20843505859375,0.5133056640625,0.51202392578125,-0.65643310546875,-8028,-3857,-434,29,3,6
122254708,0.20721435546875,0.51495361328125,0.509033203125,-0.6578369140625,-7984,-3836,-436,29,2,10
122264689,0.206298828125,0.5167236328125,0.505859375,-0.6591796875,-7919,-3795,-436,29,1,13
122274670,0.20574951171875,0.5185546875,0.50250244140625,-0.66046142578125,-7866,-3751,-419,29,0,16
122284656,0.20538330078125,0.5203857421875,0.4990234375,-0.66180419921875,-7833,-3694,-381,28,-1,17
122294636,0.20526123046875,0.522216796875,0.4954833984375,-0.6630859375,-7805,-3593,-333,27,-2,18
122304618,0.20526123046875,0.52392578125,0.491943359375,-0.66436767578125,-7752,-3475,-245,26,-2,18
122314599,0.20538330078125,0.52557373046875,0.488525390625,-0.66552734375,-7698,-3344,-137,25,-2,17
122324581,0.20562744140625,0.52716064453125,0.48516845703125,-0.6666259765625,-7648,-3212,-55,23,-2,17
122334567,0.2060546875,0.52886962890625,0.48187255859375,-0.66754150390625,-7592,-3098,-22,22,-1,19
122344548,0.20672607421875,0.5306396484375,0.47857666015625,-0.66827392578125,-7568,-2979,-3,20,-1,21
122354530,0.207763671875,0.5325927734375,0.4752197265625,-0.6688232421875,-7598,-2841,12,18,-1,24
122364514,0.2091064453125,0.53460693359375,0.47186279296875,-0.66912841796875,-7641,-2585,55,16,-1,25
122374501,0.21087646484375,0.5367431640625,0.468505859375,-0.66925048828125,-7631,-2194,183,13,0,25
122384483,0.21307373046875,0.5389404296875,0.46527099609375,-0.6690673828125,-7583,-1752,354,9,1,26
122394467,0.2156982421875,0.541259765625,0.462158203125,-0.66851806640625,-7549,-1415,495,4,3,28
122404447,0.21868896484375,0.5435791015625,0.45947265625,-0.66748046875,-7557,-1211,582,-1,5,30
122414427,0.221923828125,0.54595947265625,0.45721435546875,-0.666015625,-7585,-1105,635,-6,6,31
122424403,0.22540283203125,0.54833984375,0.455322265625,-0.6641845703125,-7634,-1038,664,-11,8,31
122434385,0.2291259765625,0.5506591796875,0.45391845703125,-0.66192626953125,-7676,-987,661,-16,9,31
122444369,0.23297119140625,0.552978515625,0.4530029296875,-0.65936279296875,-7703,-919,650,-20,11,30
122454348,0.23712158203125,0.55511474609375,0.4525146484375,-0.65631103515625,-7713,-834,626,-26,12,30
122464330,0.24163818359375,0.5572509765625,0.45245361328125,-0.6529541015625,-7725,-748,580,-31,13,30
122474314,0.2464599609375,0.55926513671875,0.452880859375,-0.64910888671875,-7756,-716,504,-37,13,31
122484297,0.2515869140625,0.56109619140625,0.4537353515625,-0.64495849609375,-7790,-867,264,-42,13,31
122494277,0.25689697265625,0.56298828125,0.45501708984375,-0.6402587890625,-7843,-995,95,-46,12,36
122504267,0.26287841796875,0.56494140625,0.4561767578125,-0.63531494140625,-7911,-1187,-121,-49,12,41
122514250,0.26953125,0.56683349609375,0.45721435546875,-0.63006591796875,-7968,-1282,-241,-52,10,46
122524240,0.27618408203125,0.56854248046875,0.45855712890625,-0.6246337890625,-8002,-1508,-476,-55,9,45
122534221,0.28302001953125,0.5699462890625,0.46002197265625,-0.61920166015625,-8009,-1668,-676,-57,8,44
122544208,0.28973388671875,0.571044921875,0.46173095703125,-0.61376953125,-8009,-1782,-840,-59,6,43
122554189,0.29632568359375,0.57183837890625,0.46368408203125,-0.6083984375,-7980,-1884,-957,-59,5,40
122564158,0.30279541015625,0.572021484375,0.46588134765625,-0.603271484375,-7916,-1848,-962,-61,4,32
122574142,0.3084716796875,0.57135009765625,0.4691162109375,-0.5985107421875,-7834,-1863,-1001,-64,4,19
122584124,0.313232421875,0.56976318359375,0.4735107421875,-0.5941162109375,-7731,-1974,-1107,-66,3,6
122594106,0.317138671875,0.5673828125,0.47882080078125,-0.590087890625,-7606,-2069,-1227,-66,2,-4
122604086,0.3203125,0.56451416015625,0.48468017578125,-0.5863037109375,-7452,-2144,-1342,-65,3,-13
122614066,0.32293701171875,0.5611572265625,0.490966796875,-0.58282470703125,-7321,-2237,-1415,-65,2,-20
122624048,0.32501220703125,0.5572509765625,0.4976806640625,-0.57977294921875,-7209,-2290,-1442,-65,2,-27
122634030,0.3265380859375,0.5528564453125,0.5047607421875,-0.5770263671875,-7145,-2401,-1486,-63,1,-34
122644017,0.32757568359375,0.548095703125,0.51190185546875,-0.5745849609375,-7102,-2530,-1523,-61,0,-38
122653994,0.32830810546875,0.543212890625,0.51910400390625,-0.5723876953125,-7111,-2682,-1588,-59,-1,-39
122663973,0.32891845703125,0.5382080078125,0.52606201171875,-0.57037353515625,-7141,-2846,-1674,-57,-2,-39
122673955,0.329345703125,0.53326416015625,0.53271484375,-0.568603515625,-7164,-3007,-1748,-54,-4,-38
122683939,0.3297119140625,0.52838134765625,0.53900146484375,-0.56707763671875,-7188,-3135,-1799,-50,-5,-38
122693922,0.32989501953125,0.5235595703125,0.544921875,-0.5657958984375,-7199,-3174,-1777,-47,-5,-38
122703902,0.330078125,0.5186767578125,0.550537109375,-0.56463623046875,-7159,-3037,-1706,-45,-6,-40
122713886,0.33013916015625,0.5135498046875,0.556396484375,-0.5635986328125,-7118,-2940,-1659,-47,-6,-44
122723866,0.33013916015625,0.50811767578125,0.5623779296875,-0.5626220703125,-7095,-2861,-1650,-47,-7,-47
122733849,0.33001708984375,0.50238037109375,0.568603515625,-0.56158447265625,-7116,-2835,-1674,-49,-8,-49
122743831,0.33001708984375,0.49639892578125,0.57489013671875,-0.5604248046875,-7154,-2811,-1716,-50,-8,-51
122753819,0.330078125,0.49029541015625,0.581298828125,-0.5592041015625,-7202,-2779,-1765,-52,-10,-51
122763805,0.33026123046875,0.48388671875,0.58770751953125,-0.55792236328125,-7229,-2760,-1784,-54,-11,-52
122773787,0.33074951171875,0.47735595703125,0.5941162109375,-0.5565185546875,-7244,-2759,-1766,-56,-12,-51
122783767,0.3316650390625,0.47076416015625,0.600341796875,-0.55487060546875,-7254,-2733,-1749,-58,-14,-48
122793743,0.33306884765625,0.464111328125,0.6064453125,-0.55303955078125,-7264,-2714,-1734,-60,-16,-45
122803726,0.3349609375,0.45751953125,0.6123046875,-0.5509033203125,-7278,-2721,-1737,-63,-18,-41
122813708,0.33740234375,0.45086669921875,0.61798095703125,-0.548583984375,-7277,-2766,-1743,-65,-20,-37
122823690,0.3402099609375,0.44427490234375,0.62335205078125,-0.54608154296875,-7297,-2814,-1787,-66,-23,-34
122833673,0.343505859375,0.4376220703125,0.62860107421875,-0.54345703125,-7335,-2898,-1843,-67,-26,-31
122843654,0.34698486328125,0.4307861328125,0.63360595703125,-0.540771484375,-7382,-2983,-1903,-68,-28,-31
122853637,0.35064697265625,0.42364501953125,0.63861083984375,-0.53826904296875,-7455,-3112,-1976,-68,-31,-32
122863619,0.354248046875,0.4161376953125,0.6435546875,-0.53582763671875,-7530,-3222,-2073,-68,-33,-35
122873601,0.35772705078125,0.40814208984375,0.64849853515625,-0.53369140625,-7584,-3335,-2161,-68,-36,-38
122883585,0.36114501953125,0.3997802734375,0.6534423828125,-0.53173828125,-7626,-3432,-2241,-67,-38,-41
122893566,0.36444091796875,0.3909912109375,0.6583251953125,-0.52996826171875,-7652,-3529,-2301,-66,-40,-44
122903548,0.36767578125,0.38189697265625,0.6630859375,-0.5284423828125,-7663,-3615,-2352,-65,-42,-46
122913530,0.37078857421875,0.37255859375,0.667724609375,-0.527099609375,-7673,-3694,-2385,-64,-44,-48
122923512,0.37384033203125,0.363037109375,0.67218017578125,-0.52587890625,-7684,-3787,-2419,-62,-45,-49
122933493,0.37677001953125,0.35333251953125,0.676513671875,-0.52490234375,-7691,-3880,-2468,-61,-47,-51
122943483,0.37957763671875,0.34344482421875,0.6806640625,-0.5240478515625,-7699,-3983,-2485,-60,-48,-52
122953469,0.38232421875,0.33343505859375,0.68463134765625,-0.5233154296875,-7689,-4071,-2517,-58,-49,-52
122963450,0.38507080078125,0.32342529296875,0.6883544921875,-0.522705078125,-7644,-4134,-2506,-57,-49,-52
122973432,0.38787841796875,0.3134765625,0.69189453125,-0.52203369140625,-7563,-4196,-2476,-56,-50,-51
122983410,0.3907470703125,0.30364990234375,0.695068359375,-0.52142333984375,-7456,-4258,-2437,-54,-51,-48
122993390,0.393798828125,0.294189453125,0.69805908203125,-0.5206298828125,-7361,-4312,-2404,-53,-51,-44
123003373,0.39703369140625,0.28497314453125,0.70074462890625,-0.5196533203125,-7286,-4357,-2370,-53,-51,-41
123013355,0.40032958984375,0.2760009765625,0.7032470703125,-0.51861572265625,-7247,-4405,-2342,-52,-51,-39
123023337,0.40362548828125,0.26708984375,0.70556640625,-0.517578125,-7226,-4454,-2294,-51,-51,-39
123033320,0.40692138671875,0.25811767578125,0.707763671875,-0.51654052734375,-7180,-4519,-2225,-51,-51,-39
123043304,0.41009521484375,0.2491455078125,0.70989990234375,-0.51556396484375,-7102,-4594,-2147,-50,-51,-39
123053290,0.4132080078125,0.2401123046875,0.7119140625,-0.5145263671875,-6974,-4648,-2050,-50,-50,-38
123063273,0.416259765625,0.2313232421875,0.71380615234375,-0.513427734375,-6840,-4665,-1943,-50,-49,-37
123073256,0.41943359375,0.22271728515625,0.715576171875,-0.51220703125,-6688,-4670,-1827,-49,-48,-35
123083240,0.4224853515625,0.21429443359375,0.71728515625,-0.51092529296875,-6570,-4666,-1724,-49,-47,-34
123093226,0.42547607421875,0.20599365234375,0.71893310546875,-0.509521484375,-6502,-4643,-1636,-49,-46,-34
123103208,0.42828369140625,0.1976318359375,0.7205810546875,-0.5081787109375,-6480,-4626,-1572,-48,-45,-36
123113189,0.4307861328125,0.1890869140625,0.7222900390625,-0.5068359375,-6486,-4602,-1514,-48,-44,-40
123123160,0.4329833984375,0.18017578125,0.72406005859375,-0.5057373046875,-6482,-4601,-1447,-48,-44,-44
123133141,0.4349365234375,0.17083740234375,0.72576904296875,-0.50482177734375,-6462,-4627,-1371,-48,-44,-48
123143125,0.4365234375,0.1612548828125,0.7275390625,-0.50408935546875,-6412,-4662,-1292,-48,-43,-51
123153105,0.43804931640625,0.151611328125,0.72918701171875,-0.50341796875,-6367,-4718,-1198,-48,-43,-52
123163087,0.43939208984375,0.14190673828125,0.730712890625,-0.50274658203125,-6329,-4797,-1122,-47,-42,-52
123173069,0.440673828125,0.13226318359375,0.73223876953125,-0.5020751953125,-6300,-4886,-1054,-47,-42,-52
123183052,0.44195556640625,0.122802734375,0.733642578125,-0.5013427734375,-6279,-4968,-1001,-46,-41,-50
123193036,0.44317626953125,0.11358642578125,0.73492431640625,-0.50054931640625,-6265,-5039,-951,-45,-40,-48
123203022,0.44451904296875,0.104736328125,0.736083984375,-0.49957275390625,-6246,-5088,-892,-45,-39,-45
123213001,0.4459228515625,0.09619140625,0.7371826171875,-0.4984130859375,-6217,-5131,-856,-44,-39,-42
123222981,0.44744873046875,0.08795166015625,0.73809814453125,-0.49713134765625,-6191,-5155,-797,-43,-38,-39
123232964,0.44903564453125,0.08013916015625,0.739013671875,-0.4957275390625,-6168,-5202,-748,-43,-37,-36
123242946,0.45074462890625,0.07269287109375,0.73980712890625,-0.494140625,-6142,-5262,-696,-42,-36,-33
123252928,0.4525146484375,0.0655517578125,0.740478515625,-0.49249267578125,-6090,-5321,-640,-42,-35,-30
123262912,0.45440673828125,0.058837890625,0.74114990234375,-0.4906005859375,-6032,-5377,-600,-41,-34,-26
123272892,0.45635986328125,0.05255126953125,0.74176025390625,-0.48858642578125,-5954,-5408,-553,-40,-33,-22
123282875,0.45843505859375,0.04681396484375,0.7423095703125,-0.4864501953125,-5864,-5449,-497,-39,-32,-17
123292856,0.4605712890625,0.04156494140625,0.7427978515625,-0.48406982421875,-5820,-5483,-463,-39,-30,-14
123302840,0.46282958984375,0.0367431640625,0.74334716796875,-0.48150634765625,-5807,-5530,-452,-38,-28,-10
123312821,0.4649658203125,0.03228759765625,0.743896484375,-0.47894287109375,-5820,-5563,-450,-37,-27,-9
123322802,0.467041015625,0.028076171875,0.74444580078125,-0.476318359375,-5853,-5609,-460,-36,-26,-8
123332794,0.46905517578125,0.02398681640625,0.74493408203125,-0.47369384765625,-5873,-5625,-466,-35,-24,-8
123342775,0.47088623046875,0.02001953125,0.7454833984375,-0.47125244140625,-5858,-5656,-462,-34,-24,-8
123352751,0.47265625,0.01617431640625,0.7459716796875,-0.4688720703125,-5820,-5686,-475,-33,-22,-7
123362733,0.4742431640625,0.01251220703125,0.74652099609375,-0.46649169921875,-5778,-5713,-482,-32,-21,-6
123372718,0.475830078125,0.0091552734375,0.74700927734375,-0.46417236328125,-5740,-5735,-470,-31,-19,-4
123382697,0.4774169921875,0.006103515625,0.74749755859375,-0.46185302734375,-5710,-5752,-470,-30,-18,-3
123392676,0.4788818359375,0.0032958984375,0.74798583984375,-0.45953369140625,-5698,-5768,-476,-28,-16,-2
123402658,0.48016357421875,0.000732421875,0.74847412109375,-0.45733642578125,-5693,-5794,-502,-27,-15,-1
123412642,0.48138427734375,-0.001708984375,0.7490234375,-0.4552001953125,-5701,-5836,-533,-26,-14,-1
123422624,0.48248291015625,-0.00396728515625,0.74951171875,-0.453125,-5698,-5869,-566,-24,-13,-1
123432613,0.4835205078125,-0.00604248046875,0.75,-0.45123291015625,-5692,-5893,-605,-23,-11,0
123442590,0.484375,-0.008056640625,0.75048828125,-0.449462890625,-5675,-5902,-646,-22,-10,0
123452577,0.48516845703125,-0.00982666015625,0.75103759765625,-0.44769287109375,-5650,-5896,-684,-20,-9,0
123462555,0.48590087890625,-0.011474609375,0.75146484375,-0.44610595703125,-5640,-5879,-713,-19,-9,0
123472537,0.486572265625,-0.01300048828125,0.75189208984375,-0.444580078125,-5639,-5847,-760,-18,-8,0
123482519,0.4871826171875,-0.01446533203125,0.7523193359375,-0.443115234375,-5658,-5826,-796,-17,-7,0
123492503,0.4876708984375,-0.01580810546875,0.75274658203125,-0.44183349609375,-5679,-5823,-851,-16,-6,-1
123502483,0.488037109375,-0.0172119140625,0.753173828125,-0.440673828125,-5679,-5818,-910,-15,-6,-2
123512471,0.48834228515625,-0.01849365234375,0.75360107421875,-0.4395751953125,-5686,-5820,-953,-13,-6,-2
123522451,0.48858642578125,-0.0196533203125,0.75390625,-0.43865966796875,-5670,-5829,-987,-12,-5,-2
123532441,0.4888916015625,-0.02069091796875,0.75421142578125,-0.437744140625,-5653,-5833,-1015,-11,-5,0
123542411,0.4892578125,-0.021484375,0.7545166015625,-0.4368896484375,-5643,-5841,-1059,-10,-4,1
123552394,0.489501953125,-0.0220947265625,0.7547607421875,-0.43603515625,-5635,-5850,-1090,-9,-4,2
123562378,0.48980712890625,-0.0224609375,0.7550048828125,-0.435302734375,-5645,-5855,-1121,-7,-3,3
123572360,0.4901123046875,-0.0228271484375,0.7552490234375,-0.4345703125,-5648,-5834,-1153,-7,-3,3
123582342,0.49041748046875,-0.0230712890625,0.75537109375,-0.4339599609375,-5642,-5807,-1163,-6,-3,3
123592327,0.4906005859375,-0.0233154296875,0.75555419921875,-0.4334716796875,-5623,-5764,-1168,-5,-2,2
123602308,0.49078369140625,-0.02349853515625,0.75567626953125,-0.43304443359375,-5619,-5724,-1176,-4,-2,1
123612290,0.4908447265625,-0.02374267578125,0.7557373046875,-0.4327392578125,-5630,-5696,-1187,-3,-2,0
123622278,0.49090576171875,-0.02398681640625,0.75579833984375,-0.4326171875,-5647,-5676,-1194,-2,-2,-1
123632251,0.4908447265625,-0.0242919921875,0.755859375,-0.4326171875,-5678,-5665,-1206,-1,-1,-2
123642240,0.49072265625,-0.02471923828125,0.75579833984375,-0.4327392578125,-5720,-5671,-1214,-1,-1,-4
123652222,0.49041748046875,-0.0252685546875,0.75579833984375,-0.43310546875,-5759,-5678,-1239,0,-1,-6
123662202,0.4901123046875,-0.02593994140625,0.75567626953125,-0.43359375,-5791,-5693,-1251,1,-1,-8
123672180,0.48968505859375,-0.026611328125,0.75555419921875,-0.43426513671875,-5815,-5692,-1261,2,-1,-9
123682155,0.48919677734375,-0.0274658203125,0.75543212890625,-0.43499755859375,-5832,-5708,-1270,2,-1,-10
123692139,0.4886474609375,-0.0283203125,0.7552490234375,-0.4359130859375,-5866,-5721,-1285,3,-1,-11
123702122,0.48809814453125,-0.02923583984375,0.7550048828125,-0.43682861328125,-5910,-5730,-1301,3,-1,-12
123712105,0.4874267578125,-0.0301513671875,0.7547607421875,-0.43792724609375,-5919,-5732,-1302,4,-1,-13
123722088,0.48681640625,-0.03106689453125,0.75445556640625,-0.43914794921875,-5921,-5720,-1305,5,-1,-13
123732074,0.486083984375,-0.03192138671875,0.75421142578125,-0.4403076171875,-5904,-5695,-1309,5,0,-13
123742054,0.48541259765625,-0.03271484375,0.75396728515625,-0.44140625,-5889,-5679,-1310,5,0,-12
123752036,0.4847412109375,-0.0333251953125,0.75372314453125,-0.4425048828125,-5838,-5653,-1294,5,1,-11
123762025,0.48406982421875,-0.0338134765625,0.7535400390625,-0.44354248046875,-5774,-5623,-1283,5,1,-10
123772001,0.4833984375,-0.0340576171875,0.75335693359375,-0.44451904296875,-5700,-5586,-1265,5,2,-8
123781983,0.4827880859375,-0.03411865234375,0.75323486328125,-0.44537353515625,-5642,-5559,-1261,5,3,-6
123791964,0.48223876953125,-0.03387451171875,0.75311279296875,-0.44610595703125,-5606,-5537,-1239,6,3,-4
123801946,0.481689453125,-0.033447265625,0.75311279296875,-0.44683837890625,-5566,-5520,-1243,6,4,-3
123811926,0.4810791015625,-0.032958984375,0.75311279296875,-0.447509765625,-5539,-5526,-1233,6,5,-2
123821912,0.48040771484375,-0.0323486328125,0.753173828125,-0.4481201171875,-5515,-5529,-1250,6,6,-1
123831892,0.479736328125,-0.0316162109375,0.7532958984375,-0.44879150390625,-5490,-5550,-1245,6,7,-1
123841879,0.47894287109375,-0.03082275390625,0.75341796875,-0.44940185546875,-5468,-5560,-1243,6,8,0
123851857,0.47821044921875,-0.0299072265625,0.75360107421875,-0.45001220703125,-5433,-5555,-1240,7,8,1
123861839,0.4774169921875,-0.02880859375,0.7537841796875,-0.4505615234375,-5414,-5554,-1225,7,9,2
123871821,0.4766845703125,-0.027587890625,0.75396728515625,-0.451171875,-5386,-5565,-1218,7,10,3
123881801,0.475830078125,-0.02618408203125,0.75421142578125,-0.45172119140625,-5384,-5579,-1223,8,10,3
123891792,0.4749755859375,-0.0247802734375,0.75445556640625,-0.4522705078125,-5386,-5583,-1226,8,11,3
123901774,0.47406005859375,-0.02325439453125,0.75469970703125,-0.452880859375,-5399,-5588,-1213,8,12,3
123911750,0.47308349609375,-0.021728515625,0.7550048828125,-0.4534912109375,-5419,-5589,-1223,9,12,3
123921732,0.47210693359375,-0.0201416015625,0.7552490234375,-0.45416259765625,-5440,-5625,-1215,9,13,3
123931713,0.47100830078125,-0.0185546875,0.7554931640625,-0.45489501953125,-5465,-5661,-1216,9,13,3
123941696,0.4698486328125,-0.01702880859375,0.75579833984375,-0.4556884765625,-5484,-5666,-1234,9,14,2
123951677,0.46868896484375,-0.01544189453125,0.756103515625,-0.45648193359375,-5510,-5675,-1236,10,14,2
123961659,0.46746826171875,-0.0137939453125,0.75634765625,-0.45733642578125,-5533,-5663,-1242,10,14,2
123971644,0.46624755859375,-0.01220703125,0.756591796875,-0.458251953125,-5564,-5679,-1243,11,14,2
123981625,0.46502685546875,-0.010498046875,0.75677490234375,-0.45916748046875,-5589,-5679,-1253,11,14,1
123991608,0.46380615234375,-0.00885009765625,0.75701904296875,-0.46014404296875,-5614,-5677,-1253,11,14,1
124001588,0.46258544921875,-0.00714111328125,0.7572021484375,-0.46112060546875,-5639,-5682,-1259,12,14,2
124011577,0.46142578125,-0.00537109375,0.75732421875,-0.4620361328125,-5699,-5672,-1271,12,14,2
124021553,0.46026611328125,-0.00360107421875,0.7574462890625,-0.46307373046875,-5736,-5685,-1271,12,14,2
124031537,0.4591064453125,-0.0018310546875,0.75750732421875,-0.46405029296875,-5783,-5705,-1278,12,14,2
124041519,0.4580078125,-6.103515625e-05,0.757568359375,-0.465087890625,-5809,-5718,-1269,13,13,1
124051502,0.4569091796875,0.00164794921875,0.757568359375,-0.46612548828125,-5837,-5725,-1268,13,13,2
124061483,0.4559326171875,0.00341796875,0.75750732421875,-0.4671630859375,-5854,-5714,-1258,13,12,2
124071472,0.4549560546875,0.0052490234375,0.75750732421875,-0.4681396484375,-5854,-5698,-1253,13,12,3
124081452,0.45404052734375,0.007080078125,0.7574462890625,-0.4691162109375,-5838,-5695,-1247,13,12,4
124091436,0.4532470703125,0.00897216796875,0.75732421875,-0.47003173828125,-5821,-5685,-1242,13,11,5
124101412,0.45245361328125,0.0108642578125,0.7572021484375,-0.47088623046875,-5796,-5677,-1237,13,11,5
124111393,0.4517822265625,0.0128173828125,0.757080078125,-0.47174072265625,-5766,-5662,-1234,13,11,5
124121377,0.4510498046875,0.01483154296875,0.7569580078125,-0.47259521484375,-5758,-5659,-1222,13,11,6
124131358,0.450439453125,0.0167236328125,0.75677490234375,-0.473388671875,-5754,-5642,-1213,13,10,6
124141340,0.44976806640625,0.0186767578125,0.756591796875,-0.47418212890625,-5759,-5625,-1209,12,10,5
124151327,0.44903564453125,0.0205078125,0.7564697265625,-0.47503662109375,-5766,-5616,-1206,12,10,4
124161304,0.44830322265625,0.022216796875,0.75628662109375,-0.4759521484375,-5762,-5615,-1206,12,10,4
124171290,0.44757080078125,0.02392578125,0.756103515625,-0.476806640625,-5781,-5610,-1207,12,10,3
124181275,0.44677734375,0.0255126953125,0.75592041015625,-0.47772216796875,-5782,-5626,-1211,12,10,3
124191257,0.446044921875,0.027099609375,0.7557373046875,-0.4786376953125,-5778,-5629,-1206,12,9,2
124201240,0.44525146484375,0.028564453125,0.75555419921875,-0.47955322265625,-5773,-5637,-1200,12,9,2
124211228,0.44451904296875,0.03009033203125,0.75537109375,-0.48046875,-5763,-5636,-1198,12,9,2
124221210,0.44378662109375,0.03155517578125,0.755126953125,-0.48138427734375,-5766,-5645,-1201,12,9,2
124231193,0.44305419921875,0.032958984375,0.75494384765625,-0.4822998046875,-5760,-5653,-1217,12,8,2
124241162,0.4423828125,0.034423828125,0.7547607421875,-0.483154296875,-5761,-5651,-1223,11,8,2
124251146,0.4417724609375,0.03582763671875,0.7545166015625,-0.4840087890625,-5767,-5657,-1217,12,8,3
124261127,0.441162109375,0.0372314453125,0.75421142578125,-0.48486328125,-5775,-5662,-1218,11,8,3
124271109,0.4405517578125,0.0386962890625,0.75396728515625,-0.4857177734375,-5788,-5667,-1219,12,8,2
124281092,0.44000244140625,0.0400390625,0.753662109375,-0.486572265625,-5805,-5671,-1212,11,7,3
124291076,0.43939208984375,0.0413818359375,0.75335693359375,-0.4874267578125,-5814,-5658,-1195,11,7,2
124301057,0.43878173828125,0.0426025390625,0.75311279296875,-0.48828125,-5802,-5630,-1185,11,7,1
124311039,0.438232421875,0.04376220703125,0.7528076171875,-0.48919677734375,-5811,-5602,-1174,11,6,1
124321027,0.43756103515625,0.04486083984375,0.75250244140625,-0.4901123046875,-5815,-5604,-1181,11,6,0
124331011,0.4368896484375,0.04583740234375,0.75225830078125,-0.49102783203125,-5828,-5617,-1158,10,6,-1
124340984,0.43621826171875,0.0467529296875,0.751953125,-0.491943359375,-5832,-5637,-1150,10,6,-1
124350967,0.435546875,0.047607421875,0.751708984375,-0.49285888671875,-5822,-5662,-1140,10,6,-2
124360949,0.43487548828125,0.04840087890625,0.75146484375,-0.4937744140625,-5807,-5685,-1143,10,6,-1
124370933,0.4342041015625,0.04925537109375,0.751220703125,-0.49468994140625,-5794,-5679,-1132,9,6,-1
124380923,0.43359375,0.0501708984375,0.7509765625,-0.4954833984375,-5766,-5669,-1109,9,6,0
124390901,0.43304443359375,0.05108642578125,0.750732421875,-0.49615478515625,-5757,-5651,-1087,8,6,1
124400883,0.4324951171875,0.05206298828125,0.75054931640625,-0.49688720703125,-5743,-5645,-1098,8,6,1
124410866,0.43194580078125,0.05303955078125,0.7503662109375,-0.49749755859375,-5743,-5631,-1101,8,6,1
124420847,0.43145751953125,0.053955078125,0.75018310546875,-0.49810791015625,-5744,-5613,-1086,8,6,0
124430831,0.43084716796875,0.0548095703125,0.75006103515625,-0.49871826171875,-5737,-5609,-1076,7,6,0
124440819,0.4302978515625,0.05560302734375,0.74993896484375,-0.499267578125,-5733,-5588,-1071,6,6,-1
124450797,0.4296875,0.05633544921875,0.7498779296875,-0.4998779296875,-5719,-5585,-1061,6,6,-1
124460780,0.4290771484375,0.0570068359375,0.749755859375,-0.50042724609375,-5714,-5569,-1046,6,5,-1
124470755,0.42852783203125,0.05767822265625,0.74969482421875,-0.50091552734375,-5726,-5563,-1049,5,5,-1
124480740,0.427978515625,0.058349609375,0.7496337890625,-0.50140380859375,-5743,-5563,-1045,5,5,-1
124490722,0.42742919921875,0.05889892578125,0.7496337890625,-0.5018310546875,-5757,-5548,-1038,5,5,-2
124500702,0.4268798828125,0.05938720703125,0.7496337890625,-0.50225830078125,-5764,-5553,-1039,4,5,-2
124510686,0.42633056640625,0.05987548828125,0.7496337890625,-0.502685546875,-5787,-5545,-1036,4,5,-2
124520670,0.42572021484375,0.06024169921875,0.7496337890625,-0.50311279296875,-5795,-5560,-1026,4,5,-3
124530650,0.42523193359375,0.060546875,0.74969482421875,-0.50347900390625,-5791,-5565,-1034,3,4,-3
124540632,0.4246826171875,0.060791015625,0.74969482421875,-0.50384521484375,-5799,-5568,-1036,3,4,-3
124550618,0.4241943359375,0.06103515625,0.749755859375,-0.504150390625,-5816,-5576,-1053,2,3,-3
124560598,0.42376708984375,0.06121826171875,0.749755859375,-0.50439453125,-5833,-5586,-1068,2,2,-3
124570579,0.42340087890625,0.06146240234375,0.74981689453125,-0.50469970703125,-5841,-5582,-1074,2,3,-2
124580563,0.423095703125,0.0616455078125,0.74981689453125,-0.5048828125,-5855,-5582,-1078,2,2,-2
124590545,0.4228515625,0.06182861328125,0.74981689453125,-0.50506591796875,-5879,-5592,-1084,2,2,-2
124600527,0.422607421875,0.06195068359375,0.74981689453125,-0.5052490234375,-5886,-5601,-1083,1,1,-2
124610504,0.42242431640625,0.06201171875,0.74981689453125,-0.50543212890625,-5894,-5608,-1097,1,1,-3
124620487,0.4222412109375,0.06201171875,0.74981689453125,-0.505615234375,-5885,-5609,-1090,1,1,-3
124630468,0.422119140625,0.06195068359375,0.74981689453125,-0.5057373046875,-5890,-5609,-1092,0,0,-3
124640456,0.4219970703125,0.0618896484375,0.74981689453125,-0.50579833984375,-5891,-5610,-1091,0,0,-3
124650441,0.42193603515625,0.06182861328125,0.749755859375,-0.50592041015625,-5884,-5625,-1081,0,-1,-2
124660412,0.42193603515625,0.06182861328125,0.74969482421875,-0.5059814453125,-5889,-5630,-1090,0,-1,-2
124670401,0.42205810546875,0.061767578125,0.74969482421875,-0.5059814453125,-5890,-5646,-1089,0,-1,-1
124680385,0.42218017578125,0.061767578125,0.7496337890625,-0.505859375,-5887,-5647,-1085,-1,-2,0
124690363,0.42236328125,0.061767578125,0.74957275390625,-0.50579833984375,-5884,-5655,-1082,-1,-2,0
124700345,0.42266845703125,0.06182861328125,0.74951171875,-0.50567626953125,-5883,-5651,-1094,-1,-2,0
124710327,0.42291259765625,0.06182861328125,0.74945068359375,-0.50555419921875,-5877,-5651,-1087,-1,-2,0
124720308,0.4232177734375,0.061767578125,0.7493896484375,-0.50543212890625,-5866,-5651,-1090,-1,-3,0
124730290,0.42352294921875,0.06170654296875,0.74932861328125,-0.50531005859375,-5853,-5655,-1093,-1,-3,0
124740277,0.423828125,0.06158447265625,0.74920654296875,-0.50518798828125,-5841,-5669,-1090,-1,-3,0
124750261,0.4241943359375,0.0614013671875,0.7491455078125,-0.50506591796875,-5840,-5674,-1085,-1,-3,0
124760241,0.42449951171875,0.061279296875,0.7490234375,-0.50494384765625,-5833,-5673,-1081,-2,-3,0
124770222,0.4248046875,0.06103515625,0.74896240234375,-0.50482177734375,-5825,-5673,-1087,-2,-4,0
124780214,0.4251708984375,0.060791015625,0.74884033203125,-0.50469970703125,-5820,-5691,-1089,-2,-4,-1
124790193,0.42547607421875,0.060546875,0.748779296875,-0.50457763671875,-5809,-5698,-1091,-2,-4,-1
124800163,0.42578125,0.06024169921875,0.74871826171875,-0.50445556640625,-5786,-5700,-1096,-2,-4,-1
124810151,0.42608642578125,0.05999755859375,0.74859619140625,-0.50433349609375,-5768,-5698,-1083,-2,-4,0
124820129,0.42645263671875,0.0596923828125,0.74853515625,-0.50421142578125,-5749,-5707,-1082,-2,-4,0
124830111,0.4268798828125,0.05950927734375,0.7484130859375,-0.5040283203125,-5737,-5699,-1064,-2,-4,0
124840093,0.42730712890625,0.05926513671875,0.748291015625,-0.50384521484375,-5718,-5696,-1051,-2,-4,1
124850075,0.42779541015625,0.05914306640625,0.74822998046875,-0.503662109375,-5704,-5702,-1056,-2,-4,1
124860058,0.42816162109375,0.0589599609375,0.74810791015625,-0.50347900390625,-5698,-5707,-1059,-2,-4,1
124870040,0.4285888671875,0.05877685546875,0.748046875,-0.50323486328125,-5701,-5712,-1058,-2,-4,1
124880026,0.42901611328125,0.05853271484375,0.74798583984375,-0.5030517578125,-5683,-5720,-1061,-2,-4,0
124890011,0.4293212890625,0.05828857421875,0.74786376953125,-0.50286865234375,-5678,-5728,-1062,-2,-4,0
124899987,0.4296875,0.0579833984375,0.747802734375,-0.50274658203125,-5669,-5735,-1068,-2,-4,0
124909971,0.42999267578125,0.05767822265625,0.747802734375,-0.5025634765625,-5651,-5742,-1073,-2,-4,0
124919951,0.43023681640625,0.057373046875,0.74774169921875,-0.50244140625,-5647,-5734,-1075,-2,-4,0
124929934,0.4305419921875,0.05706787109375,0.7476806640625,-0.5023193359375,-5631,-5732,-1075,-2,-4,-1
