subject,Joshua Spiesman
arm,right
label,1
hz,100.17746956893463
time,4.63178

timestamp_us,q0,q1,q2,q3,ax,ay,az,gx,gy,gz
205207115,0.55450439453125,0.11962890625,0.742919921875,-0.3553466796875,-7521,-3083,-988,-15,0,-5
205217098,0.55450439453125,0.1182861328125,0.74365234375,-0.35418701171875,-7548,-3066,-1014,-15,0,-6
205227085,0.55450439453125,0.11688232421875,0.744384765625,-0.35308837890625,-7576,-3056,-1025,-16,0,-6
205237064,0.5545654296875,0.11541748046875,0.7451171875,-0.3519287109375,-7581,-3030,-1027,-16,0,-6
205247048,0.5546875,0.11395263671875,0.745849609375,-0.3507080078125,-7581,-3006,-1025,-17,-1,-5
205257029,0.554931640625,0.1126708984375,0.7464599609375,-0.349365234375,-7551,-2987,-1026,-17,-1,-3
205267015,0.55523681640625,0.1114501953125,0.74713134765625,-0.347900390625,-7537,-2964,-1033,-17,-1,-1
205276995,0.55572509765625,0.11041259765625,0.7476806640625,-0.34625244140625,-7526,-2957,-1033,-17,-2,0
205286975,0.5562744140625,0.10943603515625,0.74822998046875,-0.344482421875,-7517,-2938,-1032,-18,-2,2
205296959,0.55694580078125,0.10858154296875,0.74871826171875,-0.3426513671875,-7520,-2940,-1038,-18,-3,3
205306938,0.5577392578125,0.107666015625,0.7491455078125,-0.34075927734375,-7511,-2939,-1036,-18,-4,3
205316921,0.5584716796875,0.106689453125,0.74951171875,-0.33892822265625,-7509,-2945,-1040,-18,-4,3
205326905,0.55926513671875,0.1055908203125,0.74993896484375,-0.33709716796875,-7537,-2941,-1055,-18,-4,2
205336887,0.56005859375,0.1043701171875,0.75030517578125,-0.33538818359375,-7557,-2946,-1067,-18,-5,0
205346870,0.56072998046875,0.1029052734375,0.7506103515625,-0.3338623046875,-7587,-2949,-1068,-18,-6,-3
205356849,0.5614013671875,0.1011962890625,0.7509765625,-0.33251953125,-7596,-2941,-1078,-18,-6,-5
205366832,0.56201171875,0.09930419921875,0.75128173828125,-0.331298828125,-7598,-2941,-1088,-18,-7,-7
205376819,0.5626220703125,0.09716796875,0.7515869140625,-0.33026123046875,-7604,-2948,-1091,-18,-7,-9
205386801,0.56317138671875,0.09490966796875,0.75189208984375,-0.329345703125,-7629,-2957,-1107,-18,-8,-11
205396784,0.56365966796875,0.09246826171875,0.75213623046875,-0.32855224609375,-7660,-2974,-1113,-18,-8,-12
205406766,0.564208984375,0.0899658203125,0.75238037109375,-0.32781982421875,-7706,-2986,-1138,-17,-9,-12
205416743,0.56475830078125,0.08746337890625,0.7525634765625,-0.32708740234375,-7728,-3011,-1148,-17,-9,-12
205426726,0.56536865234375,0.0850830078125,0.752685546875,-0.326416015625,-7741,-3025,-1158,-17,-9,-12
205436710,0.56597900390625,0.08270263671875,0.7528076171875,-0.32568359375,-7755,-3047,-1171,-16,-9,-11
205446691,0.56671142578125,0.08056640625,0.7528076171875,-0.32489013671875,-7758,-3064,-1174,-16,-10,-9
205456674,0.5675048828125,0.07855224609375,0.7528076171875,-0.323974609375,-7759,-3076,-1184,-15,-10,-7
205466656,0.568359375,0.07672119140625,0.75274658203125,-0.322998046875,-7776,-3084,-1183,-15,-10,-6
205476640,0.5693359375,0.0750732421875,0.75262451171875,-0.322021484375,-7759,-3087,-1166,-14,-10,-4
205486622,0.5703125,0.07354736328125,0.75250244140625,-0.3209228515625,-7748,-3089,-1159,-14,-10,-3
205496604,0.57135009765625,0.07220458984375,0.7523193359375,-0.31982421875,-7731,-3086,-1146,-14,-10,-2
205506587,0.5723876953125,0.07098388671875,0.75213623046875,-0.31866455078125,-7712,-3068,-1138,-13,-10,-1
205516577,0.573486328125,0.06988525390625,0.75189208984375,-0.31744384765625,-7689,-3056,-1124,-13,-10,0
205526554,0.5745849609375,0.06890869140625,0.751708984375,-0.3162841796875,-7664,-3059,-1121,-13,-10,1
205536534,0.57568359375,0.0679931640625,0.75146484375,-0.31500244140625,-7651,-3043,-1103,-12,-10,2
205546517,0.5767822265625,0.06719970703125,0.75115966796875,-0.31378173828125,-7619,-3038,-1080,-12,-10,2
205556499,0.577880859375,0.06640625,0.7508544921875,-0.3126220703125,-7598,-3034,-1058,-11,-9,2
205566483,0.57891845703125,0.065673828125,0.7506103515625,-0.31146240234375,-7581,-3007,-1048,-11,-9,2
205576470,0.5799560546875,0.06494140625,0.7503662109375,-0.31036376953125,-7562,-2986,-1045,-10,-9,2
205586450,0.58087158203125,0.06414794921875,0.7501220703125,-0.30938720703125,-7555,-2969,-1039,-10,-8,1
205596447,0.58172607421875,0.06329345703125,0.74993896484375,-0.3084716796875,-7566,-2969,-1030,-10,-8,-1
205606414,0.58245849609375,0.06231689453125,0.74969482421875,-0.3077392578125,-7584,-2958,-1027,-9,-8,-2
205616396,0.58319091796875,0.061279296875,0.74951171875,-0.30706787109375,-7591,-2955,-1023,-9,-8,-3
205626385,0.58380126953125,0.0601806640625,0.74932861328125,-0.30657958984375,-7614,-2955,-1016,-8,-8,-4
205636359,0.58447265625,0.05914306640625,0.74908447265625,-0.30609130859375,-7622,-2960,-1009,-8,-8,-4
205646343,0.58514404296875,0.05804443359375,0.74884033203125,-0.3056640625,-7630,-2960,-1002,-7,-8,-4
205656327,0.58587646484375,0.05706787109375,0.74853515625,-0.30517578125,-7649,-2969,-999,-7,-8,-3
205666307,0.58660888671875,0.05621337890625,0.7481689453125,-0.30474853515625,-7667,-2962,-986,-7,-9,-3
205676291,0.58740234375,0.055419921875,0.747802734375,-0.30426025390625,-7684,-2965,-989,-6,-9,-2
205686275,0.58831787109375,0.0548095703125,0.74737548828125,-0.30377197265625,-7702,-2977,-999,-6,-9,0
205696261,0.5892333984375,0.05426025390625,0.74688720703125,-0.30322265625,-7717,-2987,-990,-6,-10,0
205706245,0.5902099609375,0.05377197265625,0.746337890625,-0.30267333984375,-7721,-2991,-979,-5,-10,1
205716223,0.59124755859375,0.05340576171875,0.74578857421875,-0.30218505859375,-7723,-2992,-984,-4,-10,2
205726217,0.59234619140625,0.05303955078125,0.74517822265625,-0.30169677734375,-7733,-3002,-985,-4,-11,2
205736196,0.5933837890625,0.052734375,0.7445068359375,-0.30120849609375,-7741,-3002,-986,-4,-11,2
205746174,0.594482421875,0.05230712890625,0.74383544921875,-0.30084228515625,-7745,-3013,-981,-3,-11,1
205756149,0.59552001953125,0.0518798828125,0.7431640625,-0.300537109375,-7744,-3004,-957,-3,-11,0
205766131,0.59661865234375,0.05145263671875,0.742431640625,-0.30035400390625,-7744,-2998,-938,-2,-11,0
205776115,0.59759521484375,0.05096435546875,0.74163818359375,-0.3001708984375,-7756,-2984,-920,-2,-12,-1
205786094,0.5986328125,0.0504150390625,0.74090576171875,-0.30010986328125,-7761,-2964,-921,-2,-12,-2
205796073,0.599609375,0.04986572265625,0.74017333984375,-0.30010986328125,-7749,-2944,-896,-1,-12,-2
205806054,0.60064697265625,0.04931640625,0.73931884765625,-0.3001708984375,-7733,-2924,-865,-1,-12,-2
205816037,0.6016845703125,0.04888916015625,0.738525390625,-0.30010986328125,-7710,-2900,-833,-1,-12,-1
205826028,0.602783203125,0.04864501953125,0.73773193359375,-0.29998779296875,-7673,-2868,-763,-1,-11,1
205836009,0.60400390625,0.04864501953125,0.73687744140625,-0.29962158203125,-7675,-2843,-705,-1,-11,4
205845985,0.60528564453125,0.0489501953125,0.7359619140625,-0.29913330078125,-7690,-2820,-659,-1,-11,6
205855971,0.606689453125,0.04937744140625,0.73504638671875,-0.29852294921875,-7741,-2806,-629,0,-11,8
205865953,0.608154296875,0.05010986328125,0.734130859375,-0.29766845703125,-7802,-2777,-604,0,-11,11
205875933,0.60980224609375,0.05108642578125,0.73309326171875,-0.29669189453125,-7851,-2730,-568,0,-12,14
205885917,0.611572265625,0.0523681640625,0.7320556640625,-0.29547119140625,-7906,-2706,-546,1,-12,17
205895899,0.61346435546875,0.05389404296875,0.73089599609375,-0.2940673828125,-7978,-2697,-516,1,-13,20
205905882,0.6156005859375,0.05572509765625,0.7296142578125,-0.29248046875,-8043,-2668,-470,1,-14,23
205915864,0.6177978515625,0.05780029296875,0.728271484375,-0.29071044921875,-8080,-2627,-383,2,-13,26
205925847,0.62017822265625,0.0601806640625,0.72686767578125,-0.28875732421875,-8102,-2578,-309,2,-14,28
205935827,0.62255859375,0.06268310546875,0.72540283203125,-0.28668212890625,-8120,-2532,-260,2,-14,30
205945807,0.62506103515625,0.06536865234375,0.723876953125,-0.2845458984375,-8180,-2471,-214,2,-14,30
205955799,0.62750244140625,0.06793212890625,0.72235107421875,-0.282470703125,-8228,-2444,-171,3,-14,30
205965779,0.6298828125,0.0703125,0.72076416015625,-0.28070068359375,-8292,-2412,-149,4,-15,27
205975756,0.63214111328125,0.072509765625,0.71905517578125,-0.27923583984375,-8378,-2371,-141,4,-16,23
205985739,0.63427734375,0.07427978515625,0.7174072265625,-0.2781982421875,-8434,-2340,-145,6,-16,19
205995722,0.63641357421875,0.07586669921875,0.71563720703125,-0.2774658203125,-8444,-2293,-113,6,-17,16
206005703,0.63848876953125,0.07733154296875,0.71380615234375,-0.27703857421875,-8453,-2250,-85,7,-18,14
206015689,0.64056396484375,0.07879638671875,0.7119140625,-0.27679443359375,-8502,-2209,-58,9,-19,13
206025670,0.64276123046875,0.08038330078125,0.7098388671875,-0.2764892578125,-8555,-2186,-19,10,-20,15
206035652,0.6451416015625,0.08221435546875,0.7076416015625,-0.276123046875,-8609,-2178,14,11,-21,18
206045636,0.64764404296875,0.0843505859375,0.70526123046875,-0.275634765625,-8638,-2199,65,12,-22,22
206055619,0.65032958984375,0.08685302734375,0.70269775390625,-0.2750244140625,-8651,-2216,77,13,-23,25
206065602,0.6531982421875,0.0897216796875,0.70001220703125,-0.27423095703125,-8635,-2231,91,14,-24,29
206075584,0.6561279296875,0.09283447265625,0.69720458984375,-0.2733154296875,-8614,-2215,91,15,-25,31
206085566,0.6591796875,0.09619140625,0.69427490234375,-0.2723388671875,-8578,-2186,85,17,-26,33
206095548,0.6622314453125,0.099609375,0.69122314453125,-0.271484375,-8518,-2152,79,18,-27,33
206105530,0.665283203125,0.1031494140625,0.68804931640625,-0.270751953125,-8459,-2115,94,20,-27,32
206115512,0.66827392578125,0.10662841796875,0.684814453125,-0.27020263671875,-8414,-2085,107,21,-27,32
206125495,0.671142578125,0.11029052734375,0.6815185546875,-0.26983642578125,-8362,-2062,116,23,-27,32
206135483,0.67401123046875,0.114013671875,0.67822265625,-0.2696533203125,-8297,-2035,113,24,-27,31
206145467,0.6767578125,0.117919921875,0.6748046875,-0.26947021484375,-8241,-1987,121,26,-27,32
206159030,0.679443359375,0.12200927734375,0.67138671875,-0.26947021484375,-8185,-1946,126,28,-27,33
206165432,0.6820068359375,0.12628173828125,0.66796875,-0.2694091796875,-8131,-1918,151,29,-26,34
206175407,0.68450927734375,0.13079833984375,0.66455078125,-0.26947021484375,-8105,-1898,189,31,-25,34
206185389,0.6868896484375,0.13543701171875,0.6611328125,-0.2696533203125,-8083,-1865,239,32,-23,34
206195371,0.68902587890625,0.14013671875,0.65777587890625,-0.2698974609375,-8052,-1839,290,33,-22,34
206205355,0.6910400390625,0.1448974609375,0.6544189453125,-0.2703857421875,-8035,-1810,315,35,-21,33
206215337,0.69287109375,0.14984130859375,0.65118408203125,-0.2708740234375,-8002,-1764,335,36,-20,33
206225317,0.69451904296875,0.155029296875,0.64794921875,-0.27142333984375,-7950,-1711,349,38,-19,34
206235301,0.6961669921875,0.160400390625,0.64471435546875,-0.27191162109375,-7917,-1635,372,39,-18,35
206245290,0.69769287109375,0.1661376953125,0.64141845703125,-0.272216796875,-7896,-1560,412,40,-17,38
206255275,0.69921875,0.172119140625,0.63812255859375,-0.27252197265625,-7881,-1481,454,41,-16,39
206265256,0.70062255859375,0.1783447265625,0.634765625,-0.2725830078125,-7849,-1403,517,42,-15,41
206275240,0.70196533203125,0.18475341796875,0.63140869140625,-0.2725830078125,-7806,-1330,582,43,-13,43
206285226,0.70330810546875,0.19140625,0.6280517578125,-0.27239990234375,-7767,-1253,633,43,-13,45
206295209,0.70452880859375,0.1982421875,0.62469482421875,-0.27215576171875,-7708,-1176,670,44,-11,46
206305192,0.70562744140625,0.20513916015625,0.621337890625,-0.27178955078125,-7670,-1104,687,44,-10,47
206315161,0.70654296875,0.212158203125,0.6180419921875,-0.27154541015625,-7654,-1029,685,45,-9,46
206325144,0.70721435546875,0.21917724609375,0.6148681640625,-0.27142333984375,-7661,-949,708,46,-8,45
206335126,0.70770263671875,0.22613525390625,0.61181640625,-0.27142333984375,-7684,-862,722,47,-7,43
206345110,0.70806884765625,0.23321533203125,0.60870361328125,-0.27142333984375,-7724,-767,738,47,-5,43
206355092,0.70831298828125,0.2403564453125,0.60565185546875,-0.27142333984375,-7765,-665,775,48,-5,44
206365075,0.70843505859375,0.24761962890625,0.6025390625,-0.2713623046875,-7796,-570,810,49,-4,45
206375059,0.70849609375,0.25506591796875,0.59942626953125,-0.27117919921875,-7835,-455,841,49,-3,46
206385039,0.70855712890625,0.2626953125,0.59619140625,-0.2708740234375,-7841,-356,874,50,-3,48
206395028,0.70855712890625,0.2705078125,0.5928955078125,-0.27044677734375,-7859,-263,894,50,-2,49
206405008,0.70849609375,0.2784423828125,0.58953857421875,-0.27001953125,-7858,-177,896,52,-2,50
206414985,0.7083740234375,0.28643798828125,0.58599853515625,-0.26959228515625,-7887,-102,897,53,-3,51
206424968,0.70819091796875,0.2945556640625,0.58233642578125,-0.269287109375,-7908,-39,880,54,-3,51
206434950,0.70794677734375,0.30279541015625,0.57855224609375,-0.26898193359375,-7928,45,872,56,-4,52
206444933,0.7076416015625,0.3111572265625,0.5745849609375,-0.2686767578125,-7966,149,864,57,-5,53
206454916,0.70733642578125,0.31976318359375,0.57037353515625,-0.2684326171875,-8021,259,857,58,-6,55
206464898,0.70703125,0.32855224609375,0.56591796875,-0.26806640625,-8089,376,866,60,-6,57
206474881,0.70672607421875,0.33746337890625,0.56121826171875,-0.2677001953125,-8175,515,883,61,-7,58
206484862,0.70635986328125,0.34649658203125,0.5562744140625,-0.267333984375,-8246,687,915,62,-8,58
206494844,0.7059326171875,0.35552978515625,0.55120849609375,-0.26715087890625,-8299,864,934,64,-9,57
206504827,0.7054443359375,0.364501953125,0.54595947265625,-0.26708984375,-8295,1051,969,65,-10,56
206514808,0.70489501953125,0.37353515625,0.54052734375,-0.26708984375,-8256,1242,1018,66,-10,56
206524798,0.70428466796875,0.38275146484375,0.53485107421875,-0.2669677734375,-8204,1450,1077,67,-10,58
206534779,0.70379638671875,0.39215087890625,0.52899169921875,-0.2666015625,-8201,1657,1122,67,-10,62
206544755,0.7032470703125,0.4017333984375,0.52276611328125,-0.265869140625,-8226,1870,1173,67,-10,66
206554739,0.702880859375,0.41156005859375,0.51617431640625,-0.26470947265625,-8265,2104,1214,67,-11,71
206564720,0.70263671875,0.42169189453125,0.50921630859375,-0.26300048828125,-8252,2360,1261,67,-11,76
206574702,0.7025146484375,0.4320068359375,0.5018310546875,-0.26068115234375,-8207,2653,1316,66,-11,81
206584685,0.7025146484375,0.4425048828125,0.49407958984375,-0.2578125,-8123,2953,1365,65,-11,86
206594670,0.70257568359375,0.45306396484375,0.486083984375,-0.25439453125,-8042,3255,1412,64,-10,89
206604650,0.70263671875,0.46356201171875,0.47796630859375,-0.2506103515625,-7938,3541,1469,62,-9,91
206614632,0.70269775390625,0.473876953125,0.46990966796875,-0.24652099609375,-7838,3824,1516,60,-8,91
206624615,0.70263671875,0.48394775390625,0.4619140625,-0.24224853515625,-7753,4093,1555,58,-6,91
206634595,0.70245361328125,0.49371337890625,0.4541015625,-0.23773193359375,-7660,4370,1573,56,-5,89
206644579,0.7021484375,0.50311279296875,0.446533203125,-0.233154296875,-7605,4655,1566,53,-3,86
206654555,0.70172119140625,0.51202392578125,0.43939208984375,-0.2286376953125,-7622,4952,1543,50,-2,83
206664543,0.701171875,0.5205078125,0.4326171875,-0.22406005859375,-7690,5258,1518,47,0,79
206674521,0.7005615234375,0.52850341796875,0.42620849609375,-0.21954345703125,-7786,5520,1500,44,1,76
206684505,0.70001220703125,0.5361328125,0.419921875,-0.21484375,-7900,5755,1462,41,2,78
206694487,0.69970703125,0.54364013671875,0.41339111328125,-0.20953369140625,-7966,5965,1417,37,1,84
206704466,0.6998291015625,0.55120849609375,0.40625,-0.2032470703125,-7989,6190,1361,34,1,94
206714458,0.70037841796875,0.55889892578125,0.3983154296875,-0.1959228515625,-7962,6417,1319,30,0,104
206724440,0.7012939453125,0.5665283203125,0.3897705078125,-0.18768310546875,-7868,6665,1294,26,-1,112
206734415,0.7025146484375,0.5738525390625,0.380859375,-0.1788330078125,-7724,6910,1272,22,-1,114
206744396,0.7039794921875,0.58062744140625,0.37200927734375,-0.16973876953125,-7512,7143,1265,17,-1,114
206754385,0.70556640625,0.58685302734375,0.36328125,-0.16046142578125,-7291,7315,1263,12,0,112
206764362,0.707275390625,0.5924072265625,0.3548583984375,-0.15106201171875,-7080,7489,1262,7,0,110
206774345,0.7091064453125,0.5972900390625,0.3468017578125,-0.14166259765625,-6909,7643,1247,3,1,106
206784327,0.71099853515625,0.6014404296875,0.33929443359375,-0.13238525390625,-6782,7786,1207,-2,3,101
206794304,0.71295166015625,0.60491943359375,0.33233642578125,-0.12335205078125,-6657,7925,1154,-7,4,95
206804290,0.71490478515625,0.60772705078125,0.3260498046875,-0.1146240234375,-6547,8034,1093,-11,5,90
206814275,0.71697998046875,0.61004638671875,0.320068359375,-0.10589599609375,-6413,8098,1014,-15,5,88
206824258,0.71923828125,0.61199951171875,0.31414794921875,-0.0968017578125,-6252,8129,955,-19,6,91
206834240,0.72174072265625,0.61370849609375,0.307861328125,-0.08709716796875,-6124,8147,903,-23,7,97
206844228,0.72430419921875,0.61529541015625,0.30133056640625,-0.07672119140625,-6038,8201,865,-26,8,102
206854212,0.72698974609375,0.6165771484375,0.29473876953125,-0.06597900390625,-5962,8271,841,-29,9,104
206864193,0.72979736328125,0.617431640625,0.28826904296875,-0.0550537109375,-5895,8348,842,-32,10,103
206874162,0.7325439453125,0.6177978515625,0.2822265625,-0.04437255859375,-5871,8435,822,-35,11,98
206884144,0.73529052734375,0.61761474609375,0.27679443359375,-0.0341796875,-5864,8490,787,-38,12,92
206894127,0.738037109375,0.6170654296875,0.271728515625,-0.0242919921875,-5849,8491,741,-40,12,89
206904111,0.74078369140625,0.6163330078125,0.2666015625,-0.0142822265625,-5749,8468,707,-41,12,92
206914091,0.74346923828125,0.61566162109375,0.2608642578125,-0.00360107421875,-5562,8406,677,-42,11,100
206924075,0.74615478515625,0.61517333984375,0.25433349609375,0.008056640625,-5344,8309,670,-43,12,111
206934057,0.74871826171875,0.61474609375,0.2469482421875,0.020751953125,-5136,8246,677,-44,12,121
206944039,0.75115966796875,0.6142578125,0.23919677734375,0.03387451171875,-4901,8207,696,-45,13,124
206954027,0.75335693359375,0.61358642578125,0.23162841796875,0.04693603515625,-4668,8172,710,-45,13,120
206964011,0.75543212890625,0.612548828125,0.22454833984375,0.0594482421875,-4478,8138,737,-45,14,114
206973991,0.75738525390625,0.611328125,0.21795654296875,0.07135009765625,-4297,8092,780,-44,14,108
206983972,0.75909423828125,0.60992431640625,0.211669921875,0.08294677734375,-4133,7999,819,-44,15,106
206993956,0.7606201171875,0.6085205078125,0.20526123046875,0.094482421875,-3969,7874,854,-43,14,108
207003938,0.76190185546875,0.60723876953125,0.19854736328125,0.10614013671875,-3802,7754,893,-41,13,111
207013922,0.762939453125,0.60601806640625,0.1915283203125,0.1180419921875,-3608,7642,944,-39,12,114
207023904,0.763671875,0.6048583984375,0.18438720703125,0.12982177734375,-3410,7611,999,-38,12,113
207033884,0.76416015625,0.603759765625,0.177490234375,0.1412353515625,-3231,7599,1050,-36,12,109
207043868,0.76446533203125,0.6026611328125,0.17083740234375,0.152099609375,-3057,7519,1089,-34,11,105
207053850,0.7645263671875,0.60162353515625,0.16424560546875,0.1627197265625,-2904,7428,1130,-31,10,105
207063831,0.76422119140625,0.60089111328125,0.15728759765625,0.17340087890625,-2756,7328,1171,-28,8,109
207073819,0.7635498046875,0.600341796875,0.14990234375,0.18426513671875,-2554,7237,1243,-26,6,113
207083802,0.76263427734375,0.60003662109375,0.14208984375,0.1951904296875,-2337,7191,1315,-23,4,114
207093787,0.76141357421875,0.599853515625,0.13433837890625,0.20574951171875,-2102,7215,1376,-21,3,111
207103767,0.760009765625,0.5997314453125,0.1268310546875,0.21563720703125,-1868,7235,1435,-19,1,105
207113745,0.758544921875,0.59967041015625,0.11968994140625,0.224853515625,-1611,7214,1478,-16,0,100
207123729,0.7568359375,0.5997314453125,0.1124267578125,0.23388671875,-1325,7145,1519,-14,-1,100
207133706,0.75482177734375,0.5999755859375,0.1048583984375,0.24322509765625,-1028,7061,1550,-12,-2,105
207143689,0.75238037109375,0.60040283203125,0.0966796875,0.2530517578125,-728,6983,1582,-11,-3,111
207153671,0.7496337890625,0.600830078125,0.08831787109375,0.26300048828125,-459,6948,1619,-10,-2,112
207163653,0.7467041015625,0.60125732421875,0.08013916015625,0.2728271484375,-275,6984,1649,-9,-3,110
207173637,0.743896484375,0.6015625,0.07257080078125,0.28179931640625,-125,7046,1699,-8,-2,101
207183618,0.7412109375,0.601806640625,0.06585693359375,0.28973388671875,23,7105,1739,-7,-2,90
207193602,0.73870849609375,0.60211181640625,0.059814453125,0.296875,201,7117,1754,-5,-3,83
207203582,0.736083984375,0.60235595703125,0.05389404296875,0.3038330078125,424,7055,1768,-4,-2,82
207213566,0.73309326171875,0.6026611328125,0.04742431640625,0.31146240234375,686,6971,1779,-4,-2,91
207223548,0.7294921875,0.60302734375,0.04010009765625,0.3201904296875,926,6877,1790,-3,-1,104
207233530,0.7252197265625,0.60333251953125,0.0318603515625,0.330078125,1137,6805,1790,-3,-1,116
207243515,0.72052001953125,0.603515625,0.023193359375,0.340576171875,1289,6776,1769,-3,0,122
207253497,0.7156982421875,0.60357666015625,0.01470947265625,0.3509521484375,1410,6787,1759,-3,0,120
207263474,0.7110595703125,0.603515625,0.0067138671875,0.36053466796875,1555,6799,1739,-4,0,111
207273467,0.706787109375,0.60333251953125,-0.00048828125,0.36920166015625,1701,6797,1745,-3,0,101
207283451,0.7027587890625,0.60308837890625,-0.00714111328125,0.377197265625,1871,6751,1736,-3,0,94
207293431,0.69879150390625,0.60272216796875,-0.01361083984375,0.38482666015625,2042,6689,1739,-4,0,92
207303407,0.6947021484375,0.602294921875,-0.02020263671875,0.392578125,2255,6584,1727,-4,1,94
207313389,0.6903076171875,0.60174560546875,-0.02716064453125,0.400634765625,2457,6456,1719,-5,1,98
207323371,0.685791015625,0.6009521484375,-0.034423828125,0.40899658203125,2652,6359,1734,-6,1,101
207333354,0.6812744140625,0.59991455078125,-0.04150390625,0.417236328125,2819,6282,1769,-7,2,98
207343335,0.67706298828125,0.5987548828125,-0.04827880859375,0.425048828125,2921,6215,1769,-8,2,93
207353317,0.67303466796875,0.59747314453125,-0.05462646484375,0.432373046875,3028,6115,1786,-8,3,89
207363301,0.66912841796875,0.5960693359375,-0.06085205078125,0.4395751953125,3145,5999,1805,-9,3,88
207373280,0.6650390625,0.59454345703125,-0.06719970703125,0.44677734375,3291,5851,1822,-9,3,89
207383271,0.6607666015625,0.59283447265625,-0.07379150390625,0.4542236328125,3461,5667,1843,-9,3,92
207393254,0.65625,0.59100341796875,-0.08074951171875,0.46197509765625,3635,5493,1859,-10,4,96
207403240,0.65155029296875,0.58892822265625,-0.0877685546875,0.46990966796875,3808,5299,1888,-11,5,97
207413225,0.64678955078125,0.58673095703125,-0.0948486328125,0.4779052734375,3962,5129,1912,-11,5,97
207423208,0.64208984375,0.5843505859375,-0.10174560546875,0.48553466796875,4099,4966,1945,-12,5,93
207433190,0.63775634765625,0.5819091796875,-0.108154296875,0.49273681640625,4236,4823,1994,-12,6,87
207443160,0.63385009765625,0.5794677734375,-0.114013671875,0.49932861328125,4387,4690,2058,-12,6,78
207453143,0.63043212890625,0.57696533203125,-0.11932373046875,0.50531005859375,4515,4529,2115,-13,7,71
207463123,0.62725830078125,0.574462890625,-0.124267578125,0.5108642578125,4629,4377,2183,-13,7,66
207473106,0.62420654296875,0.5718994140625,-0.12896728515625,0.51629638671875,4693,4210,2227,-13,7,64
207483088,0.62115478515625,0.5693359375,-0.13372802734375,0.52154541015625,4741,4055,2261,-13,7,65
207493070,0.617919921875,0.5667724609375,-0.13861083984375,0.52691650390625,4775,3918,2292,-13,6,66
207503052,0.614501953125,0.564208984375,-0.1436767578125,0.53228759765625,4813,3797,2332,-13,4,69
207513035,0.61083984375,0.5616455078125,-0.1490478515625,0.53765869140625,4869,3668,2363,-12,2,71
207523024,0.6068115234375,0.55914306640625,-0.15478515625,0.543212890625,4979,3520,2410,-12,1,75
207533001,0.60247802734375,0.556640625,-0.1607666015625,0.548828125,5099,3382,2456,-11,0,77
207542983,0.59796142578125,0.55419921875,-0.16693115234375,0.55438232421875,5253,3236,2506,-11,-2,77
207552963,0.59344482421875,0.5518798828125,-0.17291259765625,0.55975341796875,5394,3085,2530,-10,-3,74
207562945,0.589111328125,0.5496826171875,-0.1787109375,0.56463623046875,5527,2918,2552,-10,-4,69
207572927,0.5849609375,0.5477294921875,-0.1842041015625,0.5689697265625,5635,2749,2560,-9,-5,63
207582912,0.5811767578125,0.5460205078125,-0.18939208984375,0.5728759765625,5718,2571,2557,-8,-7,58
207592891,0.57745361328125,0.5445556640625,-0.1943359375,0.5762939453125,5799,2376,2542,-7,-8,54
207602873,0.5738525390625,0.54327392578125,-0.19927978515625,0.5794677734375,5900,2156,2515,-7,-10,51
207612856,0.5701904296875,0.54217529296875,-0.2041015625,0.5823974609375,6020,1932,2504,-6,-12,49
207622837,0.56671142578125,0.541259765625,-0.20880126953125,0.58502197265625,6148,1727,2485,-5,-12,44
207632819,0.56353759765625,0.54058837890625,-0.21307373046875,0.58709716796875,6257,1558,2495,-4,-14,37
207642800,0.56085205078125,0.54022216796875,-0.21673583984375,0.588623046875,6369,1413,2501,-3,-14,29
207652790,0.55853271484375,0.5401611328125,-0.22003173828125,0.58966064453125,6495,1292,2516,-2,-16,23
207662772,0.55645751953125,0.540283203125,-0.22320556640625,0.59039306640625,6631,1199,2519,-2,-16,20
207672749,0.5543212890625,0.54052734375,-0.22625732421875,0.59100341796875,6789,1110,2514,-2,-17,19
207682730,0.55230712890625,0.54071044921875,-0.22943115234375,0.59149169921875,6954,1023,2491,-3,-17,18
207692712,0.550537109375,0.541015625,-0.232421875,0.5916748046875,7110,938,2443,-4,-17,14
207702694,0.54925537109375,0.54144287109375,-0.23516845703125,0.59136962890625,7244,851,2396,-5,-18,7
207712674,0.5487060546875,0.5421142578125,-0.2373046875,0.5904541015625,7328,758,2334,-5,-17,-4
207722653,0.54901123046875,0.54315185546875,-0.2386474609375,0.58868408203125,7351,692,2278,-5,-17,-17
207732635,0.55023193359375,0.54449462890625,-0.239013671875,0.58612060546875,7353,658,2216,-5,-16,-29
207742618,0.55224609375,0.546142578125,-0.2386474609375,0.5828857421875,7357,662,2165,-5,-16,-39
207752600,0.5548095703125,0.5479736328125,-0.23760986328125,0.57916259765625,7367,692,2102,-4,-15,-46
207762583,0.5577392578125,0.54998779296875,-0.236083984375,0.574951171875,7336,742,2034,-4,-14,-53
207772565,0.56109619140625,0.55218505859375,-0.234130859375,0.5704345703125,7273,802,1940,-3,-14,-58
207782547,0.56475830078125,0.55450439453125,-0.23175048828125,0.56549072265625,7168,880,1851,-3,-14,-63
207792529,0.56866455078125,0.55706787109375,-0.22894287109375,0.5601806640625,7066,973,1772,-2,-14,-68
207802511,0.57275390625,0.55975341796875,-0.22576904296875,0.5545654296875,7000,1087,1724,-2,-14,-72
207812494,0.57708740234375,0.56256103515625,-0.2222900390625,0.548583984375,6972,1214,1691,-1,-15,-76
207822472,0.58154296875,0.56549072265625,-0.21856689453125,0.5423583984375,6934,1320,1641,-1,-15,-79
207832469,0.58624267578125,0.56854248046875,-0.21441650390625,0.53570556640625,6879,1431,1596,0,-15,-85
207842449,0.5911865234375,0.57183837890625,-0.2098388671875,0.528564453125,6788,1544,1526,1,-15,-92
207852432,0.59649658203125,0.575439453125,-0.20452880859375,0.52069091796875,6632,1685,1465,2,-16,-100
207862408,0.60235595703125,0.57928466796875,-0.198486328125,0.51202392578125,6412,1861,1419,3,-17,-109
207872390,0.6085205078125,0.58343505859375,-0.19158935546875,0.50250244140625,6190,2081,1355,4,-18,-118
207882374,0.6148681640625,0.5877685546875,-0.18408203125,0.492431640625,5978,2300,1304,6,-18,-123
207892358,0.62103271484375,0.5921630859375,-0.17645263671875,0.48211669921875,5815,2513,1256,7,-19,-123
207902340,0.6268310546875,0.596435546875,-0.1689453125,0.471923828125,5681,2717,1225,8,-19,-119
207912327,0.632080078125,0.60052490234375,-0.1617431640625,0.462158203125,5539,2900,1179,9,-18,-113
207922303,0.63690185546875,0.60443115234375,-0.15484619140625,0.45269775390625,5406,3104,1150,10,-18,-108
207932290,0.641357421875,0.60821533203125,-0.14794921875,0.44354248046875,5288,3313,1139,11,-17,-105
207942275,0.645751953125,0.61199951171875,-0.1407470703125,0.43426513671875,5187,3541,1126,12,-16,-108
207952258,0.65020751953125,0.61572265625,-0.13299560546875,0.4246826171875,5104,3798,1135,13,-15,-112
207962240,0.6546630859375,0.619384765625,-0.124755859375,0.4149169921875,5045,4036,1137,14,-12,-116
207972227,0.65911865234375,0.622802734375,-0.11602783203125,0.40509033203125,4920,4270,1141,14,-10,-118
207982209,0.66363525390625,0.6259765625,-0.10687255859375,0.39520263671875,4715,4491,1123,14,-7,-118
207992192,0.668212890625,0.62890625,-0.097412109375,0.38525390625,4479,4724,1121,13,-5,-120
208002163,0.6728515625,0.63165283203125,-0.08734130859375,0.37493896484375,4201,4993,1100,13,-3,-125
208012142,0.677734375,0.63421630859375,-0.07647705078125,0.364013671875,3964,5257,1094,14,-1,-133
208022128,0.6827392578125,0.63671875,-0.06475830078125,0.35235595703125,3732,5523,1065,14,1,-142
208032109,0.6878662109375,0.63897705078125,-0.05218505859375,0.34014892578125,3532,5763,1012,14,3,-148
208042090,0.69268798828125,0.6409912109375,-0.03955078125,0.328125,3351,5933,987,14,5,-146
208052073,0.6971435546875,0.64251708984375,-0.0272216796875,0.3167724609375,3097,6135,929,13,8,-136
208062055,0.70111083984375,0.6436767578125,-0.01556396484375,0.30621337890625,2725,6370,867,11,9,-127
208072038,0.704833984375,0.64453125,-0.00421142578125,0.29595947265625,2342,6560,821,9,9,-122
208082026,0.7086181640625,0.64508056640625,0.007080078125,0.28570556640625,1958,6725,807,8,9,-123
208092009,0.7125244140625,0.64532470703125,0.0189208984375,0.274658203125,1645,6784,811,7,8,-132
208101983,0.71649169921875,0.64532470703125,0.03118896484375,0.26287841796875,1376,6784,821,6,8,-140
208111967,0.720458984375,0.64508056640625,0.0439453125,0.25042724609375,1095,6781,821,7,7,-145
208121948,0.7242431640625,0.6446533203125,0.05670166015625,0.23785400390625,844,6787,803,6,7,-144
208131932,0.7276611328125,0.64398193359375,0.069091796875,0.2255859375,588,6798,788,6,7,-138
208141914,0.73077392578125,0.64312744140625,0.0806884765625,0.2139892578125,274,6854,753,4,6,-130
208151895,0.733642578125,0.64208984375,0.092041015625,0.20245361328125,-59,6936,723,4,6,-128
208161877,0.7364501953125,0.6407470703125,0.10382080078125,0.19024658203125,-437,6973,701,3,5,-136
208171860,0.73931884765625,0.63909912109375,0.11651611328125,0.17669677734375,-781,6978,692,5,4,-151
208181843,0.7421875,0.63714599609375,0.13043212890625,0.16156005859375,-1040,6907,703,6,3,-168
208191824,0.7447509765625,0.6348876953125,0.14501953125,0.14532470703125,-1159,6804,709,9,3,-176
208201802,0.74676513671875,0.632568359375,0.159423828125,0.12939453125,-1219,6672,720,11,4,-172
208211795,0.74810791015625,0.6302490234375,0.17266845703125,0.11474609375,-1378,6597,748,11,5,-156
208221777,0.74896240234375,0.6280517578125,0.1849365234375,0.10150146484375,-1756,6683,754,11,7,-140
208231753,0.7493896484375,0.62579345703125,0.197021484375,0.0887451171875,-2250,6822,735,12,8,-137
208241735,0.74957275390625,0.62322998046875,0.20965576171875,0.07537841796875,-2708,6918,726,13,8,-145
208251717,0.74945068359375,0.620361328125,0.222900390625,0.06121826171875,-2980,6920,730,14,9,-155
208261700,0.74896240234375,0.61712646484375,0.23638916015625,0.046630859375,-3107,6839,739,15,10,-159
208271682,0.7481689453125,0.61383056640625,0.2496337890625,0.032470703125,-3237,6723,747,16,12,-154
208281664,0.7469482421875,0.61053466796875,0.26226806640625,0.01922607421875,-3499,6726,776,16,14,-145
208291648,0.7454833984375,0.607177734375,0.27471923828125,0.0067138671875,-3908,6838,776,15,16,-140
208301629,0.7435302734375,0.60369873046875,0.287353515625,-0.0057373046875,-4290,6915,752,16,19,-141
208311611,0.74127197265625,0.60003662109375,0.30010986328125,-0.01824951171875,-4542,6908,710,17,20,-143
208321593,0.7386474609375,0.59625244140625,0.31280517578125,-0.0303955078125,-4651,6812,682,17,22,-141
208331577,0.73583984375,0.592529296875,0.32501220703125,-0.0418701171875,-4747,6673,657,17,23,-135
208341558,0.7327880859375,0.58868408203125,0.3369140625,-0.05291748046875,-4945,6584,642,16,24,-132
208351540,0.72955322265625,0.58465576171875,0.348876953125,-0.0638427734375,-5293,6575,644,16,26,-133
208361522,0.7259521484375,0.58013916015625,0.36151123046875,-0.075439453125,-5797,6588,643,16,27,-142
208371504,0.721923828125,0.5748291015625,0.3748779296875,-0.08795166015625,-6317,6574,609,17,28,-153
208381489,0.71746826171875,0.56903076171875,0.3887939453125,-0.1011962890625,-6728,6487,562,17,28,-160
208391470,0.712646484375,0.56292724609375,0.40252685546875,-0.114501953125,-6973,6290,507,17,28,-160
208401460,0.707763671875,0.5567626953125,0.4156494140625,-0.1273193359375,-7184,6060,456,17,27,-154
208411443,0.7027587890625,0.55078125,0.4281005859375,-0.13958740234375,-7542,5886,399,16,26,-147
208421425,0.6976318359375,0.54461669921875,0.4400634765625,-0.15167236328125,-8073,5806,332,16,24,-146
208431402,0.69219970703125,0.5380859375,0.45196533203125,-0.16424560546875,-8688,5778,248,17,22,-152
208441385,0.68634033203125,0.53094482421875,0.464111328125,-0.1776123046875,-9243,5723,136,18,20,-160
208451367,0.6800537109375,0.5233154296875,0.47625732421875,-0.191650390625,-9657,5601,60,20,19,-166
208461350,0.673583984375,0.515625,0.48785400390625,-0.20562744140625,-9921,5392,20,21,17,-163
208471332,0.66717529296875,0.50836181640625,0.49847412109375,-0.2188720703125,-10110,5133,8,22,15,-151
208481314,0.6610107421875,0.50177001953125,0.5078125,-0.23095703125,-10268,4913,16,22,14,-136
208491297,0.65521240234375,0.49603271484375,0.515869140625,-0.24176025390625,-10479,4771,35,22,13,-122
208501275,0.649658203125,0.4908447265625,0.52301025390625,-0.25177001953125,-10732,4706,9,23,11,-113
208511267,0.644287109375,0.48590087890625,0.529541015625,-0.26141357421875,-10937,4671,-49,23,8,-111
208521249,0.638916015625,0.48095703125,0.53564453125,-0.27105712890625,-11024,4596,-75,24,7,-110
208531229,0.6336669921875,0.47607421875,0.541259765625,-0.28057861328125,-10980,4462,-71,25,4,-107
208541220,0.628662109375,0.4715576171875,0.54620361328125,-0.28973388671875,-10843,4282,-34,26,3,-99
208551202,0.62408447265625,0.4676513671875,0.55029296875,-0.29815673828125,-10658,4104,31,26,1,-89
208561176,0.61993408203125,0.46441650390625,0.5535888671875,-0.30572509765625,-10516,3983,79,26,0,-78
208571153,0.6160888671875,0.46185302734375,0.55615234375,-0.3126220703125,-10381,3930,130,27,0,-70
208581135,0.61248779296875,0.45965576171875,0.55828857421875,-0.31903076171875,-10240,3914,170,27,0,-65
208591119,0.6090087890625,0.457763671875,0.56011962890625,-0.32513427734375,-10071,3880,196,27,-1,-62
208601101,0.60565185546875,0.4561767578125,0.56170654296875,-0.33087158203125,-9865,3832,219,28,0,-58
208611085,0.6024169921875,0.454833984375,0.56298828125,-0.33636474609375,-9645,3752,250,27,-1,-54
208621065,0.59942626953125,0.45391845703125,0.56396484375,-0.34136962890625,-9415,3646,281,27,0,-48
208631044,0.5966796875,0.45330810546875,0.56463623046875,-0.3458251953125,-9211,3516,332,27,0,-41
208641030,0.59417724609375,0.453125,0.56500244140625,-0.349853515625,-9059,3384,374,26,1,-35
208651016,0.591796875,0.453125,0.56512451171875,-0.35345458984375,-8955,3270,366,25,1,-31
208660990,0.5894775390625,0.45330810546875,0.5653076171875,-0.35687255859375,-8882,3194,332,25,2,-30
208670972,0.58709716796875,0.45343017578125,0.5655517578125,-0.36016845703125,-8810,3151,301,24,3,-32
208680956,0.58453369140625,0.453369140625,0.56610107421875,-0.3636474609375,-8738,3096,258,24,3,-35
208690938,0.581787109375,0.453125,0.5667724609375,-0.3671875,-8661,3004,208,24,4,-37
208700924,0.57904052734375,0.45281982421875,0.56756591796875,-0.37078857421875,-8595,2927,162,23,4,-37
208710906,0.57635498046875,0.45257568359375,0.56829833984375,-0.37408447265625,-8535,2824,115,22,4,-34
208720887,0.57379150390625,0.45263671875,0.56890869140625,-0.3770751953125,-8498,2708,49,22,5,-30
208730869,0.5714111328125,0.45294189453125,0.56927490234375,-0.379638671875,-8509,2601,-15,21,5,-25
208740853,0.56927490234375,0.45355224609375,0.5694580078125,-0.38189697265625,-8521,2481,-90,20,5,-21
208750834,0.56732177734375,0.454345703125,0.5694580078125,-0.3837890625,-8518,2374,-154,20,5,-16
208760819,0.56561279296875,0.455322265625,0.5693359375,-0.38543701171875,-8479,2297,-214,19,5,-13
208770807,0.56396484375,0.45648193359375,0.56903076171875,-0.38690185546875,-8427,2232,-255,19,4,-11
208780789,0.56243896484375,0.45770263671875,0.56866455078125,-0.38824462890625,-8377,2166,-314,19,4,-10
208790769,0.56103515625,0.45892333984375,0.5682373046875,-0.38946533203125,-8380,2099,-369,18,4,-8
208800745,0.55963134765625,0.4600830078125,0.5677490234375,-0.39068603515625,-8412,2040,-405,18,3,-8
208810727,0.558349609375,0.461181640625,0.56732177734375,-0.39190673828125,-8485,1974,-444,17,3,-9
208820710,0.55706787109375,0.46209716796875,0.56695556640625,-0.39324951171875,-8545,1900,-471,16,2,-9
208830690,0.555908203125,0.46295166015625,0.56646728515625,-0.39453125,-8579,1819,-511,15,0,-8
208840674,0.55487060546875,0.4637451171875,0.56597900390625,-0.39581298828125,-8568,1726,-529,15,-1,-7
208850652,0.5540771484375,0.464599609375,0.56524658203125,-0.39703369140625,-8535,1633,-540,15,-2,-5
208860636,0.553466796875,0.46551513671875,0.56427001953125,-0.39813232421875,-8466,1539,-541,14,-3,-2
208870622,0.552978515625,0.466552734375,0.563232421875,-0.39910888671875,-8408,1453,-538,14,-4,0
208880599,0.55267333984375,0.467529296875,0.56201171875,-0.4000244140625,-8396,1393,-544,14,-5,1
208890583,0.5523681640625,0.46844482421875,0.56085205078125,-0.40106201171875,-8395,1354,-568,14,-5,-1
208900563,0.55194091796875,0.4691162109375,0.559814453125,-0.40228271484375,-8417,1319,-583,13,-6,-3
208910545,0.55145263671875,0.46954345703125,0.5589599609375,-0.4036865234375,-8415,1288,-591,13,-6,-7
208920530,0.55084228515625,0.46966552734375,0.55828857421875,-0.40521240234375,-8397,1266,-579,12,-7,-9
208930512,0.5501708984375,0.46954345703125,0.5577392578125,-0.406982421875,-8359,1225,-573,12,-7,-13
208940493,0.54937744140625,0.46923828125,0.55743408203125,-0.40887451171875,-8336,1186,-582,11,-7,-14
208950471,0.54852294921875,0.4688720703125,0.55718994140625,-0.4107666015625,-8311,1135,-589,11,-7,-15
208960463,0.547607421875,0.46844482421875,0.55706787109375,-0.41265869140625,-8293,1062,-599,10,-6,-15
208970445,0.54669189453125,0.46807861328125,0.5570068359375,-0.4144287109375,-8290,1001,-624,10,-5,-15
208980429,0.5457763671875,0.4676513671875,0.5570068359375,-0.41607666015625,-8249,968,-627,9,-5,-14
208990406,0.544921875,0.46734619140625,0.55694580078125,-0.41748046875,-8199,935,-613,8,-4,-13
209000387,0.544189453125,0.4671630859375,0.5570068359375,-0.418701171875,-8137,918,-596,7,-3,-11
209010369,0.54345703125,0.467041015625,0.55706787109375,-0.419677734375,-8082,888,-581,6,-1,-10
209020355,0.542724609375,0.46697998046875,0.5572509765625,-0.42047119140625,-8054,837,-583,5,0,-8
209030337,0.5419921875,0.46697998046875,0.5574951171875,-0.42108154296875,-8042,782,-587,4,1,-8
209040319,0.5411376953125,0.46710205078125,0.557861328125,-0.42156982421875,-8014,740,-605,4,3,-8
209050301,0.540283203125,0.46722412109375,0.558349609375,-0.421875,-7970,709,-611,4,5,-8
209060279,0.539306640625,0.4674072265625,0.5589599609375,-0.422119140625,-7886,694,-617,3,6,-8
209070271,0.53826904296875,0.4676513671875,0.55963134765625,-0.4222412109375,-7838,660,-617,3,7,-7
209080253,0.537109375,0.46795654296875,0.5604248046875,-0.42230224609375,-7841,619,-626,3,9,-8
209090240,0.53594970703125,0.46826171875,0.56134033203125,-0.4222412109375,-7890,554,-638,2,10,-7
209100225,0.53466796875,0.46868896484375,0.56231689453125,-0.42218017578125,-7948,497,-682,2,11,-7
209110208,0.5333251953125,0.4691162109375,0.5633544921875,-0.4219970703125,-7997,475,-729,2,12,-7
209120189,0.531982421875,0.46954345703125,0.56439208984375,-0.4217529296875,-7996,464,-763,2,12,-7
209130160,0.530517578125,0.4700927734375,0.56549072265625,-0.42156982421875,-7961,473,-800,3,13,-7
209140140,0.52911376953125,0.470703125,0.5665283203125,-0.4212646484375,-7952,499,-819,3,13,-7
209150125,0.52764892578125,0.47137451171875,0.5675048828125,-0.42095947265625,-7983,510,-834,3,13,-6
209160107,0.5262451171875,0.47210693359375,0.5684814453125,-0.420654296875,-8084,530,-846,3,13,-6
209170090,0.52490234375,0.47271728515625,0.56951904296875,-0.4202880859375,-8224,529,-878,3,13,-7
209180070,0.52349853515625,0.47314453125,0.570556640625,-0.42010498046875,-8343,521,-928,2,12,-8
209190057,0.52203369140625,0.47344970703125,0.57171630859375,-0.419921875,-8421,509,-966,2,12,-9
209200037,0.52069091796875,0.4736328125,0.57281494140625,-0.419921875,-8457,527,-973,2,11,-11
209210025,0.51934814453125,0.4737548828125,0.57391357421875,-0.41998291015625,-8508,535,-989,2,10,-11
209220002,0.51800537109375,0.4737548828125,0.574951171875,-0.420166015625,-8550,524,-990,2,9,-12
209229984,0.516845703125,0.47369384765625,0.575927734375,-0.42041015625,-8582,504,-994,2,8,-11
209239967,0.5157470703125,0.4736328125,0.57672119140625,-0.42071533203125,-8641,478,-988,2,7,-10
209249949,0.5147705078125,0.47357177734375,0.577392578125,-0.4210205078125,-8700,441,-1003,3,5,-9
209259928,0.5137939453125,0.4735107421875,0.5780029296875,-0.4215087890625,-8744,413,-1013,3,4,-10
209269912,0.5128173828125,0.47320556640625,0.57861328125,-0.422119140625,-8769,402,-1006,4,3,-12
209279894,0.51171875,0.47271728515625,0.57928466796875,-0.42315673828125,-8787,404,-986,4,2,-16
209289875,0.51043701171875,0.471923828125,0.580078125,-0.42449951171875,-8799,415,-979,5,1,-20
209299857,0.509033203125,0.47088623046875,0.5809326171875,-0.4261474609375,-8798,421,-958,6,0,-23
209309839,0.50762939453125,0.46966552734375,0.581787109375,-0.4281005859375,-8783,413,-917,7,-1,-25
209319820,0.50616455078125,0.46832275390625,0.58251953125,-0.43017578125,-8774,394,-881,8,-3,-26
209329806,0.50482177734375,0.46710205078125,0.58306884765625,-0.43243408203125,-8738,355,-848,9,-4,-24
209339790,0.5035400390625,0.46600341796875,0.5833740234375,-0.43463134765625,-8698,316,-808,10,-5,-23
209349771,0.50238037109375,0.4649658203125,0.58349609375,-0.4368896484375,-8677,284,-778,11,-6,-21
209359749,0.501220703125,0.464111328125,0.58349609375,-0.4390869140625,-8663,241,-770,12,-6,-19
209369731,0.50018310546875,0.46343994140625,0.58331298828125,-0.44122314453125,-8616,202,-763,12,-6,-17
209379714,0.499267578125,0.46307373046875,0.58294677734375,-0.4432373046875,-8533,179,-751,13,-6,-14
209389697,0.49847412109375,0.462890625,0.58233642578125,-0.44500732421875,-8413,165,-728,13,-6,-10
209399678,0.49786376953125,0.46319580078125,0.58154296875,-0.44647216796875,-8271,154,-714,13,-5,-5
209409658,0.4974365234375,0.46380615234375,0.58050537109375,-0.4476318359375,-8154,136,-688,13,-4,-1
209419642,0.49713134765625,0.46478271484375,0.579345703125,-0.448486328125,-8070,120,-690,13,-2,2
209429624,0.49688720703125,0.46600341796875,0.578125,-0.44903564453125,-8024,87,-700,13,-1,5
209439611,0.49664306640625,0.4674072265625,0.576904296875,-0.4493408203125,-7978,78,-715,12,0,7
209449592,0.4964599609375,0.468994140625,0.5758056640625,-0.449462890625,-7921,95,-735,12,2,8
209459577,0.49609375,0.47064208984375,0.57476806640625,-0.44940185546875,-7849,131,-765,11,4,8
209469553,0.4957275390625,0.472412109375,0.5738525390625,-0.44915771484375,-7781,175,-790,10,5,8
209479537,0.4952392578125,0.47418212890625,0.57305908203125,-0.44879150390625,-7739,187,-836,10,6,8
209489520,0.49468994140625,0.4759521484375,0.5723876953125,-0.4483642578125,-7748,183,-884,9,7,8
209499501,0.494140625,0.47772216796875,0.57183837890625,-0.44781494140625,-7778,167,-907,9,8,8
209509484,0.49359130859375,0.47955322265625,0.57135009765625,-0.4471435546875,-7824,147,-937,8,9,9
209519471,0.49298095703125,0.48138427734375,0.5709228515625,-0.4464111328125,-7868,142,-948,7,10,9
209529454,0.49237060546875,0.48309326171875,0.570556640625,-0.44561767578125,-7916,131,-985,7,10,8
209539437,0.49169921875,0.4847412109375,0.5703125,-0.44488525390625,-7948,128,-1018,6,10,7
209549414,0.49102783203125,0.48638916015625,0.570068359375,-0.44415283203125,-7975,129,-1054,6,10,7
209559397,0.49041748046875,0.48779296875,0.5699462890625,-0.4434814453125,-8029,89,-1074,6,9,6
209569385,0.48974609375,0.4891357421875,0.56982421875,-0.44287109375,-8108,45,-1110,5,9,5
209579363,0.48907470703125,0.4903564453125,0.5697021484375,-0.4423828125,-8211,0,-1141,5,8,5
209589343,0.488525390625,0.491455078125,0.56964111328125,-0.44189453125,-8287,-3,-1177,5,7,4
209599328,0.4879150390625,0.492431640625,0.569580078125,-0.4415283203125,-8351,6,-1217,5,7,3
209609308,0.4873046875,0.4932861328125,0.56964111328125,-0.4412841796875,-8386,17,-1251,4,6,1
209619293,0.48663330078125,0.49395751953125,0.56964111328125,-0.44110107421875,-8406,34,-1286,4,5,0
209629280,0.486083984375,0.49456787109375,0.5697021484375,-0.4410400390625,-8414,54,-1307,4,3,-1
209639262,0.485595703125,0.4949951171875,0.56964111328125,-0.44110107421875,-8426,51,-1322,4,2,-1
209649246,0.4852294921875,0.49542236328125,0.569580078125,-0.441162109375,-8477,24,-1331,4,1,-1
209659222,0.48492431640625,0.49578857421875,0.56939697265625,-0.44134521484375,-8534,2,-1334,3,0,-1
209669216,0.4847412109375,0.4959716796875,0.5692138671875,-0.4415283203125,-8586,-17,-1333,3,-1,-1
209679195,0.484619140625,0.49615478515625,0.5689697265625,-0.4417724609375,-8589,-22,-1345,3,-2,-1
209689176,0.484619140625,0.49627685546875,0.56866455078125,-0.4420166015625,-8580,-18,-1354,3,-3,0
209699148,0.48468017578125,0.49639892578125,0.56829833984375,-0.44232177734375,-8544,-20,-1361,2,-4,0
209709131,0.48486328125,0.4964599609375,0.56787109375,-0.44256591796875,-8511,-18,-1358,2,-5,1
209719113,0.48516845703125,0.4964599609375,0.56744384765625,-0.44287109375,-8496,-12,-1358,2,-6,1
209729094,0.4854736328125,0.49639892578125,0.56689453125,-0.44317626953125,-8461,-15,-1349,1,-6,1
209739074,0.48590087890625,0.49639892578125,0.56634521484375,-0.4434814453125,-8402,-18,-1339,1,-7,2
209749055,0.48638916015625,0.496337890625,0.5657958984375,-0.4437255859375,-8344,-19,-1327,1,-7,2
209759035,0.48687744140625,0.496337890625,0.565185546875,-0.4439697265625,-8298,-8,-1317,1,-7,2
209769026,0.4874267578125,0.49627685546875,0.56463623046875,-0.4442138671875,-8271,-6,-1313,1,-7,2
209779002,0.48785400390625,0.49609375,0.5640869140625,-0.44451904296875,-8245,2,-1293,0,-7,1
209788986,0.48828125,0.495849609375,0.563720703125,-0.44488525390625,-8193,13,-1295,0,-7,-1
209798963,0.488525390625,0.49554443359375,0.5634765625,-0.44525146484375,-8152,30,-1285,0,-7,-3
209808951,0.48876953125,0.4951171875,0.56329345703125,-0.44561767578125,-8101,33,-1273,0,-6,-4
209818929,0.48895263671875,0.49468994140625,0.56317138671875,-0.446044921875,-8061,34,-1258,-1,-6,-4
209828912,0.48919677734375,0.4942626953125,0.5631103515625,-0.44635009765625,-8010,26,-1241,-1,-6,-3
209838895,0.4893798828125,0.493896484375,0.56304931640625,-0.44659423828125,-7964,2,-1239,-1,-5,-3
