subject,Joshua Spiesman
arm,left
label,1
hz,100.17592671918231
time,5.170903

timestamp_us,q0,q1,q2,q3,ax,ay,az,gx,gy,gz
89300174,0.68115234375,-0.48779296875,0.53900146484375,-0.08697509765625,-5273,-6108,-554,0,0,-1
89310146,0.68109130859375,-0.48779296875,0.53900146484375,-0.087158203125,-5280,-6107,-541,0,0,-2
89320123,0.6810302734375,-0.48785400390625,0.5390625,-0.08734130859375,-5297,-6108,-529,0,0,-2
89330103,0.68096923828125,-0.4879150390625,0.5390625,-0.08758544921875,-5308,-6107,-527,0,1,-3
89340087,0.680908203125,-0.48797607421875,0.53900146484375,-0.08782958984375,-5313,-6116,-515,0,0,-2
89350069,0.68084716796875,-0.488037109375,0.53900146484375,-0.0880126953125,-5318,-6103,-519,0,0,-2
89360052,0.6807861328125,-0.48809814453125,0.53900146484375,-0.08819580078125,-5326,-6109,-518,0,0,-2
89370034,0.68072509765625,-0.4881591796875,0.53900146484375,-0.08831787109375,-5333,-6123,-508,0,0,-2
89380017,0.68072509765625,-0.4881591796875,0.5389404296875,-0.08843994140625,-5344,-6124,-483,0,0,-2
89390001,0.68072509765625,-0.4881591796875,0.5389404296875,-0.08856201171875,-5348,-6125,-477,0,-1,-2
89399994,0.68072509765625,-0.48822021484375,0.53887939453125,-0.08856201171875,-5363,-6130,-473,0,0,-1
89409965,0.68072509765625,-0.48822021484375,0.538818359375,-0.088623046875,-5365,-6150,-474,0,-1,-1
89419947,0.6807861328125,-0.48822021484375,0.53875732421875,-0.088623046875,-5375,-6154,-470,-1,-1,-1
89429929,0.6807861328125,-0.48828125,0.5386962890625,-0.08856201171875,-5379,-6161,-473,0,-1,-1
89439913,0.68084716796875,-0.48828125,0.53863525390625,-0.08856201171875,-5372,-6179,-470,0,-2,-1
89449894,0.680908203125,-0.48834228515625,0.53851318359375,-0.0885009765625,-5366,-6181,-468,0,-2,-1
89459878,0.6810302734375,-0.48834228515625,0.5384521484375,-0.08843994140625,-5369,-6172,-454,-1,-2,-1
89469855,0.68109130859375,-0.48834228515625,0.538330078125,-0.08831787109375,-5371,-6180,-465,-1,-2,-1
89479841,0.68115234375,-0.48834228515625,0.53826904296875,-0.08819580078125,-5366,-6186,-478,-1,-2,0
89489821,0.68121337890625,-0.48834228515625,0.53814697265625,-0.0880126953125,-5348,-6174,-489,-1,-2,0
89499804,0.68133544921875,-0.4884033203125,0.5380859375,-0.087890625,-5336,-6156,-502,-1,-2,0
89509787,0.681396484375,-0.4884033203125,0.53802490234375,-0.08770751953125,-5326,-6137,-510,-1,-2,0
89519774,0.68145751953125,-0.48846435546875,0.53790283203125,-0.08758544921875,-5308,-6129,-511,-1,-2,-1
89529755,0.68145751953125,-0.488525390625,0.537841796875,-0.08746337890625,-5301,-6129,-525,-1,-2,-1
89539738,0.6815185546875,-0.48858642578125,0.5377197265625,-0.08740234375,-5289,-6116,-542,-1,-2,-1
89549714,0.6815185546875,-0.48870849609375,0.53759765625,-0.0872802734375,-5300,-6114,-543,-1,-2,-1
89559696,0.68157958984375,-0.48876953125,0.53753662109375,-0.087158203125,-5289,-6111,-556,-1,-2,-1
89569680,0.68157958984375,-0.4888916015625,0.5374755859375,-0.08709716796875,-5287,-6112,-554,-1,-2,-1
89579662,0.68157958984375,-0.48895263671875,0.53741455078125,-0.08697509765625,-5301,-6112,-553,-1,-2,-1
89589645,0.68157958984375,-0.489013671875,0.537353515625,-0.08685302734375,-5303,-6124,-551,-1,-2,-1
89599627,0.68157958984375,-0.4891357421875,0.53729248046875,-0.0867919921875,-5294,-6132,-556,-1,-1,-1
89609609,0.6815185546875,-0.4892578125,0.5372314453125,-0.08673095703125,-5290,-6135,-551,-1,-1,-1
89619591,0.6815185546875,-0.4893798828125,0.537109375,-0.08673095703125,-5299,-6127,-531,-1,-1,-2
89629574,0.6815185546875,-0.48956298828125,0.53692626953125,-0.0867919921875,-5321,-6124,-515,-1,-1,-3
89639557,0.68145751953125,-0.48974609375,0.53680419921875,-0.0869140625,-5327,-6126,-510,-1,-1,-3
89649542,0.681396484375,-0.489990234375,0.53668212890625,-0.0870361328125,-5320,-6119,-485,-1,-1,-3
89659523,0.68133544921875,-0.49017333984375,0.53662109375,-0.08709716796875,-5315,-6106,-480,-1,-1,-2
89669510,0.6812744140625,-0.49029541015625,0.53656005859375,-0.087158203125,-5301,-6107,-475,-1,0,-2
89679488,0.68121337890625,-0.4903564453125,0.53656005859375,-0.087158203125,-5282,-6101,-454,-1,0,-1
89689477,0.68109130859375,-0.49041748046875,0.53662109375,-0.08709716796875,-5266,-6091,-452,-1,0,0
89699456,0.6810302734375,-0.490478515625,0.53668212890625,-0.0870361328125,-5256,-6109,-439,-2,0,0
89709438,0.680908203125,-0.49053955078125,0.5367431640625,-0.0870361328125,-5233,-6110,-430,-2,0,-1
89719427,0.68084716796875,-0.49066162109375,0.5367431640625,-0.08709716796875,-5222,-6119,-429,-1,1,-2
89729407,0.68072509765625,-0.49078369140625,0.5367431640625,-0.0872802734375,-5212,-6123,-413,-1,1,-3
89739389,0.68060302734375,-0.49102783203125,0.53668212890625,-0.0875244140625,-5207,-6137,-412,-1,1,-3
89749365,0.680419921875,-0.49127197265625,0.53656005859375,-0.087890625,-5217,-6144,-417,-1,1,-4
89759350,0.68023681640625,-0.49151611328125,0.5364990234375,-0.0882568359375,-5217,-6144,-428,-1,1,-4
89769329,0.68011474609375,-0.49176025390625,0.536376953125,-0.088623046875,-5222,-6152,-422,-1,1,-4
89779313,0.67999267578125,-0.491943359375,0.53631591796875,-0.0889892578125,-5239,-6187,-430,-1,1,-4
89789301,0.67987060546875,-0.49212646484375,0.5362548828125,-0.08929443359375,-5257,-6207,-449,0,1,-3
89799279,0.67974853515625,-0.49224853515625,0.5362548828125,-0.08966064453125,-5265,-6222,-469,0,1,-3
89809262,0.67962646484375,-0.49237060546875,0.5362548828125,-0.08990478515625,-5285,-6254,-486,0,1,-3
89819243,0.6795654296875,-0.49237060546875,0.53631591796875,-0.09014892578125,-5316,-6252,-503,0,1,-2
89829234,0.67950439453125,-0.49237060546875,0.53631591796875,-0.09033203125,-5335,-6234,-486,0,1,-2
89839218,0.679443359375,-0.49237060546875,0.53631591796875,-0.09051513671875,-5364,-6239,-504,0,1,-2
89849195,0.679443359375,-0.49237060546875,0.53631591796875,-0.09075927734375,-5377,-6236,-497,1,0,-3
89859188,0.679443359375,-0.492431640625,0.5362548828125,-0.09100341796875,-5393,-6228,-499,1,0,-3
89869174,0.679443359375,-0.49237060546875,0.5362548828125,-0.0911865234375,-5382,-6195,-508,1,0,-2
89879153,0.679443359375,-0.4923095703125,0.5362548828125,-0.09124755859375,-5374,-6172,-507,1,0,-2
89889125,0.67950439453125,-0.49224853515625,0.5362548828125,-0.09130859375,-5367,-6156,-507,1,-1,-1
89899115,0.6795654296875,-0.49212646484375,0.53631591796875,-0.09130859375,-5371,-6162,-513,1,0,0
89909090,0.67962646484375,-0.491943359375,0.536376953125,-0.09130859375,-5374,-6167,-499,1,0,0
89919074,0.6796875,-0.4918212890625,0.53643798828125,-0.09130859375,-5370,-6162,-500,0,0,0
89929056,0.67974853515625,-0.49163818359375,0.5364990234375,-0.09124755859375,-5352,-6151,-498,1,-1,0
89939041,0.6798095703125,-0.49151611328125,0.53656005859375,-0.09124755859375,-5319,-6149,-483,1,0,0
89949021,0.67987060546875,-0.49139404296875,0.53656005859375,-0.09130859375,-5294,-6135,-470,0,0,0
89959003,0.679931640625,-0.49127197265625,0.53662109375,-0.09130859375,-5276,-6107,-475,0,0,0
89968994,0.67999267578125,-0.49114990234375,0.53668212890625,-0.09136962890625,-5260,-6101,-451,0,0,-1
89978966,0.67999267578125,-0.49102783203125,0.5367431640625,-0.0914306640625,-5255,-6121,-442,0,0,-1
89988954,0.6800537109375,-0.49090576171875,0.53680419921875,-0.091552734375,-5248,-6127,-433,1,0,0
89998934,0.67999267578125,-0.49078369140625,0.53692626953125,-0.0916748046875,-5239,-6139,-442,0,1,0
90008915,0.67999267578125,-0.49072265625,0.5369873046875,-0.09173583984375,-5214,-6132,-436,0,1,0
90018898,0.679931640625,-0.4906005859375,0.537109375,-0.09197998046875,-5194,-6103,-419,0,1,-1
90028878,0.67987060546875,-0.4906005859375,0.53717041015625,-0.09222412109375,-5184,-6082,-413,0,1,-2
90038861,0.67974853515625,-0.49066162109375,0.5372314453125,-0.09259033203125,-5181,-6078,-423,0,2,-3
90048840,0.6795654296875,-0.49072265625,0.537353515625,-0.093017578125,-5161,-6074,-438,0,3,-4
90058825,0.6793212890625,-0.4908447265625,0.53741455078125,-0.093505859375,-5156,-6079,-450,0,3,-4
90068808,0.6790771484375,-0.49090576171875,0.53753662109375,-0.09405517578125,-5152,-6077,-440,1,3,-4
90078787,0.67889404296875,-0.49102783203125,0.53759765625,-0.09466552734375,-5140,-6088,-451,1,4,-4
90088767,0.6785888671875,-0.49114990234375,0.5377197265625,-0.0953369140625,-5135,-6111,-450,0,4,-4
90098757,0.67828369140625,-0.49127197265625,0.5379638671875,-0.0960693359375,-5124,-6125,-458,0,5,-4
90108740,0.67791748046875,-0.4913330078125,0.53814697265625,-0.09674072265625,-5132,-6134,-458,1,5,-4
90118716,0.67755126953125,-0.49139404296875,0.5384521484375,-0.09747314453125,-5122,-6155,-476,1,6,-4
90128698,0.67718505859375,-0.49139404296875,0.538818359375,-0.0982666015625,-5109,-6179,-493,1,6,-4
90138680,0.6767578125,-0.4913330078125,0.5391845703125,-0.09912109375,-5093,-6202,-504,2,7,-3
90148665,0.6763916015625,-0.49127197265625,0.53955078125,-0.09991455078125,-5097,-6232,-509,2,7,-3
90158645,0.67596435546875,-0.4910888671875,0.54010009765625,-0.10076904296875,-5105,-6273,-526,2,8,-3
90168628,0.67559814453125,-0.49090576171875,0.54058837890625,-0.10162353515625,-5111,-6302,-541,3,7,-2
90178612,0.67523193359375,-0.4906005859375,0.5411376953125,-0.10247802734375,-5109,-6309,-535,3,8,-2
90188595,0.67486572265625,-0.4903564453125,0.5416259765625,-0.103515625,-5112,-6321,-535,3,9,-3
90198577,0.6744384765625,-0.49017333984375,0.5421142578125,-0.1046142578125,-5113,-6310,-545,3,9,-4
90208559,0.6739501953125,-0.49005126953125,0.54254150390625,-0.10589599609375,-5104,-6302,-548,4,9,-6
90218542,0.67352294921875,-0.489990234375,0.54290771484375,-0.10723876953125,-5101,-6299,-560,4,9,-7
90228522,0.67303466796875,-0.48992919921875,0.54327392578125,-0.1087646484375,-5094,-6297,-556,4,10,-8
90238507,0.6724853515625,-0.48992919921875,0.5435791015625,-0.1102294921875,-5108,-6292,-555,4,10,-8
90248488,0.67193603515625,-0.489990234375,0.54388427734375,-0.11187744140625,-5098,-6292,-554,4,10,-9
90258472,0.67138671875,-0.49005126953125,0.544189453125,-0.113525390625,-5101,-6271,-554,4,10,-10
90268455,0.67083740234375,-0.49017333984375,0.54443359375,-0.11517333984375,-5121,-6253,-548,4,10,-11
90278435,0.6702880859375,-0.490234375,0.544677734375,-0.116943359375,-5141,-6230,-540,4,11,-11
90288424,0.669677734375,-0.49041748046875,0.54486083984375,-0.11871337890625,-5165,-6213,-511,4,11,-12
90298407,0.66912841796875,-0.4906005859375,0.54498291015625,-0.12060546875,-5179,-6209,-489,4,11,-13
90308391,0.66845703125,-0.49090576171875,0.5450439453125,-0.12249755859375,-5202,-6213,-487,3,11,-14
90318366,0.6678466796875,-0.4912109375,0.545166015625,-0.1243896484375,-5213,-6234,-480,3,11,-14
90328350,0.66717529296875,-0.49151611328125,0.54522705078125,-0.12628173828125,-5209,-6259,-481,3,11,-13
90338332,0.66656494140625,-0.49176025390625,0.54541015625,-0.1280517578125,-5204,-6282,-482,3,11,-13
90348314,0.6658935546875,-0.49200439453125,0.54559326171875,-0.12969970703125,-5169,-6284,-485,3,10,-11
90358297,0.665283203125,-0.49212646484375,0.54583740234375,-0.13134765625,-5135,-6300,-477,2,11,-10
90368278,0.6646728515625,-0.4921875,0.54608154296875,-0.13287353515625,-5098,-6308,-469,3,10,-10
90378261,0.6640625,-0.49224853515625,0.54644775390625,-0.13433837890625,-5054,-6323,-466,2,10,-9
90388243,0.66351318359375,-0.4923095703125,0.5467529296875,-0.13580322265625,-5011,-6325,-453,2,11,-8
90398235,0.662841796875,-0.49237060546875,0.547119140625,-0.13720703125,-4972,-6308,-434,2,11,-8
90408219,0.6622314453125,-0.492431640625,0.5474853515625,-0.138671875,-4916,-6306,-401,2,11,-9
90418206,0.6614990234375,-0.49249267578125,0.5478515625,-0.14019775390625,-4865,-6289,-379,2,12,-9
90428188,0.6607666015625,-0.49267578125,0.5482177734375,-0.141845703125,-4817,-6274,-362,2,12,-10
90438174,0.659912109375,-0.49285888671875,0.548583984375,-0.14349365234375,-4780,-6269,-363,1,13,-11
90448154,0.65899658203125,-0.4931640625,0.54888916015625,-0.14532470703125,-4737,-6268,-359,1,13,-12
90458123,0.6580810546875,-0.4935302734375,0.54925537109375,-0.14715576171875,-4699,-6264,-363,1,14,-13
90468109,0.65704345703125,-0.493896484375,0.54962158203125,-0.14910888671875,-4655,-6250,-370,1,14,-13
90478092,0.65594482421875,-0.49432373046875,0.54998779296875,-0.15106201171875,-4625,-6240,-363,0,15,-13
90488073,0.65478515625,-0.494873046875,0.55035400390625,-0.15313720703125,-4563,-6248,-357,0,16,-15
90498056,0.653564453125,-0.49542236328125,0.55072021484375,-0.1552734375,-4507,-6255,-343,-1,16,-14
90508040,0.65234375,-0.49591064453125,0.5511474609375,-0.15740966796875,-4468,-6272,-323,0,17,-14
90518021,0.6510009765625,-0.49639892578125,0.5516357421875,-0.15960693359375,-4436,-6318,-315,-1,17,-14
90528003,0.649658203125,-0.49676513671875,0.55218505859375,-0.1617431640625,-4406,-6383,-329,-1,18,-13
90537990,0.6483154296875,-0.49713134765625,0.55291748046875,-0.163818359375,-4370,-6426,-345,-1,19,-12
90547967,0.64691162109375,-0.4974365234375,0.55364990234375,-0.16595458984375,-4324,-6474,-361,-1,19,-11
90557953,0.6453857421875,-0.49774169921875,0.554443359375,-0.16815185546875,-4280,-6560,-397,0,20,-11
90567938,0.64385986328125,-0.498046875,0.5552978515625,-0.17041015625,-4259,-6638,-429,0,21,-12
90577916,0.64227294921875,-0.498291015625,0.55621337890625,-0.17279052734375,-4233,-6734,-457,0,21,-11
90587899,0.640625,-0.4984130859375,0.55718994140625,-0.1751708984375,-4210,-6833,-516,0,23,-10
90597881,0.63897705078125,-0.4984130859375,0.558349609375,-0.17755126953125,-4184,-6945,-547,1,24,-9
90607863,0.6373291015625,-0.49822998046875,0.55963134765625,-0.17999267578125,-4148,-7058,-591,2,25,-7
90617847,0.6356201171875,-0.49786376953125,0.56109619140625,-0.18243408203125,-4116,-7130,-638,3,26,-6
90627828,0.6339111328125,-0.497314453125,0.56268310546875,-0.1849365234375,-4070,-7202,-661,4,27,-5
90637812,0.63214111328125,-0.4967041015625,0.5643310546875,-0.1876220703125,-4032,-7222,-684,4,29,-5
90647793,0.63031005859375,-0.4959716796875,0.5660400390625,-0.19036865234375,-3985,-7239,-685,5,30,-5
90657772,0.62847900390625,-0.4952392578125,0.5677490234375,-0.19342041015625,-3931,-7239,-683,6,32,-7
90667765,0.62652587890625,-0.4945068359375,0.56939697265625,-0.19671630859375,-3898,-7237,-694,7,32,-9
90677746,0.62445068359375,-0.49383544921875,0.57098388671875,-0.20025634765625,-3827,-7200,-694,7,33,-11
90687724,0.622314453125,-0.49322509765625,0.57244873046875,-0.2041015625,-3760,-7159,-696,8,35,-13
90697712,0.6201171875,-0.49267578125,0.57391357421875,-0.20819091796875,-3695,-7132,-720,8,35,-15
90707694,0.61773681640625,-0.4921875,0.5753173828125,-0.21246337890625,-3624,-7128,-755,9,36,-16
90717674,0.6153564453125,-0.49169921875,0.57666015625,-0.21685791015625,-3573,-7139,-806,10,37,-17
90727658,0.6129150390625,-0.4910888671875,0.5780029296875,-0.2213134765625,-3528,-7174,-850,10,37,-16
90737642,0.61053466796875,-0.49041748046875,0.5794677734375,-0.22576904296875,-3518,-7219,-913,11,37,-15
90747625,0.608154296875,-0.489501953125,0.58099365234375,-0.23004150390625,-3516,-7293,-985,12,37,-13
90757605,0.60589599609375,-0.4884033203125,0.58258056640625,-0.23431396484375,-3510,-7362,-1051,13,37,-11
90767588,0.603759765625,-0.487060546875,0.5843505859375,-0.23828125,-3514,-7449,-1119,13,37,-8
90777571,0.60174560546875,-0.4853515625,0.58624267578125,-0.2420654296875,-3528,-7555,-1203,15,36,-4
90787556,0.59991455078125,-0.4833984375,0.5882568359375,-0.24560546875,-3533,-7676,-1291,15,36,0
90797533,0.59832763671875,-0.48101806640625,0.59051513671875,-0.24884033203125,-3539,-7784,-1383,17,35,4
90807516,0.596923828125,-0.478271484375,0.59283447265625,-0.2518310546875,-3540,-7872,-1455,18,34,8
90817498,0.5958251953125,-0.47515869140625,0.59527587890625,-0.25457763671875,-3555,-7936,-1509,19,33,12
90827482,0.594970703125,-0.4718017578125,0.59771728515625,-0.257080078125,-3567,-7982,-1550,21,32,15
90837464,0.59423828125,-0.46832275390625,0.60015869140625,-0.259521484375,-3594,-8017,-1604,22,30,15
90847449,0.59375,-0.46466064453125,0.6024169921875,-0.2618408203125,-3636,-8063,-1657,23,29,16
90857435,0.5933837890625,-0.46099853515625,0.6046142578125,-0.26416015625,-3690,-8078,-1704,24,27,16
90867419,0.59320068359375,-0.45733642578125,0.60662841796875,-0.266357421875,-3739,-8050,-1755,25,25,16
90877401,0.5931396484375,-0.45367431640625,0.60845947265625,-0.26861572265625,-3783,-8006,-1808,26,23,15
90887379,0.5931396484375,-0.45013427734375,0.61004638671875,-0.2708740234375,-3806,-7909,-1838,27,22,13
90897359,0.59332275390625,-0.44671630859375,0.61138916015625,-0.273193359375,-3801,-7833,-1827,27,20,11
90907343,0.59356689453125,-0.44342041015625,0.6124267578125,-0.27557373046875,-3768,-7742,-1784,28,18,10
90917326,0.59393310546875,-0.44024658203125,0.61328125,-0.27789306640625,-3747,-7665,-1738,27,16,10
90927307,0.59442138671875,-0.4371337890625,0.61407470703125,-0.2801513671875,-3704,-7603,-1672,27,14,11
90937293,0.5950927734375,-0.43389892578125,0.61474609375,-0.28216552734375,-3686,-7586,-1610,27,13,12
90947272,0.59588623046875,-0.4306640625,0.615478515625,-0.28399658203125,-3681,-7607,-1544,26,12,14
90957256,0.5968017578125,-0.42730712890625,0.6162109375,-0.28558349609375,-3692,-7635,-1492,26,11,16
90967242,0.59783935546875,-0.42388916015625,0.61688232421875,-0.286865234375,-3697,-7669,-1462,25,9,18
90977227,0.59893798828125,-0.4205322265625,0.61761474609375,-0.28802490234375,-3728,-7718,-1438,25,8,19
90987207,0.60003662109375,-0.417236328125,0.61822509765625,-0.28912353515625,-3755,-7762,-1426,25,7,18
90997188,0.6011962890625,-0.41412353515625,0.6187744140625,-0.2901611328125,-3807,-7800,-1421,24,6,16
91007178,0.60223388671875,-0.41131591796875,0.61907958984375,-0.291259765625,-3843,-7841,-1439,23,5,14
91017163,0.603271484375,-0.40875244140625,0.61920166015625,-0.29248046875,-3857,-7862,-1438,23,4,11
91027139,0.60418701171875,-0.40655517578125,0.61907958984375,-0.29388427734375,-3852,-7876,-1431,23,2,7
91037115,0.60504150390625,-0.40472412109375,0.61871337890625,-0.2955322265625,-3831,-7883,-1391,22,2,4
91047100,0.60577392578125,-0.4031982421875,0.6180419921875,-0.29742431640625,-3787,-7851,-1328,22,1,-1
91057079,0.6063232421875,-0.402099609375,0.61712646484375,-0.299560546875,-3729,-7828,-1270,21,1,-5
91067055,0.6068115234375,-0.4013671875,0.61602783203125,-0.302001953125,-3678,-7802,-1205,20,0,-9
91077038,0.60699462890625,-0.4010009765625,0.61474609375,-0.30462646484375,-3628,-7779,-1168,20,1,-13
91087020,0.60699462890625,-0.40087890625,0.6134033203125,-0.30743408203125,-3573,-7761,-1166,19,1,-16
91097002,0.6068115234375,-0.40106201171875,0.61199951171875,-0.3104248046875,-3509,-7776,-1190,18,2,-18
91106995,0.6064453125,-0.40142822265625,0.610595703125,-0.31341552734375,-3478,-7805,-1225,17,1,-19
91116979,0.6060791015625,-0.40185546875,0.6092529296875,-0.3162841796875,-3453,-7885,-1293,17,2,-18
91126955,0.60565185546875,-0.40216064453125,0.6080322265625,-0.3189697265625,-3442,-7975,-1361,16,2,-16
91136937,0.6053466796875,-0.4022216796875,0.6070556640625,-0.32122802734375,-3439,-8060,-1435,16,2,-11
91146920,0.6051025390625,-0.402099609375,0.6063232421875,-0.3232421875,-3421,-8137,-1507,15,2,-8
91156902,0.60504150390625,-0.40167236328125,0.6058349609375,-0.32489013671875,-3419,-8218,-1568,15,1,-4
91166891,0.60504150390625,-0.40106201171875,0.60552978515625,-0.326171875,-3424,-8265,-1636,14,1,0
91176871,0.6051025390625,-0.40032958984375,0.6053466796875,-0.3272705078125,-3418,-8275,-1675,14,1,1
91186853,0.60516357421875,-0.39959716796875,0.60516357421875,-0.32843017578125,-3409,-8256,-1680,14,1,0
91196837,0.60516357421875,-0.3990478515625,0.6048583984375,-0.32965087890625,-3379,-8161,-1688,14,1,-3
91206817,0.60491943359375,-0.3988037109375,0.60430908203125,-0.331298828125,-3326,-8005,-1663,14,1,-8
91216799,0.6044921875,-0.3990478515625,0.60345458984375,-0.3333740234375,-3251,-7833,-1610,14,1,-15
91226784,0.603759765625,-0.3997802734375,0.60223388671875,-0.3360595703125,-3170,-7638,-1530,14,2,-23
91236769,0.60272216796875,-0.40106201171875,0.6005859375,-0.33929443359375,-3113,-7446,-1435,13,2,-31
91246751,0.60137939453125,-0.40283203125,0.5986328125,-0.34307861328125,-3083,-7274,-1342,13,2,-38
91256734,0.59979248046875,-0.405029296875,0.5963134765625,-0.34722900390625,-3050,-7138,-1226,13,2,-44
91266710,0.59808349609375,-0.40753173828125,0.59375,-0.3516845703125,-3020,-7029,-1138,13,2,-48
91276697,0.5963134765625,-0.41009521484375,0.591064453125,-0.35614013671875,-3019,-6952,-1076,13,2,-49
91286673,0.5946044921875,-0.41265869140625,0.58837890625,-0.3604736328125,-3021,-6897,-1022,12,0,-47
91296659,0.59307861328125,-0.4150390625,0.58575439453125,-0.364501953125,-3030,-6869,-994,12,-1,-45
91306639,0.59173583984375,-0.417236328125,0.583251953125,-0.3681640625,-3060,-6857,-984,12,-2,-41
91316619,0.5906982421875,-0.41925048828125,0.58087158203125,-0.371337890625,-3079,-6843,-962,11,-4,-37
91326603,0.58990478515625,-0.42108154296875,0.57855224609375,-0.37408447265625,-3103,-6821,-919,11,-5,-33
91336585,0.5894775390625,-0.42266845703125,0.57635498046875,-0.37640380859375,-3146,-6827,-839,10,-7,-30
91346569,0.5892333984375,-0.4241943359375,0.57421875,-0.37835693359375,-3212,-6842,-765,9,-9,-27
91356551,0.58929443359375,-0.42559814453125,0.57208251953125,-0.3798828125,-3315,-6886,-716,8,-11,-24
91366534,0.58953857421875,-0.42694091796875,0.57000732421875,-0.381103515625,-3397,-6918,-694,8,-13,-22
91376516,0.5899658203125,-0.4283447265625,0.56787109375,-0.382080078125,-3448,-6925,-678,7,-15,-21
91386499,0.590576171875,-0.42987060546875,0.56561279296875,-0.38275146484375,-3476,-6908,-664,6,-18,-21
91396481,0.5911865234375,-0.43170166015625,0.5631103515625,-0.3834228515625,-3490,-6898,-653,6,-20,-23
91406463,0.59185791015625,-0.433837890625,0.560302734375,-0.384033203125,-3486,-6863,-627,5,-23,-26
91416449,0.59246826171875,-0.43634033203125,0.55718994140625,-0.38482666015625,-3474,-6844,-596,5,-24,-30
91426434,0.59295654296875,-0.439208984375,0.5538330078125,-0.38568115234375,-3451,-6835,-552,4,-26,-33
91436419,0.5933837890625,-0.44232177734375,0.55023193359375,-0.3865966796875,-3414,-6816,-499,3,-28,-35
91446401,0.59375,-0.44573974609375,0.54644775390625,-0.38751220703125,-3350,-6798,-444,2,-29,-37
91456375,0.593994140625,-0.4493408203125,0.54254150390625,-0.38848876953125,-3267,-6772,-363,1,-29,-39
91466359,0.59417724609375,-0.45306396484375,0.5384521484375,-0.38946533203125,-3174,-6751,-284,0,-30,-40
91476341,0.59423828125,-0.45703125,0.5343017578125,-0.3905029296875,-3094,-6720,-195,-1,-30,-42
91486322,0.5941162109375,-0.46112060546875,0.5301513671875,-0.3916015625,-3022,-6677,-127,-3,-29,-44
91496304,0.59381103515625,-0.46533203125,0.52581787109375,-0.392822265625,-2940,-6636,-50,-4,-29,-46
91506286,0.59332275390625,-0.46978759765625,0.521484375,-0.3941650390625,-2860,-6595,7,-4,-29,-48
91516267,0.5926513671875,-0.47430419921875,0.51708984375,-0.39556884765625,-2778,-6560,57,-6,-28,-49
91526256,0.59185791015625,-0.47882080078125,0.51275634765625,-0.3968505859375,-2684,-6545,89,-7,-28,-49
91536240,0.59100341796875,-0.4832763671875,0.50860595703125,-0.3980712890625,-2601,-6537,127,-7,-27,-47
91546222,0.59027099609375,-0.48748779296875,0.50469970703125,-0.39898681640625,-2510,-6557,185,-8,-26,-43
91556206,0.589599609375,-0.49139404296875,0.50115966796875,-0.399658203125,-2428,-6578,248,-9,-25,-39
91566193,0.5889892578125,-0.4951171875,0.49786376953125,-0.400146484375,-2358,-6615,305,-9,-23,-35
91576174,0.58843994140625,-0.49847412109375,0.49493408203125,-0.40032958984375,-2291,-6673,348,-10,-22,-31
91586157,0.587890625,-0.50164794921875,0.492431640625,-0.40032958984375,-2222,-6738,371,-11,-21,-28
91596130,0.58740234375,-0.50457763671875,0.490234375,-0.40008544921875,-2164,-6817,376,-12,-19,-23
91606112,0.58697509765625,-0.5072021484375,0.4884033203125,-0.39959716796875,-2119,-6899,387,-12,-18,-20
91616094,0.5865478515625,-0.50958251953125,0.48687744140625,-0.3990478515625,-2066,-6962,398,-12,-15,-17
91626076,0.5860595703125,-0.51177978515625,0.485595703125,-0.3984375,-2020,-7021,423,-13,-14,-16
91636059,0.58544921875,-0.513916015625,0.4844970703125,-0.39801025390625,-1979,-7100,435,-13,-11,-16
91646040,0.58465576171875,-0.5159912109375,0.4835205078125,-0.397705078125,-1925,-7173,446,-13,-9,-17
91656022,0.58367919921875,-0.51800537109375,0.48260498046875,-0.3975830078125,-1872,-7266,447,-13,-7,-17
91666004,0.58258056640625,-0.5198974609375,0.4818115234375,-0.397705078125,-1834,-7363,450,-13,-5,-18
91675994,0.581298828125,-0.521728515625,0.48114013671875,-0.39794921875,-1802,-7478,459,-13,-3,-18
91685974,0.58001708984375,-0.5234375,0.48052978515625,-0.3983154296875,-1769,-7587,463,-13,-1,-18
91695954,0.57855224609375,-0.52508544921875,0.4801025390625,-0.39886474609375,-1732,-7693,428,-13,1,-19
91705934,0.576904296875,-0.52667236328125,0.4796142578125,-0.399658203125,-1677,-7799,420,-12,3,-20
91715917,0.57501220703125,-0.5283203125,0.47906494140625,-0.40081787109375,-1595,-7910,397,-12,5,-23
91725900,0.57293701171875,-0.52996826171875,0.478515625,-0.40228271484375,-1526,-8036,381,-11,6,-25
91735882,0.57073974609375,-0.5316162109375,0.4779052734375,-0.404052734375,-1469,-8176,365,-11,9,-26
91745866,0.568359375,-0.5330810546875,0.47735595703125,-0.406005859375,-1444,-8330,360,-10,10,-27
91755848,0.56597900390625,-0.534423828125,0.47698974609375,-0.4080810546875,-1420,-8473,350,-9,13,-26
91765829,0.5635986328125,-0.5355224609375,0.4766845703125,-0.41033935546875,-1407,-8606,338,-8,15,-26
91775813,0.5611572265625,-0.536376953125,0.4765625,-0.41265869140625,-1388,-8736,317,-7,16,-25
91785793,0.5587158203125,-0.53717041015625,0.4764404296875,-0.41510009765625,-1324,-8890,287,-6,17,-25
91795774,0.55621337890625,-0.53790283203125,0.4761962890625,-0.41778564453125,-1251,-9017,240,-5,18,-27
91805766,0.5535888671875,-0.53863525390625,0.47576904296875,-0.4207763671875,-1189,-9107,201,-4,19,-30
91815750,0.55078125,-0.53948974609375,0.47503662109375,-0.42413330078125,-1115,-9204,162,-2,19,-34
91825732,0.54779052734375,-0.54046630859375,0.47393798828125,-0.427978515625,-1018,-9288,131,-1,20,-39
91835710,0.54461669921875,-0.54168701171875,0.47235107421875,-0.4322509765625,-915,-9370,138,1,20,-45
91845692,0.541259765625,-0.5430908203125,0.47027587890625,-0.43695068359375,-800,-9457,134,2,19,-50
91855675,0.5377197265625,-0.544677734375,0.4678955078125,-0.44189453125,-708,-9539,128,4,19,-54
91865658,0.5340576171875,-0.54632568359375,0.46514892578125,-0.4471435546875,-594,-9612,117,5,19,-57
91875643,0.5303955078125,-0.548095703125,0.46209716796875,-0.4525146484375,-477,-9703,111,6,18,-59
91885624,0.52667236328125,-0.5499267578125,0.458740234375,-0.45806884765625,-337,-9813,104,7,17,-61
91895606,0.52294921875,-0.5517578125,0.45513916015625,-0.46356201171875,-163,-9963,107,8,15,-62
91905589,0.51947021484375,-0.5535888671875,0.45135498046875,-0.46905517578125,5,-10114,123,10,14,-61
91915571,0.51611328125,-0.5552978515625,0.4473876953125,-0.4744873046875,150,-10231,156,11,13,-62
91925555,0.5128173828125,-0.55712890625,0.443115234375,-0.47991943359375,285,-10307,205,12,11,-64
91935535,0.5093994140625,-0.55908203125,0.43829345703125,-0.485595703125,457,-10365,263,13,9,-68
91945519,0.50579833984375,-0.56134033203125,0.4329833984375,-0.49151611328125,646,-10413,337,14,7,-74
91955501,0.501953125,-0.56390380859375,0.42694091796875,-0.497802734375,858,-10460,392,15,6,-81
91965484,0.4976806640625,-0.56683349609375,0.42022705078125,-0.50439453125,1073,-10507,438,16,5,-88
91975468,0.49310302734375,-0.570068359375,0.4129638671875,-0.51123046875,1283,-10523,479,17,3,-94
91985450,0.4881591796875,-0.57354736328125,0.40496826171875,-0.51837158203125,1507,-10493,539,18,2,-100
91995438,0.48297119140625,-0.5772705078125,0.39654541015625,-0.525634765625,1739,-10427,575,18,0,-105
92005424,0.47760009765625,-0.58111572265625,0.38763427734375,-0.53289794921875,1986,-10351,616,19,-1,-108
92015403,0.47210693359375,-0.58502197265625,0.37847900390625,-0.5400390625,2244,-10240,658,19,-3,-108
92025379,0.46649169921875,-0.58892822265625,0.36920166015625,-0.54705810546875,2514,-10135,699,18,-4,-109
92035361,0.4608154296875,-0.59283447265625,0.35980224609375,-0.5538330078125,2813,-10023,728,18,-5,-108
92045350,0.45513916015625,-0.59674072265625,0.35040283203125,-0.56036376953125,3091,-9949,751,17,-6,-107
92055326,0.449462890625,-0.60052490234375,0.341064453125,-0.56658935546875,3362,-9859,766,17,-6,-105
92065309,0.4437255859375,-0.604248046875,0.33184814453125,-0.5726318359375,3593,-9744,762,16,-7,-104
92077995,0.43780517578125,-0.6080322265625,0.322509765625,-0.5784912109375,3791,-9622,767,15,-8,-106
92085271,0.43157958984375,-0.6119384765625,0.31292724609375,-0.58428955078125,3990,-9484,767,14,-8,-110
92095259,0.4248046875,-0.61602783203125,0.30291748046875,-0.59014892578125,4177,-9351,750,13,-9,-116
92105238,0.41748046875,-0.62030029296875,0.29254150390625,-0.59619140625,4375,-9265,740,12,-9,-122
92115228,0.40960693359375,-0.62457275390625,0.28179931640625,-0.60235595703125,4584,-9221,719,12,-8,-127
92125212,0.4014892578125,-0.6287841796875,0.27093505859375,-0.60833740234375,4789,-9193,667,12,-8,-128
92135190,0.39337158203125,-0.63275146484375,0.26019287109375,-0.6141357421875,4967,-9153,600,12,-8,-126
92145184,0.38531494140625,-0.6365966796875,0.24957275390625,-0.61968994140625,5111,-9036,541,12,-8,-125
92155165,0.3770751953125,-0.64031982421875,0.23870849609375,-0.62518310546875,5249,-8863,484,13,-7,-128
92165142,0.36834716796875,-0.64398193359375,0.22735595703125,-0.630859375,5361,-8631,458,13,-7,-135
92175118,0.3587646484375,-0.6475830078125,0.21533203125,-0.6368408203125,5508,-8405,418,12,-5,-143
92185100,0.348388671875,-0.651123046875,0.20263671875,-0.64312744140625,5647,-8192,383,12,-3,-152
92195082,0.33746337890625,-0.65447998046875,0.18963623046875,-0.64947509765625,5801,-7993,346,12,-2,-156
92205070,0.326416015625,-0.65740966796875,0.1766357421875,-0.65582275390625,5984,-7811,321,13,1,-155
92215051,0.315673828125,-0.65985107421875,0.1640625,-0.661865234375,6154,-7625,286,13,3,-149
92225033,0.30535888671875,-0.66180419921875,0.15216064453125,-0.6676025390625,6288,-7428,247,13,5,-142
92235013,0.2955322265625,-0.66326904296875,0.14093017578125,-0.67303466796875,6393,-7244,182,13,7,-135
92244997,0.28607177734375,-0.664306640625,0.13018798828125,-0.67822265625,6482,-7103,151,12,9,-130
92254986,0.27685546875,-0.6650390625,0.1199951171875,-0.68316650390625,6527,-6932,125,12,11,-126
92264962,0.26763916015625,-0.6654052734375,0.11004638671875,-0.6881103515625,6546,-6694,107,11,13,-125
92274944,0.25823974609375,-0.66558837890625,0.10009765625,-0.69305419921875,6553,-6458,91,11,15,-126
92284927,0.2486572265625,-0.66546630859375,0.090087890625,-0.69805908203125,6582,-6238,83,10,17,-128
92294909,0.2388916015625,-0.66510009765625,0.08001708984375,-0.70306396484375,6611,-6016,69,10,18,-129
92304892,0.22906494140625,-0.66448974609375,0.070068359375,-0.70794677734375,6636,-5785,55,10,19,-128
92314878,0.2191162109375,-0.6636962890625,0.06024169921875,-0.71270751953125,6651,-5547,64,9,20,-128
92324856,0.20904541015625,-0.6627197265625,0.05035400390625,-0.71734619140625,6655,-5258,79,8,20,-129
92334839,0.1986083984375,-0.66168212890625,0.0404052734375,-0.721923828125,6638,-4876,118,7,20,-130
92344822,0.18780517578125,-0.660400390625,0.03009033203125,-0.7264404296875,6629,-4477,187,6,21,-134
92354804,0.1766357421875,-0.658935546875,0.0196533203125,-0.73095703125,6665,-4119,241,6,21,-136
92364786,0.1651611328125,-0.65728759765625,0.00909423828125,-0.7353515625,6724,-3759,295,5,22,-137
92374767,0.1534423828125,-0.65545654296875,-0.00140380859375,-0.739501953125,6760,-3399,344,3,22,-138
92384758,0.14141845703125,-0.6534423828125,-0.0120849609375,-0.74359130859375,6766,-3016,422,2,22,-140
92394740,0.1290283203125,-0.65118408203125,-0.02288818359375,-0.74755859375,6773,-2636,495,2,22,-142
92404714,0.116455078125,-0.64874267578125,-0.03363037109375,-0.7513427734375,6814,-2355,578,0,22,-143
92414700,0.10394287109375,-0.6461181640625,-0.04412841796875,-0.7548828125,6884,-2119,667,0,22,-140
92424683,0.09185791015625,-0.64337158203125,-0.05413818359375,-0.7581787109375,7001,-1983,722,-1,22,-136
92434662,0.08026123046875,-0.64044189453125,-0.06365966796875,-0.76116943359375,7078,-1851,812,-1,22,-130
92444645,0.0689697265625,-0.637451171875,-0.0728759765625,-0.76397705078125,7113,-1704,885,-1,22,-128
92454636,0.0574951171875,-0.63433837890625,-0.082275390625,-0.7666015625,7109,-1543,958,0,21,-131
92464615,0.04571533203125,-0.6309814453125,-0.09210205078125,-0.76898193359375,7078,-1321,1035,1,21,-136
92474595,0.0330810546875,-0.62738037109375,-0.10260009765625,-0.77130126953125,7045,-1086,1107,1,21,-145
92484577,0.01971435546875,-0.6234130859375,-0.11383056640625,-0.77337646484375,7026,-872,1188,2,21,-154
92494559,0.00579833984375,-0.619140625,-0.12554931640625,-0.77520751953125,6998,-712,1242,3,21,-160
92504542,-0.00823974609375,-0.6146240234375,-0.1373291015625,-0.77679443359375,6928,-522,1295,3,21,-161
92514525,-0.02227783203125,-0.60986328125,-0.14923095703125,-0.778076171875,6800,-254,1344,4,22,-161
92524511,-0.03662109375,-0.604736328125,-0.16143798828125,-0.77911376953125,6625,80,1391,4,22,-164
92534495,-0.05108642578125,-0.5992431640625,-0.17376708984375,-0.77984619140625,6414,397,1430,5,22,-165
92544478,-0.0655517578125,-0.59344482421875,-0.18621826171875,-0.78033447265625,6141,718,1454,5,23,-165
92554460,-0.080078125,-0.58734130859375,-0.1986083984375,-0.780517578125,5880,1018,1484,6,23,-165
92564439,-0.09454345703125,-0.5809326171875,-0.2109375,-0.780517578125,5607,1257,1505,5,25,-164
92574431,-0.108642578125,-0.57427978515625,-0.222900390625,-0.7802734375,5324,1468,1500,5,25,-161
92584413,-0.12237548828125,-0.5673828125,-0.23468017578125,-0.77984619140625,4989,1700,1503,5,26,-157
92594396,-0.13580322265625,-0.560302734375,-0.24609375,-0.77923583984375,4623,1927,1479,5,27,-153
92604372,-0.14874267578125,-0.55303955078125,-0.25726318359375,-0.7784423828125,4267,2132,1460,5,28,-148
92614354,-0.1610107421875,-0.5457763671875,-0.26788330078125,-0.777587890625,3946,2252,1440,5,28,-140
92624337,-0.172119140625,-0.5386962890625,-0.277587890625,-0.77667236328125,3621,2375,1428,5,28,-128
92634319,-0.18212890625,-0.53192138671875,-0.28656005859375,-0.77581787109375,3313,2519,1400,5,27,-116
92644303,-0.19110107421875,-0.5255126953125,-0.29486083984375,-0.77490234375,2978,2665,1378,6,26,-105
92654285,-0.19915771484375,-0.51953125,-0.302490234375,-0.77398681640625,2636,2832,1349,6,24,-94
92664268,-0.20635986328125,-0.51385498046875,-0.3096923828125,-0.77301025390625,2294,3039,1310,7,23,-85
92674256,-0.21282958984375,-0.50860595703125,-0.31646728515625,-0.77197265625,1966,3280,1245,8,21,-77
92684239,-0.2186279296875,-0.5037841796875,-0.32293701171875,-0.7708740234375,1654,3552,1193,9,20,-69
92694220,-0.22393798828125,-0.49932861328125,-0.3289794921875,-0.76971435546875,1344,3864,1170,10,17,-62
92704206,-0.22857666015625,-0.495361328125,-0.33465576171875,-0.7684326171875,1056,4196,1157,10,14,-53
92714190,-0.23260498046875,-0.491943359375,-0.33966064453125,-0.7672119140625,782,4533,1148,9,11,-43
92724175,-0.2357177734375,-0.48931884765625,-0.343994140625,-0.7659912109375,523,4877,1125,9,7,-30
92734156,-0.23773193359375,-0.48760986328125,-0.347412109375,-0.764892578125,321,5199,1114,9,3,-16
92744124,-0.23876953125,-0.48687744140625,-0.3499755859375,-0.763916015625,179,5526,1112,9,-1,-3
92754101,-0.23883056640625,-0.48687744140625,-0.351806640625,-0.7630615234375,86,5854,1120,9,-5,8
92764081,-0.2381591796875,-0.48779296875,-0.352783203125,-0.76220703125,25,6180,1120,8,-9,20
92774064,-0.23663330078125,-0.48944091796875,-0.35302734375,-0.76153564453125,-2,6509,1127,8,-13,31
92784051,-0.23431396484375,-0.49200439453125,-0.35235595703125,-0.76092529296875,28,6778,1143,6,-17,43
92794030,-0.2310791015625,-0.49530029296875,-0.3505859375,-0.76055908203125,94,7012,1174,5,-21,56
92804012,-0.2269287109375,-0.49945068359375,-0.34783935546875,-0.7603759765625,217,7181,1222,3,-24,68
92813995,-0.22186279296875,-0.50439453125,-0.3438720703125,-0.76043701171875,382,7297,1260,0,-28,81
92823980,-0.2158203125,-0.51007080078125,-0.3387451171875,-0.76068115234375,579,7364,1284,-2,-30,93
92833955,-0.20892333984375,-0.516357421875,-0.33251953125,-0.7611083984375,792,7360,1301,-5,-33,105
92843936,-0.20135498046875,-0.5230712890625,-0.3251953125,-0.76171875,1029,7286,1333,-8,-35,114
92853922,-0.19305419921875,-0.53033447265625,-0.3167724609375,-0.76239013671875,1287,7135,1334,-11,-37,122
92863904,-0.184326171875,-0.53778076171875,-0.3074951171875,-0.76312255859375,1559,6935,1343,-14,-38,129
92873888,-0.1751708984375,-0.54541015625,-0.29736328125,-0.76385498046875,1864,6706,1343,-16,-39,134
92883870,-0.16558837890625,-0.5531005859375,-0.2864990234375,-0.7646484375,2173,6409,1355,-19,-40,139
92893852,-0.1556396484375,-0.56085205078125,-0.2747802734375,-0.765380859375,2490,6075,1353,-22,-39,144
92903835,-0.14520263671875,-0.568603515625,-0.26220703125,-0.76611328125,2804,5702,1333,-25,-39,150
92913817,-0.1343994140625,-0.5762939453125,-0.2489013671875,-0.76678466796875,3093,5313,1287,-28,-39,153
92923799,-0.12353515625,-0.58367919921875,-0.23504638671875,-0.76739501953125,3382,4919,1242,-31,-37,154
92933784,-0.11285400390625,-0.5906982421875,-0.2208251953125,-0.7679443359375,3668,4455,1180,-35,-35,152
92943771,-0.10247802734375,-0.59716796875,-0.206298828125,-0.76837158203125,3950,3904,1093,-38,-33,148
92953754,-0.0921630859375,-0.6033935546875,-0.19140625,-0.76873779296875,4217,3268,998,-40,-31,147
92963738,-0.0816650390625,-0.60931396484375,-0.17608642578125,-0.76885986328125,4433,2628,884,-41,-31,147
92973714,-0.07098388671875,-0.614990234375,-0.16058349609375,-0.768798828125,4603,2015,778,-41,-30,148
92983698,-0.06005859375,-0.6204833984375,-0.14495849609375,-0.7684326171875,4741,1473,680,-39,-29,149
92993681,-0.04901123046875,-0.6256103515625,-0.12939453125,-0.767822265625,4912,960,603,-38,-28,147
93003662,-0.03765869140625,-0.63043212890625,-0.1138916015625,-0.7669677734375,5174,394,512,-36,-26,147
93013644,-0.02581787109375,-0.635009765625,-0.09796142578125,-0.765869140625,5499,-197,424,-35,-25,151
93023627,-0.01300048828125,-0.639404296875,-0.081298828125,-0.7645263671875,5809,-808,325,-35,-24,160
93033609,0.0009765625,-0.6435546875,-0.063720703125,-0.7628173828125,6063,-1381,212,-34,-24,171
93043593,0.01605224609375,-0.64739990234375,-0.04541015625,-0.76068115234375,6234,-1883,128,-32,-23,181
93053577,0.03179931640625,-0.65081787109375,-0.02667236328125,-0.7581787109375,6332,-2226,77,-31,-22,186
93063560,0.04705810546875,-0.65362548828125,-0.0086669921875,-0.75537109375,6413,-2425,85,-29,-20,177
93073542,0.06085205078125,-0.65570068359375,0.0078125,-0.75262451171875,6542,-2719,103,-27,-17,160
93083524,0.07342529296875,-0.6572265625,0.023193359375,-0.74981689453125,6748,-3255,63,-26,-14,145
93093506,0.085693359375,-0.65838623046875,0.0380859375,-0.746826171875,6979,-3976,-46,-24,-12,140
93103489,0.0985107421875,-0.65924072265625,0.05328369140625,-0.74359130859375,7138,-4640,-156,-22,-11,145
93113471,0.11224365234375,-0.65966796875,0.06878662109375,-0.739990234375,7179,-5021,-178,-19,-11,155
93123455,0.12646484375,-0.65966796875,0.08428955078125,-0.736083984375,7133,-5114,-137,-16,-11,160
93133435,0.140380859375,-0.65911865234375,0.09912109375,-0.732177734375,7060,-5018,-7,-14,-10,156
93143424,0.1531982421875,-0.6580810546875,0.11279296875,-0.72857666015625,7011,-4999,131,-13,-6,144
93153407,0.1651611328125,-0.65667724609375,0.12554931640625,-0.72515869140625,7048,-5226,184,-12,-3,135
93163392,0.1768798828125,-0.65478515625,0.13824462890625,-0.72174072265625,7095,-5591,210,-11,0,134
93173365,0.1890869140625,-0.65240478515625,0.15130615234375,-0.71820068359375,7097,-5985,227,-10,2,140
93183350,0.2020263671875,-0.64947509765625,0.1649169921875,-0.71429443359375,7008,-6243,249,-9,3,149
93193330,0.21533203125,-0.64599609375,0.1788330078125,-0.710205078125,6856,-6276,330,-9,5,155
93203313,0.228515625,-0.64208984375,0.19256591796875,-0.7060546875,6635,-6133,437,-9,6,155
93213295,0.24078369140625,-0.6378173828125,0.2056884765625,-0.70208740234375,6411,-5984,584,-10,9,147
93223277,0.252197265625,-0.63323974609375,0.21826171875,-0.69842529296875,6255,-6130,688,-11,12,140
93233259,0.26336669921875,-0.62835693359375,0.23095703125,-0.69464111328125,6157,-6570,687,-11,15,140
93243238,0.27496337890625,-0.62286376953125,0.24432373046875,-0.6905517578125,6053,-7101,649,-11,18,147
93253230,0.28729248046875,-0.61663818359375,0.258544921875,-0.68585205078125,5876,-7560,613,-11,19,158
93263213,0.30035400390625,-0.6097412109375,0.27337646484375,-0.6806640625,5617,-7871,605,-10,20,167
93273192,0.3134765625,-0.602294921875,0.2882080078125,-0.67523193359375,5312,-7971,635,-10,21,170
93283184,0.32623291015625,-0.5946044921875,0.30267333984375,-0.669677734375,4971,-7939,699,-10,22,166
93293165,0.338134765625,-0.586669921875,0.31646728515625,-0.664306640625,4620,-7985,803,-10,24,158
93303142,0.34930419921875,-0.5787353515625,0.329833984375,-0.6590576171875,4357,-8313,820,-10,25,152
93313118,0.36016845703125,-0.57049560546875,0.34295654296875,-0.653564453125,4094,-8780,813,-10,26,151
93323102,0.37115478515625,-0.56195068359375,0.35614013671875,-0.64776611328125,3811,-9274,780,-8,26,153
93333085,0.38238525390625,-0.552978515625,0.36920166015625,-0.64166259765625,3503,-9726,758,-6,26,156
93343067,0.3936767578125,-0.543701171875,0.38201904296875,-0.63519287109375,3192,-10022,777,-4,25,157
93353051,0.40478515625,-0.53424072265625,0.394287109375,-0.62872314453125,2868,-10112,842,-3,24,154
93363031,0.415283203125,-0.52484130859375,0.40570068359375,-0.62249755859375,2556,-10034,947,-1,24,146
93373014,0.42498779296875,-0.51568603515625,0.41619873046875,-0.61663818359375,2279,-9924,1055,-1,24,137
93382995,0.433837890625,-0.5068359375,0.42596435546875,-0.61114501953125,2065,-9842,1162,-1,24,128
93392982,0.4420166015625,-0.49810791015625,0.4351806640625,-0.60589599609375,1887,-9859,1261,-1,25,123
93402959,0.449951171875,-0.4893798828125,0.44427490234375,-0.6005859375,1718,-9937,1334,-2,25,124
93412943,0.45794677734375,-0.48040771484375,0.45330810546875,-0.594970703125,1517,-9982,1404,-2,25,127
93422924,0.46600341796875,-0.4710693359375,0.46246337890625,-0.589111328125,1290,-9934,1487,-2,25,130
93432906,0.4739990234375,-0.46160888671875,0.4715576171875,-0.5830078125,1037,-9810,1526,-2,26,131
93442889,0.4818115234375,-0.451904296875,0.48065185546875,-0.57672119140625,783,-9628,1582,-3,27,131
93452878,0.4892578125,-0.44219970703125,0.48956298828125,-0.57049560546875,590,-9508,1657,-3,28,129
93462855,0.496337890625,-0.43243408203125,0.498291015625,-0.56427001953125,386,-9466,1715,-4,29,127
93472840,0.5030517578125,-0.42254638671875,0.50689697265625,-0.55804443359375,178,-9479,1744,-5,31,127
93482823,0.50958251953125,-0.41259765625,0.5155029296875,-0.55169677734375,-61,-9512,1742,-5,32,126
93492806,0.5157470703125,-0.402587890625,0.52392578125,-0.54534912109375,-303,-9519,1723,-5,33,124
93502789,0.5216064453125,-0.392578125,0.5322265625,-0.53900146484375,-570,-9482,1709,-5,34,122
93512768,0.52703857421875,-0.38250732421875,0.540283203125,-0.53289794921875,-832,-9434,1708,-4,35,119
93522758,0.53216552734375,-0.37249755859375,0.54803466796875,-0.5269775390625,-1118,-9367,1714,-3,36,114
93532741,0.536865234375,-0.36260986328125,0.55548095703125,-0.52130126953125,-1408,-9315,1733,-3,37,110
93542717,0.54107666015625,-0.35296630859375,0.56256103515625,-0.51593017578125,-1687,-9295,1736,-2,38,105
93552697,0.544921875,-0.343505859375,0.5693359375,-0.51080322265625,-1941,-9335,1727,-2,38,100
93562681,0.54852294921875,-0.334228515625,0.57574462890625,-0.50592041015625,-2164,-9379,1705,-1,37,98
93572666,0.5518798828125,-0.3250732421875,0.58184814453125,-0.50115966796875,-2364,-9394,1652,1,36,95
93582648,0.5550537109375,-0.316162109375,0.587646484375,-0.49658203125,-2566,-9391,1611,2,36,91
93592636,0.5579833984375,-0.30755615234375,0.593017578125,-0.49237060546875,-2735,-9328,1573,3,34,85
93602616,0.56048583984375,-0.299560546875,0.5977783203125,-0.4886474609375,-2886,-9202,1574,4,33,76
93612598,0.56243896484375,-0.2923583984375,0.60186767578125,-0.48565673828125,-3002,-9037,1570,4,31,65
93622580,0.56390380859375,-0.2860107421875,0.60540771484375,-0.4833984375,-3117,-8895,1589,5,29,54
93632563,0.56488037109375,-0.280517578125,0.60833740234375,-0.48175048828125,-3223,-8786,1594,5,27,44
93642543,0.5654296875,-0.27593994140625,0.61077880859375,-0.480712890625,-3326,-8725,1563,5,25,35
93652527,0.565673828125,-0.27203369140625,0.61297607421875,-0.4798583984375,-3434,-8751,1493,4,22,29
93662508,0.5657958984375,-0.2685546875,0.6148681640625,-0.47918701171875,-3525,-8812,1392,4,20,27
93672491,0.5660400390625,-0.26544189453125,0.61669921875,-0.4783935546875,-3580,-8892,1288,3,17,27
93682475,0.56646728515625,-0.2623291015625,0.618408203125,-0.477294921875,-3602,-8925,1194,2,15,29
93692457,0.5670166015625,-0.2593994140625,0.6201171875,-0.47601318359375,-3559,-8897,1143,1,13,30
93702437,0.5677490234375,-0.25665283203125,0.6217041015625,-0.474609375,-3467,-8767,1098,0,11,30
93712429,0.568359375,-0.2542724609375,0.62322998046875,-0.47314453125,-3377,-8576,1052,-2,10,27
93722409,0.56890869140625,-0.2523193359375,0.62445068359375,-0.47186279296875,-3291,-8358,1042,-2,8,22
93732390,0.569091796875,-0.2510986328125,0.62548828125,-0.470947265625,-3218,-8152,1013,-4,6,15
93742366,0.5689697265625,-0.25054931640625,0.626220703125,-0.470458984375,-3164,-7990,1000,-4,5,7
93752350,0.56854248046875,-0.2506103515625,0.62664794921875,-0.4703369140625,-3132,-7874,1000,-5,4,1
93762329,0.56793212890625,-0.251220703125,0.62689208984375,-0.470458984375,-3083,-7802,983,-6,2,-3
93772304,0.5672607421875,-0.2520751953125,0.626953125,-0.470703125,-3052,-7795,943,-6,1,-4
93782293,0.5667724609375,-0.2529296875,0.6270751953125,-0.470703125,-3043,-7834,890,-6,-1,-2
93792272,0.56646728515625,-0.253662109375,0.62725830078125,-0.4703369140625,-3034,-7870,809,-6,-2,2
93802256,0.5665283203125,-0.254150390625,0.6275634765625,-0.46966552734375,-3032,-7927,723,-7,-3,7
93812242,0.56689453125,-0.25439453125,0.6279296875,-0.46856689453125,-3044,-7981,642,-7,-4,11
93822225,0.56756591796875,-0.25439453125,0.62841796875,-0.4671630859375,-3031,-8030,555,-7,-5,15
93832209,0.56842041015625,-0.2542724609375,0.62896728515625,-0.4654541015625,-3022,-8069,466,-8,-6,18
93842188,0.56939697265625,-0.254150390625,0.6295166015625,-0.46356201171875,-2988,-8099,398,-8,-7,20
93852178,0.57049560546875,-0.25396728515625,0.63006591796875,-0.46160888671875,-2936,-8097,362,-8,-7,21
93862161,0.571533203125,-0.25384521484375,0.63055419921875,-0.45965576171875,-2874,-8091,339,-8,-8,20
93872140,0.57244873046875,-0.25384521484375,0.63104248046875,-0.4578857421875,-2850,-8069,348,-8,-7,18
93882116,0.5732421875,-0.25396728515625,0.63140869140625,-0.45623779296875,-2851,-8053,347,-8,-7,15
93892099,0.5738525390625,-0.25439453125,0.6317138671875,-0.454833984375,-2886,-8044,344,-8,-6,12
93902083,0.57427978515625,-0.25494384765625,0.6319580078125,-0.45367431640625,-2936,-8007,336,-8,-6,8
93912064,0.574462890625,-0.2557373046875,0.63214111328125,-0.4527587890625,-2959,-7951,310,-8,-6,5
93922051,0.574462890625,-0.2567138671875,0.63226318359375,-0.45196533203125,-2962,-7892,288,-8,-5,3
93932030,0.5743408203125,-0.25775146484375,0.63238525390625,-0.4512939453125,-2955,-7815,283,-8,-5,2
93942012,0.57427978515625,-0.25885009765625,0.63250732421875,-0.45068359375,-2925,-7726,300,-9,-5,2
93951995,0.57427978515625,-0.25982666015625,0.63262939453125,-0.449951171875,-2904,-7643,334,-8,-5,3
93961984,0.57440185546875,-0.2606201171875,0.63275146484375,-0.44915771484375,-2899,-7566,362,-9,-5,5
93971961,0.5745849609375,-0.26123046875,0.633056640625,-0.4481201171875,-2907,-7482,362,-9,-4,7
93981942,0.57470703125,-0.2618408203125,0.6334228515625,-0.4471435546875,-2882,-7391,376,-9,-4,7
93991926,0.57489013671875,-0.2623291015625,0.6337890625,-0.446044921875,-2879,-7297,402,-10,-3,7
94001907,0.57501220703125,-0.26287841796875,0.63421630859375,-0.44500732421875,-2876,-7235,428,-10,-3,7
94011889,0.5750732421875,-0.263427734375,0.6346435546875,-0.4439697265625,-2882,-7194,454,-10,-2,7
94021871,0.57501220703125,-0.26397705078125,0.6351318359375,-0.44293212890625,-2891,-7178,464,-10,-2,7
94031853,0.57501220703125,-0.264404296875,0.6357421875,-0.44183349609375,-2919,-7180,485,-11,-1,8
94041836,0.57501220703125,-0.2647705078125,0.63641357421875,-0.440673828125,-2995,-7220,476,-11,-1,9
94051824,0.57501220703125,-0.26507568359375,0.63720703125,-0.43939208984375,-3059,-7246,458,-11,0,9
94061804,0.5750732421875,-0.2652587890625,0.63800048828125,-0.43798828125,-3105,-7244,454,-12,0,10
94071786,0.5750732421875,-0.2655029296875,0.63885498046875,-0.4366455078125,-3151,-7235,461,-12,0,9
94081766,0.57501220703125,-0.2657470703125,0.63970947265625,-0.435302734375,-3208,-7211,475,-12,1,9
94091756,0.5748291015625,-0.26611328125,0.64056396484375,-0.43408203125,-3230,-7191,493,-13,1,7
94101739,0.5745849609375,-0.2664794921875,0.641357421875,-0.43292236328125,-3270,-7174,504,-13,2,6
94111716,0.57421875,-0.2669677734375,0.6422119140625,-0.431884765625,-3308,-7159,523,-13,2,5
94121698,0.57379150390625,-0.267578125,0.64300537109375,-0.430908203125,-3362,-7133,550,-14,2,3
94131680,0.57330322265625,-0.268310546875,0.643798828125,-0.42999267578125,-3429,-7106,554,-14,2,2
94141664,0.5726318359375,-0.2691650390625,0.64453125,-0.42919921875,-3493,-7088,557,-14,2,-1
94151642,0.57183837890625,-0.27020263671875,0.645263671875,-0.42852783203125,-3555,-7076,533,-14,2,-3
94161624,0.5709228515625,-0.271484375,0.64593505859375,-0.42791748046875,-3604,-7048,504,-15,2,-5
94171608,0.57000732421875,-0.2728271484375,0.64654541015625,-0.42730712890625,-3652,-7020,475,-15,2,-6
94181589,0.569091796875,-0.27423095703125,0.647216796875,-0.4266357421875,-3681,-7012,452,-16,1,-6
94191570,0.5682373046875,-0.27557373046875,0.64788818359375,-0.42584228515625,-3729,-7014,454,-16,1,-4
94201553,0.56756591796875,-0.27691650390625,0.6485595703125,-0.4249267578125,-3781,-7014,455,-17,0,-3
94211536,0.56695556640625,-0.278076171875,0.6492919921875,-0.423828125,-3847,-7008,464,-18,0,-1
94221525,0.56646728515625,-0.27923583984375,0.65008544921875,-0.4224853515625,-3908,-6988,458,-18,0,0
94231503,0.5660400390625,-0.28033447265625,0.65093994140625,-0.42095947265625,-3965,-6977,441,-19,-1,1
94241483,0.56573486328125,-0.281494140625,0.65179443359375,-0.41937255859375,-4007,-6981,416,-19,-2,1
94251465,0.56536865234375,-0.28271484375,0.652587890625,-0.417724609375,-4035,-6986,387,-20,-3,2
94261449,0.56512451171875,-0.28399658203125,0.65338134765625,-0.41595458984375,-4069,-6994,349,-21,-3,1
94271436,0.5648193359375,-0.285400390625,0.6541748046875,-0.41412353515625,-4109,-7001,302,-21,-4,1
94281418,0.5645751953125,-0.2869873046875,0.6549072265625,-0.4122314453125,-4160,-7005,264,-22,-5,0
94291404,0.56439208984375,-0.2886962890625,0.65557861328125,-0.4102783203125,-4219,-7016,232,-23,-6,-1
94301375,0.56427001953125,-0.29052734375,0.6561279296875,-0.4083251953125,-4263,-7020,200,-23,-7,-1
94311357,0.5640869140625,-0.29241943359375,0.65667724609375,-0.40625,-4292,-7004,165,-24,-8,-2
94321342,0.56402587890625,-0.29449462890625,0.65716552734375,-0.40411376953125,-4307,-6992,120,-24,-10,-2
94331324,0.56396484375,-0.29669189453125,0.65753173828125,-0.40191650390625,-4312,-6974,93,-25,-11,-3
94341306,0.56396484375,-0.29901123046875,0.6578369140625,-0.399658203125,-4312,-6988,67,-26,-12,-3
94351293,0.56402587890625,-0.30145263671875,0.6580810546875,-0.3973388671875,-4310,-7014,34,-26,-13,-3
94361272,0.5640869140625,-0.30401611328125,0.65826416015625,-0.39501953125,-4332,-7054,-11,-26,-14,-3
94371256,0.56427001953125,-0.306640625,0.65838623046875,-0.39251708984375,-4336,-7114,-42,-27,-15,-3
94381241,0.56451416015625,-0.309326171875,0.65838623046875,-0.3900146484375,-4330,-7159,-98,-27,-16,-3
94391224,0.56488037109375,-0.31207275390625,0.658447265625,-0.38726806640625,-4329,-7181,-152,-27,-18,-2
94401214,0.56536865234375,-0.314697265625,0.65838623046875,-0.38446044921875,-4312,-7183,-186,-27,-19,0
94411189,0.56597900390625,-0.3173828125,0.65826416015625,-0.381591796875,-4285,-7188,-212,-27,-20,0
94421180,0.56658935546875,-0.320068359375,0.6580810546875,-0.378662109375,-4254,-7164,-242,-28,-21,0
94431163,0.5672607421875,-0.32293701171875,0.65777587890625,-0.37579345703125,-4234,-7143,-249,-28,-21,-2
94441130,0.56781005859375,-0.32598876953125,0.6573486328125,-0.373046875,-4204,-7133,-278,-27,-22,-4
94451113,0.56842041015625,-0.3291015625,0.65679931640625,-0.37042236328125,-4179,-7113,-287,-27,-23,-5
94461095,0.56903076171875,-0.3323974609375,0.65606689453125,-0.36785888671875,-4158,-7103,-300,-27,-23,-7
94471077,0.569580078125,-0.33575439453125,0.65521240234375,-0.36529541015625,-4127,-7104,-308,-27,-24,-7
