subject,Joshua Spiesman
arm,left
label,0
hz,100.17477862692012
time,4.552044

timestamp_us,q0,q1,q2,q3,ax,ay,az,gx,gy,gz
243380376,-0.1796875,0.653076171875,-0.28082275390625,0.679931640625,6526,-5266,278,0,0,1
243390355,-0.179931640625,0.6527099609375,-0.28094482421875,0.68011474609375,6530,-5292,292,0,1,2
243400336,-0.18023681640625,0.65234375,-0.2811279296875,0.68035888671875,6518,-5322,310,0,1,2
243410320,-0.18060302734375,0.65185546875,-0.28131103515625,0.68060302734375,6521,-5344,313,1,1,2
243420302,-0.1810302734375,0.6513671875,-0.281494140625,0.680908203125,6501,-5371,296,2,2,2
243430287,-0.18145751953125,0.65087890625,-0.28155517578125,0.6812744140625,6508,-5394,292,2,3,2
243440268,-0.18182373046875,0.65032958984375,-0.281494140625,0.68170166015625,6483,-5405,280,3,3,1
243450250,-0.1822509765625,0.64971923828125,-0.28143310546875,0.68218994140625,6455,-5406,291,4,3,1
243460238,-0.1827392578125,0.64910888671875,-0.28125,0.6827392578125,6433,-5414,282,4,4,1
243470221,-0.18328857421875,0.6484375,-0.2811279296875,0.6832275390625,6406,-5409,281,5,3,2
243480204,-0.18402099609375,0.6478271484375,-0.28106689453125,0.6837158203125,6388,-5405,263,5,3,3
243490184,-0.184814453125,0.64715576171875,-0.281005859375,0.68408203125,6358,-5401,229,6,3,4
243500175,-0.18572998046875,0.64654541015625,-0.281005859375,0.6844482421875,6354,-5393,211,6,2,4
243510158,-0.1866455078125,0.64599609375,-0.2808837890625,0.68475341796875,6336,-5369,202,7,2,4
243520134,-0.18743896484375,0.64544677734375,-0.28057861328125,0.6851806640625,6317,-5326,214,7,2,2
243530110,-0.18804931640625,0.64495849609375,-0.2801513671875,0.6856689453125,6311,-5283,241,6,2,0
243540092,-0.1884765625,0.64459228515625,-0.279541015625,0.6861572265625,6297,-5244,278,6,2,-2
243550074,-0.1888427734375,0.644287109375,-0.27886962890625,0.68658447265625,6285,-5229,291,6,1,-3
243560056,-0.18914794921875,0.64404296875,-0.27813720703125,0.68707275390625,6291,-5210,283,6,1,-3
243570045,-0.18939208984375,0.643798828125,-0.2774658203125,0.6875,6307,-5198,280,6,1,-3
243580021,-0.18975830078125,0.6435546875,-0.27679443359375,0.6878662109375,6339,-5211,273,6,1,-2
243590004,-0.190185546875,0.6431884765625,-0.27630615234375,0.68829345703125,6370,-5231,258,6,1,-1
243599992,-0.190673828125,0.642822265625,-0.2757568359375,0.688720703125,6406,-5239,259,6,2,0
243609978,-0.191162109375,0.64239501953125,-0.27532958984375,0.68914794921875,6429,-5246,261,6,3,0
243619957,-0.19158935546875,0.64190673828125,-0.27484130859375,0.689697265625,6427,-5244,275,6,3,-1
243629936,-0.19195556640625,0.641357421875,-0.27423095703125,0.6903076171875,6422,-5240,295,6,4,-2
243639917,-0.192138671875,0.64080810546875,-0.27362060546875,0.6910400390625,6409,-5225,330,6,4,-3
243649899,-0.1922607421875,0.6402587890625,-0.2728271484375,0.69183349609375,6386,-5211,372,6,4,-4
243659882,-0.19232177734375,0.63970947265625,-0.2720947265625,0.692626953125,6356,-5199,410,6,5,-4
243669864,-0.19244384765625,0.63909912109375,-0.27142333984375,0.693359375,6338,-5172,439,6,5,-4
243679848,-0.19268798828125,0.63848876953125,-0.27081298828125,0.694091796875,6299,-5161,475,6,4,-2
243689830,-0.19305419921875,0.63787841796875,-0.270263671875,0.69482421875,6282,-5127,518,6,4,-1
243699817,-0.1934814453125,0.63726806640625,-0.26983642578125,0.6954345703125,6249,-5087,574,6,3,0
243709797,-0.19403076171875,0.6365966796875,-0.26947021484375,0.696044921875,6225,-5051,636,5,3,1
243719778,-0.19451904296875,0.63592529296875,-0.2691650390625,0.69659423828125,6182,-5022,689,5,3,1
243729759,-0.19500732421875,0.6353759765625,-0.26885986328125,0.69708251953125,6159,-4994,726,4,2,1
243739753,-0.19537353515625,0.6348876953125,-0.26849365234375,0.69757080078125,6150,-5002,751,4,2,0
243749735,-0.1956787109375,0.63446044921875,-0.26812744140625,0.69805908203125,6157,-5010,761,4,2,-1
243759709,-0.1959228515625,0.6341552734375,-0.2677001953125,0.69842529296875,6169,-5013,764,4,1,-2
243769693,-0.19598388671875,0.63385009765625,-0.26715087890625,0.6988525390625,6185,-5023,767,3,1,-3
243779675,-0.196044921875,0.633544921875,-0.2666015625,0.6993408203125,6208,-5031,779,3,1,-4
243789654,-0.19598388671875,0.63323974609375,-0.26605224609375,0.6998291015625,6235,-5047,778,3,2,-4
243799641,-0.19598388671875,0.6329345703125,-0.2655029296875,0.7003173828125,6255,-5077,787,3,2,-4
243809620,-0.196044921875,0.63262939453125,-0.26495361328125,0.7008056640625,6276,-5101,758,4,2,-3
243819605,-0.1961669921875,0.63226318359375,-0.2645263671875,0.70123291015625,6319,-5149,738,4,2,-2
243829585,-0.1964111328125,0.6318359375,-0.26409912109375,0.70172119140625,6372,-5200,730,5,3,-2
243839568,-0.19677734375,0.63140869140625,-0.263671875,0.7021484375,6407,-5247,721,5,3,-1
243849551,-0.1971435546875,0.630859375,-0.26318359375,0.70269775390625,6444,-5279,730,6,3,-1
243859536,-0.1976318359375,0.63031005859375,-0.26275634765625,0.7032470703125,6453,-5294,744,6,4,-1
243869517,-0.1981201171875,0.62969970703125,-0.26220703125,0.703857421875,6472,-5299,770,7,4,-1
243879498,-0.1986083984375,0.6290283203125,-0.26165771484375,0.70452880859375,6468,-5296,813,7,4,-1
243889480,-0.19915771484375,0.6282958984375,-0.260986328125,0.70526123046875,6451,-5284,865,8,4,-1
243899463,-0.19976806640625,0.62762451171875,-0.26025390625,0.70599365234375,6420,-5271,896,9,4,-2
243909447,-0.20025634765625,0.62689208984375,-0.25933837890625,0.706787109375,6365,-5237,920,10,4,-3
243919426,-0.20074462890625,0.626220703125,-0.25830078125,0.7076416015625,6311,-5209,946,10,4,-4
243929417,-0.201171875,0.6256103515625,-0.257080078125,0.70849609375,6274,-5187,956,11,4,-5
243939400,-0.20159912109375,0.625,-0.25579833984375,0.7093505859375,6263,-5140,924,12,4,-5
243949383,-0.20208740234375,0.62445068359375,-0.2545166015625,0.710205078125,6258,-5100,910,12,3,-5
243959359,-0.20269775390625,0.6239013671875,-0.2532958984375,0.71099853515625,6235,-5036,869,13,3,-3
243969344,-0.20343017578125,0.623291015625,-0.2520751953125,0.71173095703125,6200,-4962,850,13,3,-2
243979324,-0.2041015625,0.6226806640625,-0.2508544921875,0.7125244140625,6140,-4870,837,13,4,-3
243989307,-0.2047119140625,0.6220703125,-0.24951171875,0.71331787109375,6077,-4777,840,13,3,-4
243999290,-0.20513916015625,0.62152099609375,-0.24798583984375,0.7142333984375,6023,-4674,843,13,4,-6
244009272,-0.20538330078125,0.6209716796875,-0.2464599609375,0.71514892578125,5990,-4589,854,12,4,-7
244019254,-0.20556640625,0.6204833984375,-0.24493408203125,0.71600341796875,5960,-4494,874,11,4,-7
244029235,-0.205810546875,0.6199951171875,-0.2435302734375,0.71685791015625,5944,-4407,893,11,4,-6
244039226,-0.20611572265625,0.61944580078125,-0.2423095703125,0.7176513671875,5938,-4329,891,10,3,-3
244049208,-0.20648193359375,0.6190185546875,-0.24127197265625,0.71832275390625,5938,-4265,864,9,3,-2
244059188,-0.2069091796875,0.6185302734375,-0.2403564453125,0.7188720703125,5907,-4194,842,9,3,-1
244069179,-0.2071533203125,0.6181640625,-0.239501953125,0.71942138671875,5903,-4164,851,7,2,-3
244079161,-0.20709228515625,0.617919921875,-0.23858642578125,0.71990966796875,5905,-4134,857,5,2,-5
244089138,-0.20660400390625,0.6177978515625,-0.237548828125,0.72052001953125,5891,-4115,917,4,2,-9
244099116,-0.20562744140625,0.61785888671875,-0.236328125,0.72113037109375,5876,-4057,989,2,2,-14
244109095,-0.2042236328125,0.6180419921875,-0.23486328125,0.721923828125,5839,-3980,1125,0,1,-17
244119079,-0.2025146484375,0.61822509765625,-0.2333984375,0.72265625,5810,-3920,1320,-2,0,-18
244129060,-0.200927734375,0.61846923828125,-0.23211669921875,0.72332763671875,5861,-3949,1499,-3,-1,-16
244139038,-0.19964599609375,0.6187744140625,-0.231201171875,0.72369384765625,5968,-4020,1619,-4,-3,-12
244149023,-0.19866943359375,0.619140625,-0.230712890625,0.72381591796875,6097,-4059,1721,-5,-5,-8
244159006,-0.19793701171875,0.61968994140625,-0.2303466796875,0.72369384765625,6281,-4012,1871,-6,-7,-4
244168989,-0.197265625,0.6202392578125,-0.22991943359375,0.7235107421875,6446,-3959,2118,-7,-9,-4
244178976,-0.19647216796875,0.620849609375,-0.2294921875,0.72332763671875,6588,-3972,2414,-9,-10,-6
244191989,-0.19525146484375,0.62158203125,-0.22894287109375,0.7232666015625,6738,-4088,2645,-10,-11,-10
244198934,-0.1937255859375,0.6224365234375,-0.22821044921875,0.72314453125,6891,-4253,2769,-12,-12,-14
244208916,-0.19183349609375,0.62359619140625,-0.227294921875,0.72296142578125,7078,-4432,2729,-11,-12,-18
244218899,-0.1895751953125,0.6248779296875,-0.22613525390625,0.7227783203125,7235,-4573,2608,-10,-11,-22
244228883,-0.1868896484375,0.6263427734375,-0.224609375,0.72265625,7366,-4662,2475,-10,-10,-27
244238871,-0.18377685546875,0.6278076171875,-0.22247314453125,0.72283935546875,7502,-4718,2384,-8,-9,-33
244248848,-0.18023681640625,0.6292724609375,-0.2198486328125,0.7232666015625,7614,-4735,2326,-7,-7,-38
244258832,-0.1763916015625,0.63067626953125,-0.216796875,0.72393798828125,7668,-4704,2295,-5,-7,-42
244268814,-0.17236328125,0.63201904296875,-0.21331787109375,0.72479248046875,7686,-4646,2288,-3,-6,-45
244278799,-0.1683349609375,0.63330078125,-0.20965576171875,0.72564697265625,7687,-4590,2300,-2,-6,-46
244288785,-0.16461181640625,0.6343994140625,-0.2059326171875,0.72662353515625,7689,-4529,2335,0,-5,-44
244298760,-0.1612548828125,0.63525390625,-0.20233154296875,0.72760009765625,7673,-4467,2391,1,-5,-40
244308753,-0.1585693359375,0.6358642578125,-0.1990966796875,0.72857666015625,7619,-4391,2431,3,-4,-34
244318735,-0.15655517578125,0.63623046875,-0.1962890625,0.7294921875,7501,-4301,2441,4,-3,-28
244328713,-0.15496826171875,0.6363525390625,-0.19366455078125,0.73040771484375,7363,-4201,2427,6,-2,-24
244338694,-0.15380859375,0.63641357421875,-0.191162109375,0.73126220703125,7194,-4074,2392,7,-2,-21
244348678,-0.1529541015625,0.63629150390625,-0.18878173828125,0.73211669921875,7053,-3967,2341,9,-2,-19
244358659,-0.15240478515625,0.63616943359375,-0.1865234375,0.73297119140625,6974,-3911,2229,10,-1,-16
244368645,-0.15228271484375,0.6358642578125,-0.1844482421875,0.7337646484375,6952,-3921,2048,12,0,-12
244378629,-0.15277099609375,0.63543701171875,-0.18280029296875,0.73443603515625,6944,-3995,1819,14,2,-6
244388613,-0.154052734375,0.6348876953125,-0.18145751953125,0.7349853515625,6940,-4108,1518,16,3,0
244398592,-0.15606689453125,0.6341552734375,-0.18060302734375,0.73541259765625,6955,-4249,1144,19,4,6
244408572,-0.1585693359375,0.6334228515625,-0.1798095703125,0.73565673828125,7008,-4357,721,22,5,9
244418559,-0.16131591796875,0.6328125,-0.178955078125,0.73577880859375,7075,-4472,242,24,5,9
244428541,-0.1639404296875,0.63250732421875,-0.17779541015625,0.73577880859375,7235,-4606,-262,26,4,6
244438523,-0.166259765625,0.632568359375,-0.17633056640625,0.735595703125,7514,-4815,-767,26,3,2
244448509,-0.168212890625,0.63299560546875,-0.17462158203125,0.73516845703125,7939,-5110,-1309,26,3,-1
244458487,-0.1700439453125,0.63372802734375,-0.1729736328125,0.7344970703125,8391,-5453,-1921,26,2,-2
244468470,-0.171630859375,0.63494873046875,-0.17138671875,0.73345947265625,8709,-5679,-2554,25,1,-5
244478452,-0.17242431640625,0.6365966796875,-0.16925048828125,0.73236083984375,8753,-5674,-3057,24,0,-14
244488431,-0.17138671875,0.638671875,-0.165771484375,0.7315673828125,8612,-5457,-3403,21,-1,-35
244498426,-0.16778564453125,0.64129638671875,-0.16033935546875,0.7313232421875,8395,-5100,-3582,18,-2,-62
244508409,-0.16143798828125,0.64434814453125,-0.15289306640625,0.73162841796875,8244,-4733,-3580,15,-2,-89
244518391,-0.15283203125,0.647705078125,-0.1439208984375,0.73236083984375,8301,-4440,-3452,11,-2,-108
244528368,-0.14312744140625,0.65106201171875,-0.13433837890625,0.733154296875,8453,-4200,-3274,8,-3,-115
244538351,-0.13348388671875,0.6541748046875,-0.125,0.73382568359375,8583,-4003,-3050,6,-3,-110
244548333,-0.124755859375,0.65692138671875,-0.116455078125,0.734375,8518,-3730,-2750,6,-3,-99
244558314,-0.11712646484375,0.65911865234375,-0.10870361328125,0.73486328125,8197,-3269,-2301,7,-3,-87
244568299,-0.1104736328125,0.66070556640625,-0.1014404296875,0.7354736328125,7675,-2597,-1651,8,-3,-77
244578280,-0.10418701171875,0.66162109375,-0.09423828125,0.73651123046875,7031,-1809,-788,8,-3,-72
244588262,-0.09783935546875,0.66204833984375,-0.0867919921875,0.7379150390625,6349,-1016,223,8,-4,-74
244598250,-0.091064453125,0.6619873046875,-0.07891845703125,0.73974609375,5714,-305,1298,7,-3,-77
244608234,-0.0838623046875,0.661376953125,-0.07098388671875,0.74188232421875,5089,282,2378,5,-4,-78
244618216,-0.0767822265625,0.66046142578125,-0.063232421875,0.74420166015625,4426,766,3337,4,-4,-76
244628199,-0.07000732421875,0.6593017578125,-0.05596923828125,0.7464599609375,3781,1143,4088,3,-5,-70
244638188,-0.06396484375,0.658203125,-0.049560546875,0.74847412109375,3236,1394,4612,2,-7,-61
244648169,-0.05914306640625,0.65716552734375,-0.0443115234375,0.75006103515625,2900,1476,4852,2,-9,-47
244658151,-0.05596923828125,0.656494140625,-0.0406494140625,0.7510986328125,2830,1397,4865,2,-11,-28
244668121,-0.05487060546875,0.65618896484375,-0.03887939453125,0.75152587890625,3084,1155,4668,2,-13,-6
244678105,-0.05609130859375,0.6563720703125,-0.039306640625,0.751220703125,3776,679,4283,1,-16,18
244688084,-0.05987548828125,0.6572265625,-0.042236328125,0.75006103515625,5031,-23,3715,0,-19,45
244698066,-0.0665283203125,0.65863037109375,-0.0478515625,0.7479248046875,6683,-904,2968,0,-22,75
244708049,-0.07586669921875,0.66058349609375,-0.05615234375,0.7447509765625,8370,-1834,2087,-2,-25,102
244718031,-0.08673095703125,0.66290283203125,-0.06610107421875,0.74066162109375,9768,-2714,1198,-3,-27,116
244728012,-0.0972900390625,0.66546630859375,-0.07611083984375,0.736083984375,10739,-3477,413,-5,-28,108
244737994,-0.10552978515625,0.6680908203125,-0.084228515625,0.731689453125,11291,-4097,-186,-6,-27,78
244747986,-0.1097412109375,0.6708984375,-0.0888671875,0.7279052734375,11540,-4554,-607,-6,-25,30
244757972,-0.109130859375,0.67388916015625,-0.08905029296875,0.7252197265625,11554,-4790,-841,-6,-22,-25
244767945,-0.10382080078125,0.67694091796875,-0.08477783203125,0.72369384765625,11363,-4768,-917,-5,-18,-76
244777928,-0.0948486328125,0.67987060546875,-0.0767822265625,0.72308349609375,11013,-4534,-861,-3,-15,-114
244787910,-0.0836181640625,0.682373046875,-0.0662841796875,0.72314453125,10518,-4115,-730,-1,-11,-136
244797896,-0.0714111328125,0.68426513671875,-0.05450439453125,0.72357177734375,9861,-3561,-513,1,-7,-144
244807880,-0.059326171875,0.685546875,-0.04248046875,0.72430419921875,9129,-2933,-220,3,-5,-140
244817860,-0.04827880859375,0.68609619140625,-0.03118896484375,0.72515869140625,8376,-2310,111,5,-2,-127
244827847,-0.0391845703125,0.6861572265625,-0.0213623046875,0.72607421875,7690,-1705,428,7,0,-102
244837825,-0.03265380859375,0.68572998046875,-0.0137939453125,0.7269287109375,7112,-1136,679,8,2,-71
244847807,-0.02923583984375,0.68511962890625,-0.00885009765625,0.72772216796875,6652,-624,876,10,3,-36
244857791,-0.02886962890625,0.68438720703125,-0.00653076171875,0.72845458984375,6321,-136,997,11,3,-3
244867778,-0.031005859375,0.68377685546875,-0.00640869140625,0.72894287109375,6185,309,1007,12,3,25
244877764,-0.03509521484375,0.6832275390625,-0.008056640625,0.729248046875,6286,726,897,12,3,46
244887746,-0.04071044921875,0.682861328125,-0.010986328125,0.729248046875,6558,1154,697,13,2,63
244897730,-0.04718017578125,0.68267822265625,-0.01470947265625,0.72900390625,6895,1572,387,13,2,73
244907706,-0.05364990234375,0.6826171875,-0.01849365234375,0.728515625,7223,1955,15,12,3,73
244917688,-0.05914306640625,0.68280029296875,-0.0216064453125,0.72784423828125,7525,2269,-370,11,3,62
244927668,-0.06280517578125,0.68310546875,-0.0234375,0.7271728515625,7821,2497,-709,8,3,43
244937652,-0.064208984375,0.6834716796875,-0.02374267578125,0.7266845703125,8163,2603,-966,4,3,20
244947638,-0.06329345703125,0.68402099609375,-0.022705078125,0.726318359375,8532,2586,-1159,-1,3,-2
244957612,-0.060302734375,0.68463134765625,-0.0206298828125,0.72601318359375,8863,2480,-1193,-7,1,-21
244967594,-0.0555419921875,0.68536376953125,-0.0179443359375,0.72576904296875,9113,2310,-1155,-13,0,-36
244977579,-0.04925537109375,0.6861572265625,-0.0150146484375,0.72552490234375,9325,2015,-1053,-20,-2,-47
244987560,-0.0419921875,0.68707275390625,-0.0123291015625,0.7252197265625,9491,1579,-935,-27,-4,-54
244997543,-0.0341796875,0.6881103515625,-0.01019287109375,0.72467041015625,9571,1038,-786,-34,-6,-57
245007525,-0.02593994140625,0.689208984375,-0.00872802734375,0.7239990234375,9546,450,-598,-39,-8,-59
245017505,-0.01763916015625,0.69036865234375,-0.00787353515625,0.72314453125,9427,-155,-379,-43,-11,-59
245027487,-0.0093994140625,0.69146728515625,-0.0076904296875,0.7222900390625,9202,-745,-107,-47,-12,-57
245037473,-0.00128173828125,0.69244384765625,-0.008056640625,0.72137451171875,8923,-1318,180,-49,-13,-56
245047455,0.00653076171875,0.6934814453125,-0.00897216796875,0.7203369140625,8619,-1869,454,-50,-15,-53
245057443,0.01385498046875,0.69439697265625,-0.01031494140625,0.7193603515625,8302,-2373,724,-49,-15,-49
245067430,0.02056884765625,0.6951904296875,-0.0120849609375,0.71832275390625,7956,-2829,971,-48,-16,-45
245077412,0.02655029296875,0.69598388671875,-0.01422119140625,0.71734619140625,7613,-3235,1140,-46,-16,-39
245087396,0.03167724609375,0.69677734375,-0.0166015625,0.71630859375,7295,-3560,1227,-42,-16,-34
245097370,0.03594970703125,0.697509765625,-0.01904296875,0.71533203125,7004,-3786,1263,-37,-15,-29
245107354,0.03955078125,0.69818115234375,-0.02130126953125,0.71441650390625,6758,-3897,1261,-33,-14,-26
245117337,0.04248046875,0.69873046875,-0.0233154296875,0.71368408203125,6563,-3887,1250,-27,-12,-22
245127321,0.04486083984375,0.69915771484375,-0.02508544921875,0.71307373046875,6462,-3746,1243,-23,-10,-18
245137304,0.046630859375,0.6993408203125,-0.02685546875,0.71270751953125,6448,-3516,1229,-20,-8,-12
245147288,0.04754638671875,0.69940185546875,-0.02899169921875,0.71246337890625,6504,-3250,1186,-17,-6,-3
245157271,0.04736328125,0.69940185546875,-0.03167724609375,0.71240234375,6630,-2965,1094,-15,-5,9
245167251,0.04608154296875,0.69940185546875,-0.03509521484375,0.71234130859375,6787,-2639,946,-13,-5,22
245177232,0.04376220703125,0.69940185546875,-0.03924560546875,0.7122802734375,6916,-2291,784,-11,-4,33
245187222,0.040771484375,0.6993408203125,-0.04388427734375,0.71221923828125,7017,-1918,624,-10,-3,41
245197204,0.03759765625,0.69927978515625,-0.0487060546875,0.712158203125,7137,-1558,478,-10,-3,44
245207184,0.0345458984375,0.6990966796875,-0.053466796875,0.71209716796875,7289,-1222,331,-11,-2,44
245217172,0.03167724609375,0.698974609375,-0.0582275390625,0.71197509765625,7457,-930,166,-12,-2,44
245227154,0.0289306640625,0.6988525390625,-0.06298828125,0.71185302734375,7625,-683,11,-13,-1,44
245237132,0.02642822265625,0.69873046875,-0.0677490234375,0.71160888671875,7751,-490,-131,-14,-1,44
245247108,0.0240478515625,0.6986083984375,-0.07257080078125,0.71136474609375,7863,-343,-254,-15,-1,43
245257090,0.02197265625,0.69854736328125,-0.0772705078125,0.71099853515625,7995,-219,-370,-16,-1,41
245267074,0.0201416015625,0.69854736328125,-0.0819091796875,0.71051025390625,8125,-158,-477,-17,-2,39
245277055,0.0186767578125,0.69854736328125,-0.08648681640625,0.71002197265625,8329,-132,-563,-19,-2,37
245287038,0.01739501953125,0.6986083984375,-0.0909423828125,0.70947265625,8550,-157,-649,-20,-2,35
245297020,0.016357421875,0.6986083984375,-0.095458984375,0.7088623046875,8711,-216,-725,-21,-2,34
245307001,0.0155029296875,0.69866943359375,-0.09991455078125,0.70819091796875,8814,-269,-769,-22,-2,32
245316989,0.01483154296875,0.69866943359375,-0.104248046875,0.70758056640625,8867,-332,-786,-22,-2,30
245326975,0.01446533203125,0.69866943359375,-0.10845947265625,0.70697021484375,8873,-397,-787,-23,-1,28
245336954,0.01434326171875,0.6986083984375,-0.1124267578125,0.7064208984375,8869,-474,-779,-23,-1,24
245346936,0.0145263671875,0.69854736328125,-0.1160888671875,0.70587158203125,8872,-548,-756,-23,-1,21
245356923,0.01495361328125,0.69842529296875,-0.1195068359375,0.70538330078125,8881,-605,-720,-23,0,18
245366901,0.01568603515625,0.69830322265625,-0.12261962890625,0.70501708984375,8853,-641,-682,-22,1,15
245376882,0.0166015625,0.6981201171875,-0.12542724609375,0.70465087890625,8823,-670,-647,-22,1,12
245386871,0.01776123046875,0.6978759765625,-0.12799072265625,0.70440673828125,8740,-684,-604,-22,2,10
245396849,0.01904296875,0.6976318359375,-0.13037109375,0.7042236328125,8678,-714,-575,-21,3,8
245406832,0.0203857421875,0.697265625,-0.132568359375,0.7041015625,8600,-747,-544,-21,4,6
245416814,0.0218505859375,0.6968994140625,-0.134521484375,0.70404052734375,8546,-777,-512,-20,4,4
245426796,0.0234375,0.69647216796875,-0.13623046875,0.70404052734375,8511,-804,-490,-19,5,2
245436778,0.025146484375,0.69598388671875,-0.1378173828125,0.70416259765625,8478,-813,-476,-19,6,1
245446764,0.0269775390625,0.6954345703125,-0.13934326171875,0.704345703125,8459,-829,-449,-19,7,0
245456748,0.0286865234375,0.69482421875,-0.1409912109375,0.70458984375,8435,-863,-439,-19,7,2
245466733,0.0301513671875,0.694091796875,-0.14288330078125,0.704833984375,8443,-916,-446,-19,8,6
245476708,0.0311279296875,0.69329833984375,-0.14532470703125,0.705078125,8462,-1002,-486,-20,8,11
245486692,0.03167724609375,0.69232177734375,-0.1483154296875,0.70538330078125,8457,-1080,-517,-21,9,17
245496675,0.03173828125,0.6912841796875,-0.15185546875,0.7056884765625,8464,-1162,-544,-21,9,22
245506659,0.03143310546875,0.6900634765625,-0.15582275390625,0.70599365234375,8492,-1232,-572,-21,9,27
245516642,0.03076171875,0.688720703125,-0.1602783203125,0.70635986328125,8517,-1311,-566,-22,9,32
245526623,0.02972412109375,0.687255859375,-0.1651611328125,0.7066650390625,8517,-1381,-554,-23,9,37
245536605,0.02838134765625,0.6856689453125,-0.17034912109375,0.70703125,8502,-1469,-525,-23,9,40
245546589,0.02685546875,0.68402099609375,-0.17584228515625,0.7073974609375,8445,-1574,-495,-23,9,42
245556572,0.0252685546875,0.682373046875,-0.1812744140625,0.7076416015625,8341,-1682,-465,-23,9,41
245566552,0.02392578125,0.6807861328125,-0.1865234375,0.7078857421875,8213,-1746,-401,-23,8,38
245576545,0.02288818359375,0.67919921875,-0.19140625,0.7081298828125,8072,-1826,-301,-23,8,33
245586523,0.02227783203125,0.67779541015625,-0.19573974609375,0.70831298828125,7936,-1908,-192,-22,7,27
245596507,0.0220947265625,0.676513671875,-0.1995849609375,0.70843505859375,7797,-1996,-37,-22,5,21
245606490,0.02227783203125,0.67547607421875,-0.202880859375,0.70855712890625,7678,-2089,137,-20,4,16
245616471,0.02239990234375,0.674560546875,-0.20574951171875,0.70855712890625,7591,-2220,336,-19,1,14
245626457,0.0224609375,0.67376708984375,-0.20843505859375,0.70849609375,7498,-2352,549,-17,-1,12
245636432,0.02227783203125,0.67315673828125,-0.2108154296875,0.7083740234375,7402,-2478,785,-14,-4,12
245646422,0.021728515625,0.67279052734375,-0.2130126953125,0.7081298828125,7315,-2588,999,-12,-7,12
245656406,0.02093505859375,0.672607421875,-0.21478271484375,0.707763671875,7263,-2691,1221,-8,-10,11
245666389,0.0198974609375,0.67266845703125,-0.21624755859375,0.70733642578125,7227,-2780,1406,-4,-13,9
245676360,0.01849365234375,0.6729736328125,-0.21722412109375,0.70672607421875,7257,-2879,1496,-1,-16,8
245686347,0.016845703125,0.67352294921875,-0.21783447265625,0.7060546875,7353,-2982,1511,3,-17,8
245696327,0.014892578125,0.67431640625,-0.21820068359375,0.70526123046875,7488,-3077,1443,6,-19,8
245706309,0.01251220703125,0.67523193359375,-0.21832275390625,0.70440673828125,7644,-3146,1300,10,-19,9
245716290,0.00994873046875,0.67626953125,-0.21832275390625,0.70343017578125,7786,-3181,1134,12,-19,9
245726274,0.00732421875,0.67730712890625,-0.218017578125,0.70257568359375,7876,-3163,981,14,-19,8
245736256,0.00482177734375,0.6783447265625,-0.21746826171875,0.7017822265625,7963,-3108,833,15,-18,7
245746235,0.00244140625,0.67938232421875,-0.21661376953125,0.7010498046875,8064,-3075,659,16,-16,5
245756227,0.00018310546875,0.68035888671875,-0.215576171875,0.70037841796875,8194,-3076,455,17,-14,4
245766209,-0.00213623046875,0.68121337890625,-0.214599609375,0.6998291015625,8320,-3095,250,17,-12,4
245776190,-0.00445556640625,0.6820068359375,-0.21356201171875,0.69940185546875,8415,-3114,16,18,-10,5
245786181,-0.0068359375,0.68255615234375,-0.212646484375,0.6990966796875,8471,-3096,-206,18,-7,7
245796167,-0.00933837890625,0.6829833984375,-0.21185302734375,0.698974609375,8478,-3027,-381,19,-5,8
245806147,-0.01190185546875,0.68316650390625,-0.2110595703125,0.698974609375,8454,-2945,-511,19,-3,10
245816118,-0.01458740234375,0.68310546875,-0.2103271484375,0.69915771484375,8410,-2844,-585,20,-1,12
245826106,-0.017333984375,0.68292236328125,-0.209716796875,0.699462890625,8350,-2758,-635,20,0,13
245836084,-0.02020263671875,0.6826171875,-0.209228515625,0.6998291015625,8283,-2711,-657,20,1,15
245846067,-0.023193359375,0.68218994140625,-0.20880126953125,0.70025634765625,8213,-2676,-659,20,1,16
245856049,-0.0262451171875,0.6817626953125,-0.2083740234375,0.70074462890625,8137,-2632,-643,21,1,16
245866031,-0.02935791015625,0.6812744140625,-0.2078857421875,0.701171875,8034,-2622,-603,21,0,15
245876014,-0.03240966796875,0.68084716796875,-0.207275390625,0.70166015625,7930,-2608,-544,22,0,15
245885997,-0.03546142578125,0.68048095703125,-0.2064208984375,0.7021484375,7817,-2613,-495,23,-1,13
245895983,-0.0384521484375,0.68023681640625,-0.2054443359375,0.7025146484375,7720,-2607,-439,23,-2,11
245905959,-0.04144287109375,0.68011474609375,-0.2042236328125,0.70281982421875,7657,-2629,-393,24,-3,10
245915942,-0.04449462890625,0.6800537109375,-0.20294189453125,0.7030029296875,7663,-2649,-367,25,-5,10
245925924,-0.04766845703125,0.68017578125,-0.20172119140625,0.70306396484375,7729,-2693,-354,25,-6,11
245935908,-0.05108642578125,0.68035888671875,-0.20062255859375,0.7030029296875,7811,-2753,-349,25,-7,14
245945891,-0.05462646484375,0.68060302734375,-0.19964599609375,0.7027587890625,7902,-2819,-364,25,-8,15
245955874,-0.05828857421875,0.68084716796875,-0.19873046875,0.70245361328125,8013,-2895,-387,25,-9,15
245965858,-0.06182861328125,0.68115234375,-0.19769287109375,0.70220947265625,8097,-2924,-373,25,-9,14
245975841,-0.065185546875,0.681396484375,-0.19647216796875,0.70196533203125,8149,-2960,-366,25,-8,11
245985823,-0.068115234375,0.681640625,-0.1949462890625,0.701904296875,8165,-2968,-362,25,-7,7
245995808,-0.07061767578125,0.68182373046875,-0.1929931640625,0.70196533203125,8143,-2950,-348,25,-5,2
246005788,-0.0726318359375,0.6820068359375,-0.19073486328125,0.70220947265625,8110,-2927,-346,25,-3,-2
246015760,-0.0743408203125,0.68218994140625,-0.188232421875,0.70257568359375,8074,-2907,-370,25,-2,-4
246025759,-0.07586669921875,0.68218994140625,-0.18572998046875,0.70306396484375,8012,-2886,-389,24,0,-5
246035738,-0.07745361328125,0.6820068359375,-0.183349609375,0.70367431640625,7955,-2878,-394,24,2,-4
246045713,-0.0791015625,0.681640625,-0.18121337890625,0.70440673828125,7861,-2857,-403,23,4,-1
246055701,-0.0810546875,0.68109130859375,-0.17938232421875,0.7052001953125,7781,-2865,-397,23,5,2
246065682,-0.08331298828125,0.6802978515625,-0.177978515625,0.7060546875,7669,-2856,-378,22,6,7
246075664,-0.0858154296875,0.67938232421875,-0.17694091796875,0.70684814453125,7557,-2844,-347,22,7,10
246085651,-0.088623046875,0.67840576171875,-0.17626953125,0.7076416015625,7429,-2818,-318,21,7,14
246095635,-0.09161376953125,0.67730712890625,-0.17596435546875,0.7083740234375,7313,-2798,-290,20,6,17
246105617,-0.09478759765625,0.67626953125,-0.17596435546875,0.708984375,7233,-2819,-257,19,6,20
246115598,-0.0982666015625,0.67523193359375,-0.17633056640625,0.70941162109375,7165,-2838,-226,18,4,23
246125582,-0.10186767578125,0.6741943359375,-0.177001953125,0.709716796875,7121,-2898,-211,17,3,26
246135564,-0.1055908203125,0.67333984375,-0.1778564453125,0.70977783203125,7106,-2972,-214,16,2,27
246145547,-0.1092529296875,0.67254638671875,-0.17877197265625,0.709716796875,7078,-3025,-210,16,0,26
246155536,-0.11260986328125,0.6719970703125,-0.17938232421875,0.70953369140625,7017,-3071,-201,15,-1,22
246165511,-0.11553955078125,0.67169189453125,-0.17962646484375,0.7093505859375,6990,-3120,-165,15,-3,17
246175492,-0.11798095703125,0.67156982421875,-0.179443359375,0.7091064453125,6982,-3185,-149,14,-4,11
246185475,-0.1201171875,0.671630859375,-0.178955078125,0.708740234375,6962,-3249,-107,14,-6,8
246195459,-0.1220703125,0.671875,-0.17822265625,0.7083740234375,6965,-3312,-78,14,-7,5
246205443,-0.1239013671875,0.67230224609375,-0.1773681640625,0.70794677734375,6990,-3407,-71,14,-8,4
246215429,-0.1258544921875,0.6727294921875,-0.1763916015625,0.7073974609375,7026,-3493,-45,15,-9,4
246225412,-0.12774658203125,0.67327880859375,-0.17529296875,0.70684814453125,7049,-3557,4,16,-10,3
246235396,-0.12969970703125,0.673828125,-0.174072265625,0.70623779296875,7088,-3629,30,17,-11,2
246245370,-0.1317138671875,0.67437744140625,-0.17266845703125,0.7056884765625,7166,-3685,56,18,-11,2
246255354,-0.1339111328125,0.6749267578125,-0.1712646484375,0.705078125,7252,-3739,65,19,-11,3
246265338,-0.13629150390625,0.67547607421875,-0.169921875,0.7044677734375,7328,-3770,63,20,-11,5
246275321,-0.13885498046875,0.6759033203125,-0.1685791015625,0.703857421875,7392,-3797,54,21,-11,6
246285305,-0.14154052734375,0.67626953125,-0.16729736328125,0.7032470703125,7427,-3794,30,21,-10,7
246295287,-0.14422607421875,0.6766357421875,-0.16595458984375,0.70269775390625,7439,-3786,3,21,-10,7
246305271,-0.1468505859375,0.67694091796875,-0.16455078125,0.70220947265625,7447,-3757,-7,22,-9,6
246315252,-0.1492919921875,0.67718505859375,-0.1629638671875,0.7017822265625,7442,-3719,-9,22,-8,4
246325231,-0.151611328125,0.67730712890625,-0.16131591796875,0.7015380859375,7422,-3667,12,22,-7,4
246335223,-0.15380859375,0.67742919921875,-0.15966796875,0.7012939453125,7401,-3615,42,21,-7,3
246345206,-0.1558837890625,0.67755126953125,-0.1580810546875,0.701171875,7363,-3546,66,20,-6,3
246355187,-0.157958984375,0.67755126953125,-0.1566162109375,0.70098876953125,7330,-3490,117,19,-6,4
246365177,-0.16009521484375,0.67755126953125,-0.1553955078125,0.7008056640625,7302,-3442,162,18,-6,6
246375158,-0.1622314453125,0.677490234375,-0.1544189453125,0.7005615234375,7300,-3405,231,17,-6,8
246385133,-0.1644287109375,0.6773681640625,-0.15362548828125,0.7003173828125,7292,-3387,291,16,-5,9
246395113,-0.1666259765625,0.67718505859375,-0.15301513671875,0.7000732421875,7296,-3397,341,14,-5,10
246405093,-0.16876220703125,0.67706298828125,-0.15252685546875,0.6998291015625,7293,-3401,401,13,-5,10
246415076,-0.17071533203125,0.67694091796875,-0.15203857421875,0.6995849609375,7308,-3425,478,12,-5,9
246425059,-0.17254638671875,0.6767578125,-0.15155029296875,0.69940185546875,7341,-3449,530,12,-5,8
246435045,-0.1741943359375,0.6766357421875,-0.15106201171875,0.69921875,7367,-3488,590,10,-5,7
246445025,-0.1756591796875,0.676513671875,-0.1505126953125,0.6990966796875,7381,-3545,646,10,-5,6
246455005,-0.17706298828125,0.6763916015625,-0.14996337890625,0.698974609375,7421,-3609,700,10,-5,5
246464990,-0.178466796875,0.67620849609375,-0.1494140625,0.69891357421875,7467,-3679,725,10,-4,4
246474979,-0.1798095703125,0.67608642578125,-0.14886474609375,0.6988525390625,7484,-3735,751,10,-4,4
246484955,-0.18115234375,0.67584228515625,-0.1483154296875,0.6988525390625,7492,-3768,763,10,-3,5
246494936,-0.18255615234375,0.675537109375,-0.14788818359375,0.6988525390625,7479,-3783,765,10,-3,5
246504921,-0.18402099609375,0.67523193359375,-0.14752197265625,0.6988525390625,7461,-3785,779,10,-2,7
246514900,-0.18572998046875,0.6748046875,-0.14739990234375,0.6988525390625,7461,-3791,791,9,-2,10
246524883,-0.18756103515625,0.67425537109375,-0.14752197265625,0.6988525390625,7448,-3789,805,9,-1,12
246534871,-0.1895751953125,0.67364501953125,-0.14794921875,0.69879150390625,7424,-3786,831,8,-1,15
246544853,-0.19171142578125,0.67291259765625,-0.14849853515625,0.69879150390625,7361,-3766,858,8,0,16
246554830,-0.19378662109375,0.672119140625,-0.1490478515625,0.6988525390625,7291,-3734,915,8,1,16
246564814,-0.19573974609375,0.6712646484375,-0.1495361328125,0.69903564453125,7196,-3693,987,8,2,14
246574796,-0.197509765625,0.67034912109375,-0.14984130859375,0.69940185546875,7105,-3664,1079,8,2,12
246584780,-0.1990966796875,0.66937255859375,-0.15008544921875,0.69976806640625,7012,-3660,1167,7,2,10
246594760,-0.20062255859375,0.66845703125,-0.150146484375,0.7001953125,6933,-3688,1245,8,2,9
246604750,-0.20220947265625,0.6676025390625,-0.15008544921875,0.70062255859375,6867,-3738,1308,9,1,8
246614733,-0.20391845703125,0.66680908203125,-0.14990234375,0.700927734375,6823,-3804,1337,10,0,8
246624709,-0.205810546875,0.66607666015625,-0.149658203125,0.70111083984375,6775,-3877,1353,11,-2,8
246634691,-0.20758056640625,0.66552734375,-0.1490478515625,0.70123291015625,6721,-3924,1336,13,-3,5
246644669,-0.20928955078125,0.6651611328125,-0.14794921875,0.7012939453125,6673,-3958,1325,15,-5,1
246654650,-0.210693359375,0.66497802734375,-0.146240234375,0.701416015625,6651,-3966,1309,16,-6,-4
246664631,-0.2117919921875,0.66497802734375,-0.14385986328125,0.7015380859375,6652,-3982,1262,18,-7,-9
246674616,-0.21270751953125,0.66510009765625,-0.14105224609375,0.70172119140625,6663,-4001,1204,20,-9,-13
246684595,-0.21356201171875,0.66534423828125,-0.13787841796875,0.70184326171875,6704,-3983,1128,22,-9,-15
246694582,-0.2144775390625,0.6656494140625,-0.13446044921875,0.70196533203125,6733,-3952,1058,24,-10,-15
246704564,-0.21551513671875,0.6658935546875,-0.1309814453125,0.70208740234375,6771,-3912,977,25,-10,-14
246714547,-0.2166748046875,0.6661376953125,-0.12750244140625,0.70208740234375,6794,-3851,891,26,-9,-13
246724529,-0.21795654296875,0.66632080078125,-0.12420654296875,0.7021484375,6798,-3767,820,26,-9,-11
246734511,-0.2193603515625,0.6663818359375,-0.1209716796875,0.70220947265625,6797,-3676,760,25,-8,-9
246744494,-0.2208251953125,0.66644287109375,-0.117919921875,0.70220947265625,6773,-3577,728,25,-7,-8
246754476,-0.2222900390625,0.6663818359375,-0.1151123046875,0.70233154296875,6724,-3479,711,24,-6,-7
246764459,-0.22369384765625,0.666259765625,-0.1124267578125,0.702392578125,6693,-3406,707,22,-5,-6
246774443,-0.22503662109375,0.66607666015625,-0.1099853515625,0.7025146484375,6661,-3342,718,21,-5,-5
246784429,-0.226318359375,0.66595458984375,-0.10772705078125,0.70257568359375,6643,-3307,742,19,-5,-5
246794415,-0.22760009765625,0.66583251953125,-0.105712890625,0.70257568359375,6614,-3265,785,17,-5,-3
246804397,-0.22882080078125,0.665771484375,-0.10400390625,0.7025146484375,6596,-3231,849,15,-6,-1
246814384,-0.23004150390625,0.665771484375,-0.1026611328125,0.7022705078125,6600,-3212,916,13,-7,1
246824357,-0.2313232421875,0.6658935546875,-0.10162353515625,0.701904296875,6620,-3221,999,10,-8,3
246834344,-0.23260498046875,0.6661376953125,-0.10089111328125,0.70135498046875,6678,-3235,1050,8,-10,5
246844321,-0.2337646484375,0.6666259765625,-0.10040283203125,0.7005615234375,6753,-3280,1088,6,-11,5
246854304,-0.23486328125,0.667236328125,-0.10009765625,0.69964599609375,6824,-3353,1105,4,-13,6
246864288,-0.23583984375,0.6680908203125,-0.099853515625,0.6986083984375,6916,-3429,1118,2,-14,5
246874267,-0.23663330078125,0.6690673828125,-0.0997314453125,0.6973876953125,7022,-3487,1122,1,-16,5
246884252,-0.23736572265625,0.67022705078125,-0.09967041015625,0.696044921875,7158,-3541,1130,-1,-17,6
246894236,-0.23809814453125,0.6715087890625,-0.0997314453125,0.69451904296875,7301,-3575,1134,-2,-19,7
246904218,-0.2388916015625,0.6728515625,-0.099853515625,0.69293212890625,7456,-3655,1128,-2,-19,7
246914202,-0.23956298828125,0.67425537109375,-0.0999755859375,0.69134521484375,7613,-3739,1079,-2,-19,7
246924189,-0.239990234375,0.6756591796875,-0.099853515625,0.6898193359375,7743,-3820,1026,-2,-18,3
246934175,-0.239990234375,0.67706298828125,-0.09930419921875,0.68853759765625,7853,-3878,952,-1,-17,-3
246944158,-0.23956298828125,0.6783447265625,-0.0980224609375,0.6876220703125,7893,-3899,855,1,-15,-10
246954131,-0.2386474609375,0.679443359375,-0.09619140625,0.68707275390625,7921,-3894,768,3,-12,-16
246964108,-0.23748779296875,0.68035888671875,-0.09393310546875,0.6868896484375,7907,-3872,682,4,-9,-21
246974092,-0.2362060546875,0.6810302734375,-0.09136962890625,0.68701171875,7873,-3845,607,6,-7,-22
246984073,-0.235107421875,0.681396484375,-0.0888671875,0.68731689453125,7812,-3819,572,8,-4,-21
246994059,-0.23443603515625,0.68157958984375,-0.08648681640625,0.687744140625,7741,-3789,563,9,-3,-17
247004045,-0.2342529296875,0.68145751953125,-0.08453369140625,0.6881103515625,7664,-3764,555,10,-1,-12
247014021,-0.2344970703125,0.68121337890625,-0.0828857421875,0.6884765625,7565,-3726,571,11,-1,-8
247024005,-0.23529052734375,0.680908203125,-0.08154296875,0.688720703125,7420,-3692,594,12,-1,-4
247033990,-0.2362060546875,0.6805419921875,-0.08026123046875,0.6888427734375,7292,-3639,612,13,-2,-2
247043976,-0.2373046875,0.6802978515625,-0.07904052734375,0.6888427734375,7168,-3582,628,13,-4,-1
247053967,-0.23846435546875,0.68023681640625,-0.077880859375,0.688720703125,7091,-3508,622,12,-5,0
247063938,-0.2396240234375,0.6802978515625,-0.076904296875,0.6883544921875,7060,-3477,614,11,-7,1
247073922,-0.24078369140625,0.6805419921875,-0.075927734375,0.68780517578125,7037,-3441,614,10,-8,2
247083904,-0.2418212890625,0.68096923828125,-0.07501220703125,0.6871337890625,7024,-3402,595,9,-10,2
247093888,-0.24267578125,0.6815185546875,-0.0740966796875,0.68634033203125,7046,-3397,597,7,-11,0
247103871,-0.24322509765625,0.6822509765625,-0.07305908203125,0.685546875,7065,-3395,589,6,-12,-3
247113849,-0.243408203125,0.68304443359375,-0.0718994140625,0.684814453125,7087,-3404,573,5,-12,-6
247123831,-0.24334716796875,0.6839599609375,-0.070556640625,0.68408203125,7096,-3433,548,4,-12,-9
247133814,-0.2430419921875,0.68487548828125,-0.06903076171875,0.68341064453125,7114,-3455,517,4,-13,-11
247143796,-0.24261474609375,0.68585205078125,-0.06744384765625,0.6827392578125,7105,-3478,483,4,-13,-11
247153780,-0.2423095703125,0.686767578125,-0.06591796875,0.68206787109375,7091,-3513,452,5,-12,-11
247163760,-0.24224853515625,0.6876220703125,-0.06451416015625,0.681396484375,7094,-3549,418,5,-12,-9
247173751,-0.24237060546875,0.68841552734375,-0.063232421875,0.6806640625,7072,-3571,392,6,-12,-7
247183734,-0.2427978515625,0.68914794921875,-0.06201171875,0.6798095703125,7040,-3588,361,7,-12,-4
247193710,-0.2435302734375,0.68994140625,-0.0609130859375,0.67889404296875,7015,-3586,341,8,-12,-2
247203698,-0.24456787109375,0.69061279296875,-0.05987548828125,0.67791748046875,7001,-3624,307,10,-13,0
247213675,-0.245849609375,0.69134521484375,-0.05889892578125,0.67681884765625,6963,-3670,265,11,-13,1
247223660,-0.24725341796875,0.692138671875,-0.0577392578125,0.67559814453125,6916,-3692,216,13,-15,1
247233644,-0.24871826171875,0.6929931640625,-0.05633544921875,0.67431640625,6877,-3716,174,14,-16,0
247243629,-0.25018310546875,0.69390869140625,-0.05462646484375,0.67291259765625,6866,-3713,119,16,-17,-2
247253605,-0.251708984375,0.6949462890625,-0.052734375,0.67144775390625,6851,-3704,67,17,-19,-3
247263589,-0.25323486328125,0.69610595703125,-0.05059814453125,0.66986083984375,6885,-3700,30,18,-20,-3
247273571,-0.25494384765625,0.69732666015625,-0.04840087890625,0.6680908203125,6964,-3700,22,19,-22,-2
247283553,-0.2568359375,0.69854736328125,-0.046142578125,0.66619873046875,7059,-3760,-3,20,-24,-1
247293536,-0.25885009765625,0.69989013671875,-0.04376220703125,0.6641845703125,7152,-3838,-42,21,-25,-1
247303519,-0.2608642578125,0.70123291015625,-0.04107666015625,0.662109375,7223,-3900,-105,23,-25,-4
247313500,-0.2628173828125,0.70263671875,-0.03802490234375,0.66009521484375,7262,-3926,-186,25,-26,-7
247323483,-0.2646484375,0.7039794921875,-0.034423828125,0.65814208984375,7267,-3912,-237,28,-26,-11
247333466,-0.266357421875,0.70526123046875,-0.03021240234375,0.65625,7247,-3862,-269,30,-27,-14
247343448,-0.2679443359375,0.70648193359375,-0.025634765625,0.65447998046875,7240,-3775,-289,32,-27,-16
247353426,-0.2696533203125,0.70770263671875,-0.020751953125,0.65264892578125,7257,-3676,-290,34,-27,-17
247363418,-0.271484375,0.70880126953125,-0.0157470703125,0.65081787109375,7322,-3581,-281,35,-28,-15
247373402,-0.27362060546875,0.70989990234375,-0.01092529296875,0.6488037109375,7389,-3496,-289,36,-29,-12
247383383,-0.27593994140625,0.7110595703125,-0.0062255859375,0.64666748046875,7443,-3435,-303,36,-29,-10
247393360,-0.2783203125,0.712158203125,-0.00146484375,0.6444091796875,7490,-3365,-335,36,-30,-10
247403344,-0.28057861328125,0.7132568359375,0.00341796875,0.6422119140625,7531,-3288,-362,37,-29,-12
247413327,-0.28253173828125,0.71435546875,0.00860595703125,0.64007568359375,7537,-3179,-396,36,-29,-15
247423308,-0.28424072265625,0.71539306640625,0.01416015625,0.63812255859375,7540,-3051,-439,37,-29,-19
247433291,-0.28564453125,0.71636962890625,0.01995849609375,0.63623046875,7536,-2911,-460,36,-29,-21
247443274,-0.286865234375,0.71728515625,0.02569580078125,0.6343994140625,7551,-2762,-485,35,-28,-21
247453257,-0.28802490234375,0.71820068359375,0.03131103515625,0.632568359375,7587,-2614,-528,34,-28,-19
247463236,-0.2891845703125,0.71923828125,0.03656005859375,0.630615234375,7624,-2438,-574,32,-28,-16
247473227,-0.2904052734375,0.72027587890625,0.0413818359375,0.6285400390625,7662,-2264,-618,30,-27,-12
247483208,-0.29156494140625,0.72137451171875,0.045654296875,0.62646484375,7717,-2088,-641,27,-27,-9
247493190,-0.2926025390625,0.72247314453125,0.04949951171875,0.6243896484375,7765,-1946,-667,24,-26,-7
247503181,-0.29351806640625,0.7236328125,0.05291748046875,0.62237548828125,7834,-1864,-677,20,-25,-5
247513167,-0.29425048828125,0.7247314453125,0.055908203125,0.6204833984375,7927,-1831,-696,17,-23,-4
247523139,-0.294677734375,0.72589111328125,0.05859375,0.61871337890625,8030,-1823,-737,14,-22,-4
247533116,-0.294921875,0.72698974609375,0.06097412109375,0.61700439453125,8139,-1843,-778,11,-20,-4
247543099,-0.294921875,0.72808837890625,0.06304931640625,0.61553955078125,8232,-1865,-855,9,-18,-4
247553081,-0.29473876953125,0.7291259765625,0.06494140625,0.61419677734375,8320,-1880,-921,7,-16,-5
247563062,-0.29425048828125,0.73004150390625,0.06683349609375,0.6131591796875,8367,-1882,-981,5,-14,-7
247573046,-0.29351806640625,0.7308349609375,0.06866455078125,0.6123046875,8371,-1881,-1007,4,-12,-8
247583028,-0.29266357421875,0.7315673828125,0.0704345703125,0.6116943359375,8343,-1870,-1005,3,-11,-9
247593012,-0.29168701171875,0.73211669921875,0.07208251953125,0.61126708984375,8333,-1859,-983,1,-9,-10
247602993,-0.290771484375,0.732666015625,0.0733642578125,0.6109619140625,8321,-1857,-954,-1,-8,-7
247612978,-0.2899169921875,0.733154296875,0.07421875,0.61065673828125,8310,-1862,-917,-2,-7,-4
247622956,-0.2891845703125,0.733642578125,0.0745849609375,0.6103515625,8310,-1881,-868,-4,-6,-1
247632941,-0.28857421875,0.734130859375,0.07464599609375,0.61004638671875,8303,-1887,-851,-5,-5,2
247642923,-0.28790283203125,0.734619140625,0.07440185546875,0.60980224609375,8280,-1897,-831,-6,-4,2
247652904,-0.28717041015625,0.73504638671875,0.07403564453125,0.60968017578125,8236,-1913,-809,-8,-3,2
247662884,-0.2862548828125,0.73541259765625,0.0736083984375,0.60968017578125,8192,-1923,-779,-9,-2,1
247672871,-0.28515625,0.73577880859375,0.07318115234375,0.60986328125,8156,-1936,-779,-10,-1,0
247682854,-0.2840576171875,0.736083984375,0.07257080078125,0.610107421875,8118,-1991,-773,-11,0,0
247692834,-0.2828369140625,0.736328125,0.07171630859375,0.61041259765625,8091,-2038,-769,-13,2,0
247702815,-0.2816162109375,0.73651123046875,0.07073974609375,0.61083984375,8093,-2087,-783,-13,2,1
247712798,-0.28045654296875,0.73675537109375,0.069580078125,0.61126708984375,8083,-2148,-772,-15,3,2
247722780,-0.27923583984375,0.7369384765625,0.06817626953125,0.61175537109375,8050,-2221,-788,-15,4,3
247732761,-0.27801513671875,0.73712158203125,0.06658935546875,0.61224365234375,8014,-2298,-817,-16,5,3
247742753,-0.27679443359375,0.7373046875,0.06494140625,0.61273193359375,7986,-2376,-840,-17,5,3
247752735,-0.27545166015625,0.73748779296875,0.06329345703125,0.61328125,7947,-2446,-904,-17,6,2
247762711,-0.27410888671875,0.73760986328125,0.06158447265625,0.61395263671875,7896,-2499,-933,-18,7,2
247772694,-0.27276611328125,0.73773193359375,0.059814453125,0.61456298828125,7854,-2555,-956,-18,7,2
247782676,-0.27142333984375,0.73785400390625,0.0579833984375,0.615234375,7824,-2627,-978,-18,7,2
247792660,-0.2701416015625,0.7379150390625,0.05615234375,0.6158447265625,7791,-2692,-988,-18,7,2
247802642,-0.26885986328125,0.73797607421875,0.05426025390625,0.61651611328125,7783,-2726,-992,-18,7,3
247812623,-0.2677001953125,0.738037109375,0.0523681640625,0.61712646484375,7753,-2751,-990,-17,7,4
247822608,-0.2666015625,0.73809814453125,0.05035400390625,0.61767578125,7726,-2807,-994,-17,7,4
247832590,-0.26556396484375,0.7381591796875,0.04840087890625,0.61822509765625,7700,-2865,-994,-16,7,4
247842572,-0.2645263671875,0.73822021484375,0.04656982421875,0.61871337890625,7670,-2900,-996,-16,7,3
247852553,-0.26348876953125,0.73822021484375,0.04486083984375,0.6192626953125,7637,-2934,-985,-15,7,1
247862537,-0.2623291015625,0.73822021484375,0.04339599609375,0.619873046875,7615,-2953,-976,-15,6,0
247872521,-0.26116943359375,0.73822021484375,0.0421142578125,0.6204833984375,7583,-2945,-952,-14,6,-2
247882499,-0.25994873046875,0.7381591796875,0.04107666015625,0.62109375,7578,-2930,-910,-13,6,-3
247892483,-0.25872802734375,0.7381591796875,0.04010009765625,0.6217041015625,7572,-2934,-879,-13,5,-3
247902466,-0.25762939453125,0.73809814453125,0.0391845703125,0.62225341796875,7578,-2960,-843,-11,5,-3
247912448,-0.25665283203125,0.73809814453125,0.038330078125,0.62274169921875,7581,-3001,-823,-11,4,-3
247922429,-0.25579833984375,0.73809814453125,0.03759765625,0.62310791015625,7580,-3036,-811,-9,3,-3
247932420,-0.25506591796875,0.73809814453125,0.0369873046875,0.62347412109375,7578,-3045,-812,-8,3,-3
