subject,Joshua Spiesman
arm,right
label,3
hz,100.17214988993906
time,5.061287

timestamp_us,q0,q1,q2,q3,ax,ay,az,gx,gy,gz
190152733,0.64678955078125,0.13677978515625,-0.74725341796875,-0.06781005859375,8103,2260,-1455,0,2,4
190162703,0.6470947265625,0.1361083984375,-0.74713134765625,-0.06719970703125,8112,2238,-1421,-1,2,7
190172684,0.6474609375,0.1351318359375,-0.74713134765625,-0.0662841796875,8119,2201,-1391,-1,2,10
190182666,0.64788818359375,0.13397216796875,-0.74700927734375,-0.06524658203125,8149,2172,-1361,-1,3,12
190192648,0.64837646484375,0.132568359375,-0.7469482421875,-0.06402587890625,8225,2124,-1318,-1,3,14
190202635,0.64898681640625,0.131103515625,-0.74676513671875,-0.06268310546875,8301,2069,-1260,-1,4,14
190212615,0.649658203125,0.1295166015625,-0.74658203125,-0.061279296875,8389,2015,-1210,-1,5,15
190222597,0.65045166015625,0.127685546875,-0.746337890625,-0.05963134765625,8495,1934,-1155,-1,5,18
190232581,0.6513671875,0.12548828125,-0.74609375,-0.0576171875,8608,1854,-1095,-1,6,23
190242562,0.65234375,0.1226806640625,-0.74591064453125,-0.05499267578125,8720,1748,-1031,-1,7,30
190252551,0.65350341796875,0.119140625,-0.74566650390625,-0.05169677734375,8819,1621,-943,0,7,38
190262531,0.65478515625,0.11480712890625,-0.74554443359375,-0.047607421875,8913,1479,-853,0,8,47
190272514,0.65618896484375,0.109619140625,-0.74542236328125,-0.0426025390625,8998,1303,-759,1,9,57
190282497,0.65765380859375,0.1036376953125,-0.7452392578125,-0.0367431640625,9099,1112,-677,2,10,65
190292481,0.65924072265625,0.09698486328125,-0.74505615234375,-0.03009033203125,9195,913,-615,3,11,73
190302466,0.66082763671875,0.08984375,-0.74481201171875,-0.022705078125,9270,709,-569,5,12,80
190312449,0.66241455078125,0.08221435546875,-0.74444580078125,-0.0146484375,9364,499,-541,6,13,86
190322437,0.66400146484375,0.07421875,-0.7440185546875,-0.0059814453125,9453,274,-517,8,14,91
190332421,0.66552734375,0.0660400390625,-0.74346923828125,0.00323486328125,9560,43,-496,10,15,95
190342403,0.6669921875,0.05767822265625,-0.74273681640625,0.01287841796875,9699,-213,-465,12,15,97
190352379,0.6683349609375,0.0494384765625,-0.74188232421875,0.02288818359375,9828,-499,-411,15,15,98
190362362,0.6695556640625,0.04119873046875,-0.74090576171875,0.03314208984375,9921,-771,-361,17,15,99
190372350,0.67059326171875,0.0330810546875,-0.73980712890625,0.043701171875,9962,-1045,-317,19,14,101
190382329,0.6715087890625,0.02490234375,-0.73858642578125,0.0545654296875,9968,-1288,-276,21,14,103
190392314,0.67218017578125,0.0167236328125,-0.73724365234375,0.06585693359375,9964,-1508,-243,23,14,105
190402296,0.67266845703125,0.00848388671875,-0.73583984375,0.07733154296875,9962,-1699,-233,24,13,108
190412278,0.67291259765625,0.000244140625,-0.734375,0.089111328125,9990,-1884,-256,26,13,109
190422262,0.67291259765625,-0.0078125,-0.7327880859375,0.10089111328125,10030,-2075,-299,27,13,109
190432241,0.6728515625,-0.015625,-0.73101806640625,0.11260986328125,10079,-2242,-327,28,13,107
190442234,0.672607421875,-0.02313232421875,-0.7291259765625,0.12408447265625,10117,-2371,-369,28,13,105
190452219,0.67236328125,-0.03045654296875,-0.72711181640625,0.13531494140625,10149,-2454,-415,28,14,104
190462206,0.67205810546875,-0.0377197265625,-0.72491455078125,0.14630126953125,10186,-2531,-491,28,15,104
190472192,0.67169189453125,-0.04498291015625,-0.72259521484375,0.1572265625,10219,-2608,-566,27,16,105
190482174,0.6712646484375,-0.0523681640625,-0.72003173828125,0.16802978515625,10246,-2681,-644,26,18,106
190492156,0.6707763671875,-0.05999755859375,-0.71728515625,0.17877197265625,10243,-2769,-682,25,20,108
190502127,0.6702880859375,-0.06781005859375,-0.71429443359375,0.18939208984375,10209,-2871,-712,24,21,109
190512110,0.66986083984375,-0.0755615234375,-0.7110595703125,0.19989013671875,10181,-2997,-734,23,23,107
190522092,0.66949462890625,-0.08319091796875,-0.7076416015625,0.2099609375,10191,-3154,-751,22,25,105
190532076,0.6693115234375,-0.09063720703125,-0.7039794921875,0.2196044921875,10194,-3318,-769,22,27,101
190542059,0.66925048828125,-0.097900390625,-0.70013427734375,0.22882080078125,10203,-3459,-772,21,30,99
190552042,0.66925048828125,-0.10540771484375,-0.69598388671875,0.23785400390625,10180,-3617,-761,19,32,100
190562026,0.6693115234375,-0.1131591796875,-0.69158935546875,0.246826171875,10105,-3787,-736,18,35,103
190572008,0.66925048828125,-0.1214599609375,-0.68682861328125,0.256103515625,9996,-3945,-676,17,37,108
190581995,0.66912841796875,-0.13037109375,-0.68170166015625,0.26568603515625,9855,-4097,-599,17,39,114
190591979,0.66876220703125,-0.13983154296875,-0.67620849609375,0.27557373046875,9676,-4253,-530,16,41,120
190601956,0.66815185546875,-0.1497802734375,-0.67041015625,0.28570556640625,9485,-4412,-455,15,42,124
190611939,0.66741943359375,-0.15997314453125,-0.66436767578125,0.2960205078125,9253,-4591,-401,15,43,126
190621921,0.6663818359375,-0.17034912109375,-0.6580810546875,0.3062744140625,8965,-4747,-345,14,43,128
190631906,0.66522216796875,-0.180908203125,-0.65155029296875,0.316650390625,8659,-4906,-260,14,44,130
190641895,0.663818359375,-0.1915283203125,-0.644775390625,0.3270263671875,8389,-5044,-171,14,44,131
190651878,0.662109375,-0.20220947265625,-0.6378173828125,0.33746337890625,8114,-5209,-78,14,43,133
190661860,0.66021728515625,-0.21270751953125,-0.63079833984375,0.34771728515625,7899,-5385,20,14,42,131
190671844,0.65826416015625,-0.222900390625,-0.62371826171875,0.357666015625,7715,-5561,100,14,42,127
190681826,0.65631103515625,-0.23248291015625,-0.6168212890625,0.36700439453125,7545,-5713,168,14,40,122
190691809,0.6544189453125,-0.24163818359375,-0.6099853515625,0.3758544921875,7365,-5868,242,14,40,117
190701793,0.65228271484375,-0.2506103515625,-0.60321044921875,0.38446044921875,7122,-5992,301,13,38,116
190711772,0.64984130859375,-0.2596435546875,-0.5963134765625,0.393310546875,6836,-6095,376,13,36,120
190721764,0.646728515625,-0.2691650390625,-0.589111328125,0.40283203125,6571,-6195,468,14,35,129
190731748,0.64288330078125,-0.27911376953125,-0.58160400390625,0.4129638671875,6372,-6339,539,14,33,138
190741724,0.6385498046875,-0.2891845703125,-0.5738525390625,0.4234619140625,6280,-6532,601,14,32,142
190751708,0.63397216796875,-0.29913330078125,-0.56610107421875,0.4337158203125,6240,-6707,626,14,32,141
190761688,0.62939453125,-0.30865478515625,-0.55841064453125,0.44354248046875,6224,-6898,640,14,31,138
190771671,0.62481689453125,-0.31793212890625,-0.55078125,0.4530029296875,6163,-7113,640,15,31,135
190781654,0.6201171875,-0.3270263671875,-0.54296875,0.4622802734375,6046,-7304,647,15,31,135
190791637,0.6151123046875,-0.33624267578125,-0.534912109375,0.47161865234375,5887,-7484,685,15,32,139
190801619,0.609619140625,-0.345703125,-0.5263671875,0.4814453125,5712,-7649,715,16,31,146
190811604,0.60357666015625,-0.35540771484375,-0.517333984375,0.49163818359375,5495,-7808,750,17,31,153
190821586,0.59686279296875,-0.3653564453125,-0.50775146484375,0.50244140625,5238,-7941,803,19,31,161
190831570,0.589599609375,-0.37548828125,-0.49755859375,0.51361083984375,4956,-8040,828,21,30,167
190841552,0.581787109375,-0.38568115234375,-0.48687744140625,0.52508544921875,4635,-8099,852,22,29,173
190851536,0.57330322265625,-0.39593505859375,-0.47564697265625,0.53692626953125,4285,-8117,880,23,28,179
190861518,0.56414794921875,-0.4061279296875,-0.4639892578125,0.549072265625,3876,-8079,909,25,26,184
190871500,0.5543212890625,-0.416259765625,-0.45172119140625,0.5616455078125,3437,-8012,979,26,24,190
190881483,0.54376220703125,-0.42620849609375,-0.43902587890625,0.57440185546875,3038,-7955,1016,28,22,194
190891466,0.53289794921875,-0.43572998046875,-0.4261474609375,0.5870361328125,2755,-7947,1045,29,20,195
190901450,0.5218505859375,-0.44464111328125,-0.41339111328125,0.5992431640625,2560,-7956,1045,29,18,192
190911436,0.510986328125,-0.45281982421875,-0.40081787109375,0.61083984375,2396,-7913,1065,30,17,186
190921422,0.500244140625,-0.46051025390625,-0.38836669921875,0.62200927734375,2214,-7793,1092,30,16,183
190931402,0.489501953125,-0.46771240234375,-0.3759765625,0.6326904296875,2025,-7664,1111,31,15,179
190941381,0.4786376953125,-0.47454833984375,-0.36346435546875,0.64306640625,1779,-7412,1111,31,14,178
190951362,0.46734619140625,-0.4813232421875,-0.3507080078125,0.65338134765625,1479,-7095,1111,30,14,181
190961350,0.4552001953125,-0.4881591796875,-0.33734130859375,0.663818359375,1147,-6745,1115,30,13,188
190971328,0.4420166015625,-0.4949951171875,-0.3231201171875,0.6746826171875,785,-6319,1159,31,11,198
190981312,0.42755126953125,-0.5018310546875,-0.3079833984375,0.6859130859375,394,-5890,1192,31,9,209
190991296,0.41180419921875,-0.5086669921875,-0.29180908203125,0.69744873046875,9,-5410,1219,32,8,219
191001278,0.39495849609375,-0.5152587890625,-0.27490234375,0.70916748046875,-330,-4913,1265,32,6,228
191011261,0.3773193359375,-0.52142333984375,-0.25732421875,0.72076416015625,-587,-4408,1298,33,4,232
191021240,0.3590087890625,-0.527099609375,-0.2393798828125,0.7320556640625,-820,-3872,1326,33,2,234
191031226,0.34033203125,-0.53216552734375,-0.22125244140625,0.74298095703125,-1047,-3328,1363,33,1,232
191041213,0.32159423828125,-0.53662109375,-0.20318603515625,0.753173828125,-1291,-2830,1395,32,-1,227
191051189,0.30328369140625,-0.54034423828125,-0.1854248046875,0.7626953125,-1491,-2316,1452,32,-2,218
191061180,0.28564453125,-0.5433349609375,-0.1683349609375,0.77130126953125,-1666,-1807,1505,31,-3,206
191071162,0.26904296875,-0.545654296875,-0.15203857421875,0.7789306640625,-1821,-1305,1576,30,-3,190
191081141,0.25372314453125,-0.54736328125,-0.13677978515625,0.78564453125,-1969,-792,1615,29,-3,173
191091117,0.23980712890625,-0.54864501953125,-0.12274169921875,0.79150390625,-2105,-334,1644,27,-3,155
191101098,0.2274169921875,-0.5494384765625,-0.10986328125,0.79644775390625,-2256,130,1688,25,-2,136
191111081,0.21649169921875,-0.550048828125,-0.09814453125,0.80059814453125,-2434,564,1727,24,-2,118
191121070,0.20697021484375,-0.55047607421875,-0.08770751953125,0.80401611328125,-2614,952,1777,21,0,101
191131051,0.19879150390625,-0.55084228515625,-0.078369140625,0.8067626953125,-2801,1308,1838,19,2,85
191141031,0.19189453125,-0.5511474609375,-0.070068359375,0.8089599609375,-2991,1616,1918,17,3,71
191151014,0.18597412109375,-0.55145263671875,-0.06268310546875,0.81072998046875,-3207,1906,2010,15,4,59
191160998,0.18072509765625,-0.5518798828125,-0.0560302734375,0.81219482421875,-3486,2164,2104,13,5,52
191170985,0.1756591796875,-0.55230712890625,-0.0496826171875,0.81341552734375,-3836,2446,2217,11,6,47
191180963,0.17059326171875,-0.55279541015625,-0.04364013671875,0.814453125,-4253,2735,2337,8,6,45
191190944,0.1654052734375,-0.55340576171875,-0.03778076171875,0.8154296875,-4713,3064,2450,6,6,43
191200930,0.16015625,-0.553955078125,-0.0321044921875,0.81634521484375,-5203,3398,2555,4,5,41
191210916,0.1549072265625,-0.55438232421875,-0.0267333984375,0.8172607421875,-5741,3731,2687,2,4,38
191220894,0.1497802734375,-0.55462646484375,-0.02166748046875,0.81817626953125,-6345,4050,2830,-1,1,34
191230870,0.14483642578125,-0.5546875,-0.01702880859375,0.81915283203125,-6996,4347,2974,-2,-2,29
191240850,0.14019775390625,-0.55438232421875,-0.01300048828125,0.82025146484375,-7581,4562,3097,-5,-6,25
191250833,0.13580322265625,-0.5535888671875,-0.00958251953125,0.82159423828125,-8041,4709,3175,-7,-11,20
191260816,0.1317138671875,-0.5523681640625,-0.00677490234375,0.8231201171875,-8337,4793,3210,-9,-16,16
191270798,0.12823486328125,-0.5506591796875,-0.0048828125,0.82476806640625,-8488,4780,3192,-11,-21,9
191280784,0.12548828125,-0.54852294921875,-0.00396728515625,0.82659912109375,-8519,4722,3147,-14,-26,-1
191290764,0.12396240234375,-0.5460205078125,-0.00421142578125,0.8284912109375,-8454,4634,3089,-16,-30,-13
191300746,0.12384033203125,-0.54315185546875,-0.00592041015625,0.83038330078125,-8303,4503,3021,-18,-34,-29
191310724,0.1256103515625,-0.53997802734375,-0.00921630859375,0.83221435546875,-8056,4346,2929,-20,-37,-49
191320707,0.12945556640625,-0.5364990234375,-0.0142822265625,0.83380126953125,-7720,4157,2809,-23,-40,-71
191330690,0.13555908203125,-0.53271484375,-0.021240234375,0.8350830078125,-7323,3937,2666,-24,-42,-94
191340672,0.143798828125,-0.52850341796875,-0.02984619140625,0.83612060546875,-6894,3701,2509,-26,-45,-115
191350656,0.154052734375,-0.52386474609375,-0.0400390625,0.8367919921875,-6414,3431,2371,-27,-48,-134
191360642,0.166015625,-0.5186767578125,-0.0516357421875,0.83709716796875,-5908,3151,2247,-28,-51,-151
191370623,0.1795654296875,-0.512939453125,-0.06439208984375,0.83697509765625,-5380,2838,2127,-29,-53,-166
191380607,0.194580078125,-0.506591796875,-0.07818603515625,0.83624267578125,-4832,2511,2012,-28,-55,-180
191390590,0.2109375,-0.49969482421875,-0.093017578125,0.8349609375,-4237,2146,1887,-28,-56,-192
191400572,0.22845458984375,-0.4921875,-0.108642578125,0.8328857421875,-3591,1736,1790,-29,-57,-203
191410559,0.24713134765625,-0.48419189453125,-0.1251220703125,0.8299560546875,-2932,1289,1698,-28,-56,-213
191420542,0.26666259765625,-0.4755859375,-0.14227294921875,0.8260498046875,-2245,782,1660,-29,-55,-222
191430524,0.2872314453125,-0.46649169921875,-0.1602783203125,0.82110595703125,-1517,235,1643,-29,-53,-232
191440508,0.30902099609375,-0.45684814453125,-0.1790771484375,0.81463623046875,-748,-356,1633,-30,-50,-245
191450489,0.332275390625,-0.4466552734375,-0.19903564453125,0.8065185546875,113,-1010,1596,-32,-45,-260
191460473,0.35723876953125,-0.43597412109375,-0.22015380859375,0.796142578125,992,-1692,1525,-34,-40,-279
191470456,0.38336181640625,-0.4246826171875,-0.2420654296875,0.78363037109375,1797,-2403,1520,-36,-35,-292
191480436,0.40997314453125,-0.41290283203125,-0.264404296875,0.76910400390625,2507,-3146,1619,-39,-30,-300
191490431,0.436279296875,-0.4007568359375,-0.28680419921875,0.75286865234375,3207,-3866,1764,-42,-27,-301
191500411,0.4615478515625,-0.38836669921875,-0.308837890625,0.7353515625,3853,-4502,1903,-46,-24,-295
191510395,0.4853515625,-0.376220703125,-0.33038330078125,0.71673583984375,4421,-5054,1957,-51,-22,-286
191520372,0.50726318359375,-0.364501953125,-0.351318359375,0.6973876953125,4955,-5546,1929,-56,-20,-274
191530354,0.52716064453125,-0.353271484375,-0.37158203125,0.67767333984375,5405,-6039,1892,-61,-19,-260
191540337,0.544677734375,-0.34283447265625,-0.39080810546875,0.65802001953125,5665,-6442,1846,-64,-19,-241
191550321,0.55950927734375,-0.33355712890625,-0.40875244140625,0.63922119140625,5647,-6689,1817,-68,-20,-217
191560305,0.57122802734375,-0.3258056640625,-0.42498779296875,0.62200927734375,5448,-6837,1794,-70,-22,-187
191570293,0.57989501953125,-0.319580078125,-0.43988037109375,0.606689453125,5195,-6887,1771,-72,-25,-156
191580270,0.5858154296875,-0.3148193359375,-0.45355224609375,0.59326171875,4925,-6873,1723,-75,-28,-129
191590256,0.58978271484375,-0.31109619140625,-0.46661376953125,0.5810546875,4711,-6850,1607,-77,-30,-113
191600242,0.5927734375,-0.3077392578125,-0.47943115234375,0.5692138671875,4515,-6810,1475,-77,-32,-107
191610224,0.595458984375,-0.30426025390625,-0.49212646484375,0.55731201171875,4263,-6740,1348,-78,-34,-111
191620208,0.5982666015625,-0.30023193359375,-0.50482177734375,0.54510498046875,4014,-6634,1248,-76,-37,-117
191630187,0.601318359375,-0.29522705078125,-0.5177001953125,0.5322265625,3905,-6524,1145,-74,-39,-127
191640180,0.60498046875,-0.28887939453125,-0.5308837890625,0.51837158203125,4074,-6461,1038,-72,-42,-141
191650164,0.60943603515625,-0.28082275390625,-0.544677734375,0.50299072265625,4518,-6407,855,-71,-43,-160
191660139,0.61505126953125,-0.270751953125,-0.55914306640625,0.48553466796875,5174,-6310,609,-70,-43,-183
191670115,0.621826171875,-0.258544921875,-0.57415771484375,0.465576171875,5921,-6203,349,-69,-42,-209
191680098,0.62957763671875,-0.244384765625,-0.58929443359375,0.44342041015625,6681,-6081,89,-68,-40,-230
191690082,0.6376953125,-0.228759765625,-0.6041259765625,0.41961669921875,7502,-5986,-154,-65,-38,-244
191700064,0.64569091796875,-0.21209716796875,-0.6182861328125,0.394775390625,8488,-5971,-404,-64,-36,-250
191710051,0.6533203125,-0.19482421875,-0.63165283203125,0.36907958984375,9542,-5948,-653,-62,-34,-253
191720030,0.66033935546875,-0.1773681640625,-0.64404296875,0.34307861328125,10472,-5832,-912,-61,-31,-251
191730012,0.66650390625,-0.1602783203125,-0.65533447265625,0.31719970703125,11156,-5592,-1138,-61,-29,-243
191739996,0.67156982421875,-0.1441650390625,-0.6654052734375,0.2923583984375,11634,-5328,-1301,-60,-27,-228
191749984,0.67547607421875,-0.12957763671875,-0.67425537109375,0.2689208984375,11939,-5078,-1442,-59,-26,-211
191759960,0.67828369140625,-0.1165771484375,-0.68206787109375,0.2471923828125,12229,-4848,-1547,-58,-25,-190
191769944,0.68023681640625,-0.10498046875,-0.68902587890625,0.22705078125,12605,-4699,-1612,-56,-24,-173
191779926,0.6815185546875,-0.09454345703125,-0.69512939453125,0.2081298828125,13057,-4645,-1676,-55,-22,-161
191789908,0.6824951171875,-0.0848388671875,-0.70062255859375,0.1900634765625,13434,-4636,-1741,-55,-21,-155
191799892,0.68316650390625,-0.07562255859375,-0.70556640625,0.17254638671875,13623,-4615,-1775,-54,-19,-150
191809878,0.68365478515625,-0.067138671875,-0.7098388671875,0.1558837890625,13521,-4574,-1745,-53,-17,-143
191819858,0.68377685546875,-0.0596923828125,-0.71356201171875,0.14044189453125,13203,-4542,-1642,-52,-17,-130
191829839,0.68359375,-0.0538330078125,-0.71673583984375,0.126953125,12764,-4539,-1474,-49,-17,-111
191839823,0.6829833984375,-0.04974365234375,-0.719482421875,0.115478515625,12310,-4602,-1273,-47,-17,-91
191849806,0.68218994140625,-0.04718017578125,-0.721923828125,0.10601806640625,11898,-4741,-1038,-44,-17,-74
191859789,0.68121337890625,-0.0457763671875,-0.7239990234375,0.09814453125,11499,-4956,-774,-41,-17,-62
191869768,0.6802978515625,-0.04486083984375,-0.72589111328125,0.09124755859375,11112,-5224,-490,-39,-17,-57
191879760,0.679443359375,-0.0439453125,-0.7274169921875,0.0849609375,10768,-5542,-192,-36,-16,-58
191889743,0.6788330078125,-0.042724609375,-0.72882080078125,0.07891845703125,10544,-5970,113,-32,-16,-62
191899720,0.67840576171875,-0.0408935546875,-0.72991943359375,0.07281494140625,10456,-6446,398,-29,-15,-69
191909704,0.67816162109375,-0.038330078125,-0.73089599609375,0.06658935546875,10465,-6942,671,-26,-14,-77
191919686,0.67803955078125,-0.03521728515625,-0.731689453125,0.0604248046875,10556,-7429,932,-23,-14,-82
191929669,0.6781005859375,-0.03179931640625,-0.73223876953125,0.05462646484375,10700,-7884,1150,-19,-13,-83
191939652,0.67816162109375,-0.02838134765625,-0.732666015625,0.0494384765625,10873,-8227,1337,-15,-13,-79
191949635,0.67828369140625,-0.0252685546875,-0.73297119140625,0.0452880859375,11063,-8443,1467,-11,-12,-70
191959618,0.67852783203125,-0.02301025390625,-0.73297119140625,0.04248046875,11296,-8548,1557,-7,-10,-56
191969599,0.67877197265625,-0.02203369140625,-0.73284912109375,0.0413818359375,11551,-8551,1561,-4,-8,-37
191979580,0.6790771484375,-0.02264404296875,-0.7325439453125,0.042236328125,11793,-8478,1486,-1,-5,-15
191989571,0.6793212890625,-0.025146484375,-0.73199462890625,0.04522705078125,11986,-8325,1371,1,-3,11
191999544,0.6795654296875,-0.02984619140625,-0.73126220703125,0.05047607421875,12135,-8132,1225,3,-1,39
192009535,0.6798095703125,-0.03656005859375,-0.73016357421875,0.05792236328125,12291,-7914,1057,5,2,65
192019515,0.679931640625,-0.04498291015625,-0.728759765625,0.067138671875,12413,-7689,877,7,5,86
192029496,0.6800537109375,-0.054443359375,-0.72698974609375,0.07763671875,12485,-7450,728,9,7,101
192039480,0.67999267578125,-0.06475830078125,-0.72491455078125,0.089111328125,12509,-7212,584,11,9,112
192049460,0.67987060546875,-0.07550048828125,-0.72235107421875,0.1011962890625,12504,-6958,415,12,12,121
192059449,0.6795654296875,-0.08673095703125,-0.719482421875,0.11376953125,12450,-6712,250,12,14,130
192069434,0.6790771484375,-0.0985107421875,-0.71624755859375,0.12689208984375,12360,-6495,96,13,16,139
192079417,0.67840576171875,-0.1107177734375,-0.71258544921875,0.1405029296875,12258,-6332,-24,14,17,146
192089401,0.67755126953125,-0.1231689453125,-0.70849609375,0.15423583984375,12153,-6198,-123,14,19,150
192099377,0.67645263671875,-0.135498046875,-0.70416259765625,0.16790771484375,12045,-6075,-202,15,20,150
192109360,0.67535400390625,-0.14739990234375,-0.6995849609375,0.1810302734375,11966,-5950,-258,14,21,147
192119343,0.67413330078125,-0.15887451171875,-0.69482421875,0.19354248046875,11889,-5852,-324,14,22,144
192129326,0.67279052734375,-0.17034912109375,-0.68994140625,0.2059326171875,11789,-5787,-394,13,22,146
192139308,0.6710205078125,-0.1820068359375,-0.68475341796875,0.2183837890625,11662,-5759,-437,13,22,151
192149293,0.66888427734375,-0.19415283203125,-0.67926025390625,0.2313232421875,11500,-5755,-445,13,22,159
192161995,0.6661376953125,-0.20697021484375,-0.67333984375,0.244873046875,11323,-5777,-449,13,21,169
192169258,0.662841796875,-0.22027587890625,-0.6671142578125,0.2589111328125,11138,-5806,-445,12,20,176
192179238,0.65911865234375,-0.23388671875,-0.66046142578125,0.27325439453125,10949,-5856,-443,13,20,182
192189227,0.6549072265625,-0.2474365234375,-0.653564453125,0.2874755859375,10774,-5948,-459,12,19,183
192199212,0.65045166015625,-0.2607421875,-0.64654541015625,0.30145263671875,10580,-6070,-474,13,19,181
192209191,0.645751953125,-0.2738037109375,-0.63922119140625,0.31524658203125,10383,-6203,-485,13,19,181
192219183,0.6407470703125,-0.28662109375,-0.6317138671875,0.32891845703125,10174,-6339,-497,14,18,182
192229167,0.635498046875,-0.29925537109375,-0.6239013671875,0.34259033203125,9934,-6459,-480,16,18,183
192239142,0.6298828125,-0.31170654296875,-0.61566162109375,0.35638427734375,9659,-6545,-470,18,17,185
192249120,0.62408447265625,-0.323974609375,-0.60699462890625,0.3702392578125,9383,-6631,-469,20,18,187
192259104,0.61810302734375,-0.3360595703125,-0.5980224609375,0.38397216796875,9136,-6728,-493,21,19,187
192269087,0.612060546875,-0.34771728515625,-0.5887451171875,0.39739990234375,8899,-6802,-512,23,20,185
192279070,0.60595703125,-0.35894775390625,-0.5791015625,0.41058349609375,8670,-6868,-515,25,21,184
192289052,0.59979248046875,-0.3699951171875,-0.569091796875,0.4237060546875,8426,-6916,-510,27,22,186
192299036,0.59332275390625,-0.380859375,-0.55853271484375,0.4368896484375,8200,-6992,-503,29,23,188
192309018,0.586669921875,-0.3916015625,-0.547607421875,0.45001220703125,7977,-7035,-498,31,23,190
192319001,0.5799560546875,-0.40203857421875,-0.5362548828125,0.46307373046875,7740,-7047,-480,33,24,190
192328990,0.57318115234375,-0.4122314453125,-0.52447509765625,0.47589111328125,7507,-7046,-492,35,26,190
192338976,0.5665283203125,-0.42193603515625,-0.51239013671875,0.48834228515625,7277,-7043,-509,37,28,186
192348953,0.5599365234375,-0.43133544921875,-0.5001220703125,0.50030517578125,6979,-6990,-511,38,29,183
192358937,0.55328369140625,-0.4405517578125,-0.48748779296875,0.511962890625,6603,-6887,-500,39,30,183
192368921,0.546142578125,-0.44989013671875,-0.47430419921875,0.52374267578125,6152,-6756,-470,39,30,188
192378903,0.538330078125,-0.45941162109375,-0.46038818359375,0.535888671875,5662,-6624,-411,40,30,195
192388884,0.52960205078125,-0.4691162109375,-0.445556640625,0.54852294921875,5180,-6478,-367,42,29,204
192398868,0.52020263671875,-0.47869873046875,-0.43011474609375,0.56146240234375,4731,-6358,-317,43,28,209
192408851,0.5103759765625,-0.48797607421875,-0.41436767578125,0.57415771484375,4342,-6194,-300,44,27,209
192418833,0.50042724609375,-0.4967041015625,-0.3985595703125,0.58648681640625,3971,-5977,-291,44,26,205
192428816,0.4903564453125,-0.5050048828125,-0.38275146484375,0.59832763671875,3561,-5718,-255,44,25,202
192438798,0.47998046875,-0.51300048828125,-0.36688232421875,0.60980224609375,3140,-5470,-195,43,23,201
192448784,0.46905517578125,-0.52069091796875,-0.35076904296875,0.62115478515625,2711,-5199,-117,41,22,202
192458771,0.45733642578125,-0.52825927734375,-0.334228515625,0.63250732421875,2224,-4914,-19,40,20,207
192468753,0.44464111328125,-0.5357666015625,-0.317138671875,0.64398193359375,1732,-4601,98,38,18,213
192478736,0.4310302734375,-0.54296875,-0.29962158203125,0.6553955078125,1242,-4275,200,37,16,216
192488713,0.41680908203125,-0.54986572265625,-0.281982421875,0.6666259765625,797,-3926,280,35,15,215
192498695,0.402587890625,-0.5562744140625,-0.2645263671875,0.6771240234375,422,-3599,372,33,14,209
192508679,0.38848876953125,-0.56201171875,-0.2476806640625,0.6868896484375,112,-3283,479,31,13,201
192518661,0.374755859375,-0.5672607421875,-0.2314453125,0.69586181640625,-199,-2955,577,28,12,191
192528643,0.36126708984375,-0.57183837890625,-0.2154541015625,0.70428466796875,-513,-2431,771,27,12,183
192538627,0.3480224609375,-0.57623291015625,-0.2000732421875,0.7119140625,-869,-2130,835,25,12,177
192548610,0.33465576171875,-0.58038330078125,-0.1849365234375,0.718994140625,-1236,-1808,885,23,12,174
192558592,0.3209228515625,-0.58428955078125,-0.1697998046875,0.72576904296875,-1631,-1446,951,20,12,172
192568576,0.306884765625,-0.588134765625,-0.15478515625,0.73211669921875,-2042,-1059,1002,17,12,171
192578558,0.29229736328125,-0.591796875,-0.1397705078125,0.73809814453125,-2466,-666,1061,14,12,170
192588542,0.2774658203125,-0.59527587890625,-0.12493896484375,0.74365234375,-2888,-258,1144,11,12,169
192598523,0.26239013671875,-0.59844970703125,-0.1103515625,0.74884033203125,-3317,128,1248,9,12,165
192608507,0.24737548828125,-0.601318359375,-0.09613037109375,0.753662109375,-3762,509,1347,7,11,160
192618491,0.232666015625,-0.603759765625,-0.08245849609375,0.7579345703125,-4226,873,1446,5,9,153
192628474,0.21832275390625,-0.60589599609375,-0.06939697265625,0.7618408203125,-4680,1255,1538,3,9,144
192638455,0.20458984375,-0.6075439453125,-0.05706787109375,0.76531982421875,-5111,1653,1645,2,7,134
192648435,0.19171142578125,-0.60882568359375,-0.04571533203125,0.7684326171875,-5519,2048,1760,0,5,121
192658429,0.17962646484375,-0.609619140625,-0.03546142578125,0.771240234375,-5911,2436,1881,-2,3,108
192668406,0.1685791015625,-0.610107421875,-0.02630615234375,0.77374267578125,-6259,2811,2004,-4,1,95
192678389,0.1585693359375,-0.610107421875,-0.0181884765625,0.77606201171875,-6610,3173,2142,-6,-2,82
192688363,0.14947509765625,-0.6097412109375,-0.01116943359375,0.77825927734375,-6929,3522,2257,-7,-5,70
192698350,0.14129638671875,-0.609130859375,-0.005126953125,0.7803955078125,-7200,3850,2319,-9,-7,58
192708330,0.13409423828125,-0.60821533203125,-6.103515625e-05,0.7823486328125,-7418,4164,2359,-10,-10,47
192718310,0.1278076171875,-0.60711669921875,0.00408935546875,0.78424072265625,-7588,4462,2370,-11,-12,36
192728294,0.12237548828125,-0.6058349609375,0.00732421875,0.78607177734375,-7743,4704,2382,-13,-14,26
192738276,0.1177978515625,-0.60443115234375,0.00958251953125,0.787841796875,-7869,4863,2400,-15,-16,16
192748259,0.11395263671875,-0.602783203125,0.010986328125,0.78961181640625,-7971,4959,2413,-16,-18,7
192758237,0.111083984375,-0.60101318359375,0.011474609375,0.7913818359375,-7996,4965,2404,-17,-20,-4
192768224,0.109375,-0.59918212890625,0.01068115234375,0.79302978515625,-7923,4910,2364,-19,-21,-17
192778207,0.10931396484375,-0.59735107421875,0.008544921875,0.79443359375,-7755,4800,2293,-20,-22,-34
192788188,0.111083984375,-0.59552001953125,0.0047607421875,0.79559326171875,-7527,4641,2202,-21,-22,-54
192798179,0.114990234375,-0.59375,-0.00079345703125,0.79638671875,-7275,4441,2107,-22,-22,-76
192808162,0.12091064453125,-0.59197998046875,-0.00811767578125,0.7967529296875,-7003,4204,2005,-23,-22,-97
192818139,0.1287841796875,-0.590087890625,-0.01702880859375,0.79681396484375,-6704,3935,1935,-24,-22,-116
192828117,0.13848876953125,-0.5880126953125,-0.0274658203125,0.79638671875,-6374,3625,1866,-24,-22,-134
192838101,0.1497802734375,-0.5858154296875,-0.03924560546875,0.79547119140625,-6013,3312,1759,-25,-22,-151
192848085,0.16259765625,-0.58349609375,-0.05218505859375,0.7939453125,-5609,2981,1649,-25,-21,-165
192858067,0.1767578125,-0.5809326171875,-0.066162109375,0.791748046875,-5232,2675,1534,-25,-19,-179
192868051,0.192138671875,-0.578125,-0.0810546875,0.788818359375,-4873,2372,1413,-25,-19,-191
192878033,0.20849609375,-0.57501220703125,-0.09674072265625,0.78515625,-4486,2051,1300,-25,-18,-201
192888015,0.2255859375,-0.57147216796875,-0.11309814453125,0.7808837890625,-4068,1706,1225,-25,-18,-208
192897998,0.2432861328125,-0.56732177734375,-0.1300048828125,0.77587890625,-3627,1328,1168,-25,-19,-214
192907987,0.261474609375,-0.56280517578125,-0.147216796875,0.77020263671875,-3148,936,1063,-24,-18,-218
192917964,0.28021240234375,-0.55780029296875,-0.1649169921875,0.76361083984375,-2628,522,939,-24,-16,-224
192927947,0.29937744140625,-0.55242919921875,-0.18292236328125,0.756103515625,-2071,103,818,-23,-15,-229
192937931,0.31903076171875,-0.54656982421875,-0.201416015625,0.74755859375,-1485,-342,705,-24,-12,-235
192947914,0.33917236328125,-0.54022216796875,-0.2203369140625,0.7379150390625,-850,-852,579,-25,-10,-239
192957896,0.35955810546875,-0.53350830078125,-0.23974609375,0.72705078125,-150,-1448,423,-26,-8,-244
192967879,0.380126953125,-0.5262451171875,-0.2596435546875,0.7149658203125,635,-2052,311,-27,-6,-246
192977863,0.40087890625,-0.518310546875,-0.2796630859375,0.70172119140625,1334,-2686,249,-27,-3,-249
192987852,0.4215087890625,-0.51007080078125,-0.299560546875,0.68731689453125,1929,-3252,177,-27,0,-251
192997831,0.44183349609375,-0.50146484375,-0.31915283203125,0.671875,2534,-3795,97,-28,3,-251
193007814,0.46197509765625,-0.49249267578125,-0.338623046875,0.65521240234375,3182,-4296,12,-30,7,-252
193017796,0.48211669921875,-0.4830322265625,-0.35833740234375,0.63702392578125,3882,-4799,-42,-34,9,-260
193027784,0.502197265625,-0.472900390625,-0.37841796875,0.61724853515625,4464,-5230,-131,-37,11,-267
193037769,0.52154541015625,-0.46240234375,-0.3983154296875,0.59625244140625,4827,-5556,-165,-40,12,-268
193047752,0.53955078125,-0.45166015625,-0.41741943359375,0.57501220703125,5140,-5929,-141,-43,10,-259
193057735,0.555908203125,-0.44097900390625,-0.43548583984375,0.553955078125,5619,-6382,-116,-43,9,-246
193067713,0.57086181640625,-0.43017578125,-0.4527587890625,0.53302001953125,6312,-6875,-105,-43,8,-234
193077695,0.5848388671875,-0.41912841796875,-0.469482421875,0.51177978515625,7021,-7253,-111,-44,7,-230
193087679,0.59796142578125,-0.4078369140625,-0.48565673828125,0.4901123046875,7447,-7428,-141,-46,7,-229
193097661,0.60992431640625,-0.396728515625,-0.50115966796875,0.4683837890625,7477,-7440,-182,-48,5,-225
193107644,0.620361328125,-0.38616943359375,-0.5155029296875,0.44757080078125,7227,-7407,-174,-49,2,-212
193117635,0.62890625,-0.37646484375,-0.52850341796875,0.42828369140625,7071,-7481,-106,-48,-2,-193
193127608,0.635986328125,-0.3671875,-0.54058837890625,0.41033935546875,7227,-7705,-31,-46,-6,-178
193137591,0.6422119140625,-0.3577880859375,-0.55224609375,0.3931884765625,7543,-7975,0,-43,-10,-171
193147574,0.64788818359375,-0.347900390625,-0.56378173828125,0.37603759765625,7776,-8132,-7,-42,-14,-174
193157556,0.65313720703125,-0.33740234375,-0.5751953125,0.35882568359375,7776,-8121,-35,-40,-17,-178
193167542,0.6578369140625,-0.3265380859375,-0.5863037109375,0.3419189453125,7563,-7982,-59,-38,-20,-178
193177523,0.66180419921875,-0.315673828125,-0.596923828125,0.32562255859375,7319,-7866,-78,-35,-24,-174
193187506,0.66510009765625,-0.30474853515625,-0.60711669921875,0.31011962890625,7211,-7766,-89,-32,-27,-169
193197488,0.6678466796875,-0.29345703125,-0.6170654296875,0.29510498046875,7337,-7689,-85,-29,-31,-167
193207470,0.6702880859375,-0.2813720703125,-0.62689208984375,0.28021240234375,7622,-7593,-127,-25,-34,-169
193217455,0.67254638671875,-0.2684326171875,-0.63671875,0.2650146484375,7939,-7421,-193,-22,-36,-175
193227433,0.67462158203125,-0.25445556640625,-0.646484375,0.2493896484375,8203,-7164,-279,-18,-37,-183
193237429,0.67657470703125,-0.23956298828125,-0.65606689453125,0.23333740234375,8438,-6817,-378,-16,-37,-189
193247411,0.67840576171875,-0.22393798828125,-0.66522216796875,0.2169189453125,8690,-6416,-482,-13,-36,-193
193257393,0.68011474609375,-0.207763671875,-0.6739501953125,0.2003173828125,8978,-6013,-556,-11,-35,-195
193267370,0.68157958984375,-0.19122314453125,-0.6820068359375,0.1837158203125,9365,-5594,-633,-8,-33,-195
193277352,0.682861328125,-0.17431640625,-0.689453125,0.16705322265625,9851,-5189,-700,-7,-31,-196
193287336,0.68408203125,-0.156982421875,-0.69635009765625,0.1500244140625,10362,-4783,-744,-5,-28,-199
193297318,0.68524169921875,-0.13916015625,-0.70245361328125,0.1326904296875,10845,-4366,-777,-4,-25,-203
193307301,0.686279296875,-0.12091064453125,-0.70794677734375,0.114990234375,11319,-3914,-843,-3,-22,-207
193317283,0.68719482421875,-0.10235595703125,-0.712646484375,0.09710693359375,11787,-3474,-955,-2,-18,-208
193327267,0.68780517578125,-0.08392333984375,-0.7166748046875,0.0792236328125,12277,-3135,-1099,-2,-15,-207
193337247,0.688232421875,-0.06585693359375,-0.7198486328125,0.06170654296875,12761,-2897,-1182,-3,-12,-203
193347238,0.68841552734375,-0.04876708984375,-0.7222900390625,0.044921875,13133,-2721,-1195,-4,-10,-195
193357220,0.6883544921875,-0.03314208984375,-0.72406005859375,0.02947998046875,13366,-2582,-1147,-4,-8,-178
193367206,0.68798828125,-0.01971435546875,-0.72528076171875,0.01611328125,13399,-2483,-1054,-5,-8,-154
193377192,0.68756103515625,-0.009033203125,-0.72607421875,0.00537109375,13233,-2405,-919,-4,-7,-124
193387176,0.68707275390625,-0.00115966796875,-0.7265625,-0.002685546875,12992,-2382,-726,-4,-7,-93
193397160,0.68670654296875,0.00390625,-0.72686767578125,-0.0079345703125,12694,-2507,-447,-4,-7,-64
193407129,0.6865234375,0.00665283203125,-0.72698974609375,-0.01092529296875,12375,-2836,-100,-4,-7,-43
193417111,0.6865234375,0.00799560546875,-0.72698974609375,-0.01263427734375,12044,-3320,315,-4,-7,-34
193427093,0.686767578125,0.00909423828125,-0.7266845703125,-0.01422119140625,11707,-3846,822,-5,-7,-39
193437078,0.68701171875,0.01092529296875,-0.72637939453125,-0.0169677734375,11417,-4392,1244,-8,-9,-55
193447061,0.68719482421875,0.01397705078125,-0.72601318359375,-0.02130126953125,11284,-4912,1613,-11,-10,-73
193457044,0.68731689453125,0.01788330078125,-0.72564697265625,-0.02703857421875,11323,-5366,1891,-14,-11,-87
193467030,0.68719482421875,0.0220947265625,-0.725341796875,-0.0335693359375,11503,-5669,2080,-17,-12,-91
193477012,0.68707275390625,0.02545166015625,-0.72503662109375,-0.03973388671875,11725,-5831,2180,-19,-13,-81
193486996,0.6868896484375,0.02691650390625,-0.724853515625,-0.04443359375,11941,-5899,2185,-21,-13,-58
193496982,0.686767578125,0.0255126953125,-0.72491455078125,-0.04669189453125,12089,-5960,2143,-22,-13,-25
193506960,0.68682861328125,0.02069091796875,-0.72509765625,-0.04583740234375,12172,-5973,2043,-23,-13,15
193516940,0.68695068359375,0.01220703125,-0.72540283203125,-0.04132080078125,12216,-5980,1918,-22,-13,59
193526924,0.68719482421875,0.00018310546875,-0.7257080078125,-0.03314208984375,12290,-5968,1784,-20,-12,101
193536906,0.6873779296875,-0.0147705078125,-0.725830078125,-0.02203369140625,12428,-5921,1619,-19,-12,134
193546888,0.6873779296875,-0.03155517578125,-0.7255859375,-0.0089111328125,12584,-5866,1410,-18,-10,155
193556878,0.6871337890625,-0.04913330078125,-0.724853515625,0.00531005859375,12731,-5825,1137,-16,-7,167
193566857,0.68658447265625,-0.0667724609375,-0.72369384765625,0.0198974609375,12902,-5818,843,-14,-5,170
193576835,0.6859130859375,-0.08404541015625,-0.72198486328125,0.03436279296875,13077,-5850,540,-12,-2,169
193586824,0.68511962890625,-0.10076904296875,-0.71978759765625,0.04876708984375,13240,-5911,325,-10,0,167
193596805,0.6842041015625,-0.11700439453125,-0.71710205078125,0.06317138671875,13381,-5955,149,-7,3,168
193606787,0.68316650390625,-0.13287353515625,-0.7138671875,0.07781982421875,13525,-6001,-1,-3,5,171
193616768,0.6820068359375,-0.14837646484375,-0.7100830078125,0.09271240234375,13648,-6045,-178,2,7,173
193626757,0.68072509765625,-0.16357421875,-0.705810546875,0.10791015625,13695,-6087,-327,5,9,176
193636740,0.6793212890625,-0.17852783203125,-0.7010498046875,0.12335205078125,13679,-6132,-476,9,11,180
193646715,0.6776123046875,-0.1934814453125,-0.69573974609375,0.1392822265625,13575,-6183,-614,12,12,186
193656699,0.67547607421875,-0.20849609375,-0.68988037109375,0.1558837890625,13419,-6250,-724,16,12,194
193666683,0.6729736328125,-0.2236328125,-0.68341064453125,0.17333984375,13196,-6318,-791,20,12,202
193676666,0.66998291015625,-0.2388916015625,-0.67626953125,0.191650390625,12958,-6395,-836,25,11,211
193686647,0.6663818359375,-0.2540283203125,-0.66864013671875,0.21063232421875,12700,-6477,-873,30,10,217
193696635,0.662353515625,-0.2686767578125,-0.66046142578125,0.22998046875,12389,-6522,-899,34,8,219
193706613,0.65789794921875,-0.28265380859375,-0.65203857421875,0.24932861328125,12031,-6516,-932,38,7,218
193716595,0.653076171875,-0.29583740234375,-0.643310546875,0.2684326171875,11665,-6469,-963,41,6,215
193726581,0.6480712890625,-0.30816650390625,-0.63446044921875,0.2872314453125,11330,-6414,-987,43,4,212
193736564,0.64263916015625,-0.32000732421875,-0.62530517578125,0.30584716796875,11010,-6330,-984,45,3,212
193746547,0.63690185546875,-0.33148193359375,-0.6158447265625,0.32440185546875,10712,-6258,-996,47,3,213
193756529,0.63079833984375,-0.34259033203125,-0.60589599609375,0.3428955078125,10461,-6184,-981,48,3,215
193766511,0.62445068359375,-0.35345458984375,-0.59564208984375,0.361083984375,10195,-6061,-964,49,4,215
193776495,0.61785888671875,-0.36395263671875,-0.5850830078125,0.3787841796875,9938,-5949,-962,49,5,212
193786478,0.6112060546875,-0.3740234375,-0.5743408203125,0.395751953125,9654,-5835,-952,47,6,208
193796459,0.6046142578125,-0.3836669921875,-0.56353759765625,0.41192626953125,9372,-5716,-955,47,8,203
193806449,0.5977783203125,-0.3931884765625,-0.55242919921875,0.4276123046875,9069,-5614,-944,46,10,202
193816434,0.5908203125,-0.4027099609375,-0.5408935546875,0.44287109375,8757,-5528,-911,45,13,203
193826417,0.58355712890625,-0.41241455078125,-0.52886962890625,0.45794677734375,8437,-5453,-860,44,15,206
193836400,0.57598876953125,-0.42218017578125,-0.51629638671875,0.47271728515625,8120,-5385,-818,43,18,207
193846378,0.5682373046875,-0.4320068359375,-0.50335693359375,0.48687744140625,7800,-5367,-791,41,21,205
193856360,0.5606689453125,-0.44146728515625,-0.490478515625,0.50018310546875,7497,-5355,-742,40,24,199
193866343,0.5533447265625,-0.45068359375,-0.47747802734375,0.5125732421875,7068,-5282,-687,38,26,192
193876326,0.5458984375,-0.4598388671875,-0.4642333984375,0.5244140625,6511,-5169,-614,37,29,190
193886307,0.5379638671875,-0.46923828125,-0.45037841796875,0.5362548828125,5896,-5025,-505,36,30,194
193896293,0.52923583984375,-0.47894287109375,-0.435791015625,0.54827880859375,5278,-4893,-404,35,31,200
193906273,0.519775390625,-0.48876953125,-0.4205322265625,0.5604248046875,4716,-4790,-318,35,31,206
193916257,0.50982666015625,-0.49847412109375,-0.4049072265625,0.5723876953125,4229,-4715,-227,34,31,207
193926237,0.49981689453125,-0.5078125,-0.3892822265625,0.58380126953125,3813,-4653,-143,33,31,201
193936227,0.48992919921875,-0.5166015625,-0.3740234375,0.59429931640625,3399,-4532,-87,31,31,193
193946211,0.4803466796875,-0.52490234375,-0.35919189453125,0.6038818359375,2930,-4372,-9,29,31,183
193956191,0.47064208984375,-0.532958984375,-0.3443603515625,0.613037109375,2377,-4152,57,27,31,180
193966183,0.46026611328125,-0.54095458984375,-0.329345703125,0.62213134765625,1824,-3930,143,26,30,182
193976166,0.44921875,-0.548828125,-0.31378173828125,0.63128662109375,1297,-3771,245,25,28,188
193986146,0.4373779296875,-0.5565185546875,-0.29791259765625,0.64044189453125,858,-3676,326,24,27,192
193996121,0.4251708984375,-0.56396484375,-0.28192138671875,0.6494140625,503,-3567,382,24,26,192
194006103,0.4127197265625,-0.57098388671875,-0.2659912109375,0.657958984375,161,-3411,451,23,25,190
194016086,0.40020751953125,-0.57763671875,-0.25018310546875,0.666015625,-176,-3188,518,21,25,185
194026070,0.3876953125,-0.583984375,-0.23455810546875,0.67352294921875,-517,-3012,565,19,25,180
194036051,0.37506103515625,-0.590087890625,-0.2193603515625,0.680419921875,-830,-2889,592,17,24,177
194046035,0.36224365234375,-0.59588623046875,-0.20428466796875,0.68695068359375,-1172,-2774,632,15,24,176
194056017,0.34906005859375,-0.60150146484375,-0.1890869140625,0.69329833984375,-1542,-2649,676,14,23,177
194066001,0.335205078125,-0.60675048828125,-0.1734619140625,0.6995849609375,-1972,-2531,753,14,22,181
194075988,0.3206787109375,-0.61175537109375,-0.15740966796875,0.705810546875,-2402,-2390,815,14,20,186
194085974,0.3055419921875,-0.6163330078125,-0.14093017578125,0.71197509765625,-2811,-2232,872,14,19,190
194095948,0.289794921875,-0.6204833984375,-0.12408447265625,0.718017578125,-3197,-2043,936,14,17,193
194105932,0.27374267578125,-0.62408447265625,-0.10693359375,0.72393798828125,-3546,-1827,979,15,15,195
194115916,0.25726318359375,-0.627197265625,-0.08966064453125,0.72967529296875,-3859,-1577,1006,15,13,197
194125897,0.2406005859375,-0.62969970703125,-0.0721435546875,0.735107421875,-4192,-1274,1022,16,11,197
194135881,0.22369384765625,-0.63165283203125,-0.05450439453125,0.740234375,-4564,-922,1047,16,9,197
194145863,0.2066650390625,-0.63299560546875,-0.0367431640625,0.7451171875,-4953,-530,1078,17,6,195
194155847,0.1895751953125,-0.6336669921875,-0.01904296875,0.749755859375,-5318,-87,1104,18,3,192
194165830,0.1727294921875,-0.63372802734375,-0.00152587890625,0.7540283203125,-5675,380,1130,18,0,188
194175814,0.15625,-0.633056640625,0.01556396484375,0.75799560546875,-6025,904,1176,18,-2,181
194185793,0.14044189453125,-0.6317138671875,0.031982421875,0.76171875,-6385,1468,1243,18,-6,171
194195774,0.1256103515625,-0.62982177734375,0.04742431640625,0.76507568359375,-6688,2051,1305,17,-9,156
194205765,0.11236572265625,-0.62738037109375,0.0614013671875,0.76812744140625,-6924,2608,1389,16,-13,137
194215747,0.10089111328125,-0.62457275390625,0.07354736328125,0.7708740234375,-7082,3162,1453,14,-16,114
194225733,0.09161376953125,-0.6217041015625,0.083740234375,0.77337646484375,-7186,3691,1507,12,-18,89
194235707,0.08441162109375,-0.6187744140625,0.091796875,0.77557373046875,-7266,4182,1555,10,-20,64
194245691,0.079345703125,-0.61590576171875,0.09783935546875,0.77764892578125,-7321,4619,1599,7,-21,40
194255673,0.076171875,-0.6131591796875,0.1019287109375,0.7796630859375,-7358,4982,1644,4,-23,18
194265654,0.07464599609375,-0.6104736328125,0.1043701171875,0.78155517578125,-7371,5273,1698,2,-24,-1
194275629,0.074462890625,-0.6080322265625,0.10546875,0.78338623046875,-7368,5521,1736,0,-25,-15
194285613,0.0753173828125,-0.6055908203125,0.1053466796875,0.78515625,-7362,5724,1797,-3,-25,-28
194295593,0.07684326171875,-0.603271484375,0.1043701171875,0.786865234375,-7368,5881,1855,-5,-26,-36
194305577,0.078857421875,-0.60107421875,0.10272216796875,0.78863525390625,-7341,5975,1909,-8,-26,-42
194315560,0.08123779296875,-0.598876953125,0.10040283203125,0.79034423828125,-7288,5993,1953,-10,-26,-47
194325542,0.084228515625,-0.59686279296875,0.09722900390625,0.79193115234375,-7156,5921,1980,-12,-25,-55
194335524,0.087890625,-0.59503173828125,0.0931396484375,0.79339599609375,-6957,5789,1963,-15,-24,-64
194345508,0.092529296875,-0.59356689453125,0.0880126953125,0.7945556640625,-6719,5576,1923,-17,-22,-75
194355492,0.098388671875,-0.59246826171875,0.08160400390625,0.79541015625,-6452,5317,1881,-19,-20,-90
194365473,0.105712890625,-0.59161376953125,0.07379150390625,0.79583740234375,-6178,5010,1834,-21,-18,-105
194375459,0.1143798828125,-0.59112548828125,0.06475830078125,0.7957763671875,-5917,4703,1775,-22,-16,-120
194385438,0.12445068359375,-0.59088134765625,0.054443359375,0.79522705078125,-5665,4375,1712,-23,-14,-135
194395430,0.1357421875,-0.5908203125,0.04290771484375,0.79412841796875,-5415,4026,1672,-24,-12,-148
194405412,0.1483154296875,-0.59075927734375,0.0302734375,0.79248046875,-5157,3666,1639,-26,-10,-161
194415396,0.16204833984375,-0.59075927734375,0.01654052734375,0.79022216796875,-4915,3295,1594,-26,-9,-174
194425371,0.1768798828125,-0.5906982421875,0.0018310546875,0.7872314453125,-4657,2928,1526,-27,-8,-185
194435356,0.1927490234375,-0.59051513671875,-0.01373291015625,0.7835693359375,-4418,2566,1434,-27,-6,-196
194445337,0.2093505859375,-0.590087890625,-0.0301513671875,0.77911376953125,-4182,2185,1336,-28,-6,-204
194455321,0.2265625,-0.58941650390625,-0.0472412109375,0.77392578125,-3911,1774,1258,-29,-5,-212
194465303,0.24432373046875,-0.5882568359375,-0.06500244140625,0.76812744140625,-3607,1301,1208,-30,-6,-217
194475287,0.2626953125,-0.58660888671875,-0.08355712890625,0.761474609375,-3238,771,1147,-30,-6,-225
194485270,0.281982421875,-0.58447265625,-0.10302734375,0.75384521484375,-2776,173,1063,-30,-5,-235
194495256,0.30218505859375,-0.58172607421875,-0.1234130859375,0.7449951171875,-2212,-452,932,-30,-3,-245
194505241,0.32342529296875,-0.5784912109375,-0.1448974609375,0.73468017578125,-1595,-1089,762,-31,-1,-258
194515227,0.345458984375,-0.5745849609375,-0.16717529296875,0.722900390625,-995,-1726,644,-31,1,-267
194525209,0.367919921875,-0.5699462890625,-0.1900634765625,0.70965576171875,-454,-2409,567,-32,3,-275
194535189,0.3905029296875,-0.5645751953125,-0.21319580078125,0.6951904296875,126,-3138,497,-32,4,-278
194545180,0.41302490234375,-0.55853271484375,-0.2364501953125,0.67938232421875,735,-3849,393,-32,6,-279
194555166,0.4351806640625,-0.55181884765625,-0.2596435546875,0.662353515625,1300,-4458,296,-32,8,-280
194565143,0.456787109375,-0.54443359375,-0.2822265625,0.6444091796875,1742,-4960,236,-31,10,-277
194575119,0.4774169921875,-0.53662109375,-0.303955078125,0.6258544921875,2161,-5508,249,-31,11,-272
194585101,0.4971923828125,-0.52838134765625,-0.32501220703125,0.60662841796875,2728,-6093,181,-31,12,-265
194595084,0.515869140625,-0.519775390625,-0.34539794921875,0.58685302734375,3312,-6618,86,-32,14,-257
194605068,0.5330810546875,-0.51116943359375,-0.36468505859375,0.5670166015625,3688,-6984,45,-32,14,-245
194615051,0.54840087890625,-0.5028076171875,-0.3822021484375,0.54803466796875,3837,-7212,69,-32,13,-226
194625035,0.56158447265625,-0.49505615234375,-0.39776611328125,0.5303955078125,3795,-7367,115,-30,11,-204
194635017,0.57281494140625,-0.4879150390625,-0.4114990234375,0.5142822265625,3781,-7479,157,-29,9,-182
194644999,0.5826416015625,-0.4810791015625,-0.42413330078125,0.49920654296875,3893,-7573,162,-28,7,-168
194654990,0.5919189453125,-0.4739990234375,-0.4364013671875,0.4842529296875,4114,-7644,190,-28,6,-167
194664965,0.60113525390625,-0.46624755859375,-0.44903564453125,0.4686279296875,4377,-7726,230,-30,4,-176
194674948,0.6104736328125,-0.45751953125,-0.46246337890625,0.45184326171875,4632,-7849,228,-31,1,-190
194684931,0.6197509765625,-0.44769287109375,-0.47662353515625,0.4339599609375,4797,-7929,220,-33,-3,-203
194694913,0.628662109375,-0.43695068359375,-0.49114990234375,0.41546630859375,4865,-7933,214,-33,-9,-210
194704894,0.63671875,-0.42572021484375,-0.50555419921875,0.39715576171875,4865,-7894,195,-33,-14,-208
194714878,0.6436767578125,-0.41436767578125,-0.51947021484375,0.379638671875,4927,-7845,160,-32,-20,-200
194724862,0.6495361328125,-0.40289306640625,-0.53302001953125,0.36285400390625,5169,-7857,136,-30,-25,-193
194734844,0.65472412109375,-0.390869140625,-0.546630859375,0.3460693359375,5619,-7873,58,-30,-29,-194
194744827,0.6595458984375,-0.37786865234375,-0.5606689453125,0.3284912109375,6275,-7944,-59,-30,-33,-203
194754810,0.66412353515625,-0.363525390625,-0.5751953125,0.30975341796875,6942,-7974,-203,-30,-36,-215
194764793,0.66815185546875,-0.3485107421875,-0.58966064453125,0.2906494140625,7373,-7907,-325,-29,-38,-217
194774774,0.671142578125,-0.3338623046875,-0.6031494140625,0.27252197265625,7628,-7765,-391,-27,-40,-203
194784765,0.6729736328125,-0.3204345703125,-0.6153564453125,0.25653076171875,7852,-7645,-413,-24,-42,-179
194794750,0.6737060546875,-0.3084716796875,-0.6259765625,0.2430419921875,8148,-7580,-440,-20,-43,-153
194804733,0.6737060546875,-0.2979736328125,-0.6353759765625,0.231689453125,8489,-7541,-452,-16,-42,-131
194814709,0.67333984375,-0.28826904296875,-0.6436767578125,0.2218017578125,8813,-7464,-473,-12,-40,-118
194824690,0.6729736328125,-0.27886962890625,-0.6512451171875,0.21270751953125,9065,-7358,-485,-9,-38,-113
194834674,0.67266845703125,-0.269287109375,-0.65838623046875,0.20367431640625,9226,-7219,-485,-7,-36,-114
194844658,0.672607421875,-0.25921630859375,-0.66522216796875,0.194580078125,9354,-7055,-469,-4,-34,-118
194854638,0.67291259765625,-0.24853515625,-0.67169189453125,0.1851806640625,9508,-6899,-446,-2,-31,-124
194864624,0.67340087890625,-0.2371826171875,-0.67791748046875,0.17535400390625,9747,-6807,-435,0,-28,-131
194874604,0.67425537109375,-0.2249755859375,-0.683837890625,0.16485595703125,10030,-6718,-418,2,-25,-140
194884586,0.6754150390625,-0.21185302734375,-0.68951416015625,0.15350341796875,10274,-6617,-398,3,-22,-151
194894570,0.67681884765625,-0.19805908203125,-0.69476318359375,0.1414794921875,10395,-6455,-355,3,-18,-158
194904553,0.6783447265625,-0.18402099609375,-0.69952392578125,0.12921142578125,10389,-6255,-278,4,-15,-159
194914536,0.67974853515625,-0.1705322265625,-0.70361328125,0.117431640625,10267,-6025,-172,4,-13,-152
194924519,0.68096923828125,-0.158203125,-0.70703125,0.1068115234375,10140,-5796,-52,4,-12,-137
194934501,0.681884765625,-0.1473388671875,-0.70977783203125,0.09771728515625,10073,-5581,56,5,-11,-119
194944485,0.6826171875,-0.137939453125,-0.71197509765625,0.090087890625,10025,-5404,155,5,-10,-102
194954466,0.68316650390625,-0.1298828125,-0.7137451171875,0.08367919921875,9963,-5241,230,5,-9,-89
194964449,0.68359375,-0.12261962890625,-0.71527099609375,0.0780029296875,9856,-5087,285,5,-9,-81
194974438,0.6839599609375,-0.1158447265625,-0.716552734375,0.07275390625,9707,-4904,312,5,-8,-78
194984422,0.68438720703125,-0.1090087890625,-0.7177734375,0.0675048828125,9579,-4698,336,5,-7,-78
194994405,0.684814453125,-0.10205078125,-0.7188720703125,0.0621337890625,9473,-4470,344,6,-7,-80
195004380,0.6851806640625,-0.09478759765625,-0.719970703125,0.0565185546875,9385,-4207,337,6,-6,-82
195014363,0.685546875,-0.08734130859375,-0.720947265625,0.05084228515625,9306,-3935,320,7,-6,-83
195024350,0.6859130859375,-0.07977294921875,-0.721923828125,0.045166015625,9245,-3649,287,8,-6,-83
195034329,0.68609619140625,-0.07208251953125,-0.72283935546875,0.03948974609375,9226,-3363,230,9,-6,-83
195044315,0.686279296875,-0.064208984375,-0.72369384765625,0.0338134765625,9197,-3088,153,10,-6,-84
195054298,0.68634033203125,-0.05621337890625,-0.72454833984375,0.0281982421875,9183,-2812,76,11,-6,-84
195064281,0.686279296875,-0.04815673828125,-0.72540283203125,0.0225830078125,9191,-2557,-20,11,-6,-84
195074263,0.6861572265625,-0.03997802734375,-0.72613525390625,0.01702880859375,9235,-2305,-90,12,-6,-84
195084244,0.68597412109375,-0.0318603515625,-0.726806640625,0.01165771484375,9328,-2062,-133,13,-6,-82
195094235,0.68572998046875,-0.0240478515625,-0.7274169921875,0.0067138671875,9400,-1844,-167,14,-6,-77
195104219,0.68548583984375,-0.01666259765625,-0.7279052734375,0.00238037109375,9426,-1600,-175,14,-6,-70
195114206,0.6851806640625,-0.01007080078125,-0.72833251953125,-0.00146484375,9431,-1413,-177,14,-6,-63
195124190,0.68475341796875,-0.00421142578125,-0.728759765625,-0.0047607421875,9410,-1246,-168,12,-7,-56
195134174,0.68426513671875,0.0008544921875,-0.72918701171875,-0.007568359375,9339,-1107,-134,10,-8,-48
195144156,0.6837158203125,0.00506591796875,-0.72967529296875,-0.0101318359375,9227,-1018,-82,7,-9,-42
195154126,0.68304443359375,0.00836181640625,-0.730224609375,-0.012451171875,9110,-969,-10,3,-10,-36
195164108,0.68231201171875,0.0108642578125,-0.7308349609375,-0.0147705078125,8993,-951,77,-1,-12,-32
195174090,0.68145751953125,0.01251220703125,-0.7315673828125,-0.0169677734375,8869,-946,144,-6,-13,-27
195184072,0.6805419921875,0.0133056640625,-0.73236083984375,-0.01910400390625,8785,-955,203,-10,-15,-21
195194055,0.67950439453125,0.0133056640625,-0.7332763671875,-0.02105712890625,8720,-965,247,-14,-16,-15
195204037,0.6783447265625,0.01239013671875,-0.73431396484375,-0.02288818359375,8656,-977,249,-17,-18,-10
195214020,0.67706298828125,0.0108642578125,-0.7354736328125,-0.02447509765625,8589,-997,223,-19,-19,-5
