subject,Joshua Spiesman
arm,right
label,3
hz,100.17439281842702
time,5.370634

timestamp_us,q0,q1,q2,q3,ax,ay,az,gx,gy,gz
39707729,-0.09991455078125,0.7559814453125,-0.14654541015625,-0.630126953125,-8178,395,-1561,6,-1,0
39717705,-0.10052490234375,0.755859375,-0.14697265625,-0.63006591796875,-8194,385,-1572,6,-2,-2
39727688,-0.101318359375,0.75567626953125,-0.14727783203125,-0.63006591796875,-8204,377,-1589,6,-2,-3
39737670,-0.10223388671875,0.75555419921875,-0.1474609375,-0.63006591796875,-8201,387,-1606,7,-3,-5
39747650,-0.10321044921875,0.75543212890625,-0.1475830078125,-0.6300048828125,-8171,391,-1617,7,-3,-6
39757633,-0.10430908203125,0.7552490234375,-0.14764404296875,-0.6300048828125,-8146,403,-1613,7,-3,-6
39767615,-0.10540771484375,0.75506591796875,-0.147705078125,-0.63006591796875,-8119,400,-1603,7,-3,-7
39777600,-0.1065673828125,0.7548828125,-0.147705078125,-0.63006591796875,-8097,407,-1601,7,-4,-6
39787581,-0.107666015625,0.75469970703125,-0.14776611328125,-0.63006591796875,-8073,423,-1591,7,-3,-7
39797564,-0.1087646484375,0.7545166015625,-0.14776611328125,-0.630126953125,-8044,434,-1575,7,-3,-7
39807549,-0.10980224609375,0.75433349609375,-0.1478271484375,-0.630126953125,-8022,444,-1558,7,-3,-6
39817529,-0.11077880859375,0.75421142578125,-0.1478271484375,-0.630126953125,-8001,448,-1535,6,-2,-6
39827513,-0.1116943359375,0.7540283203125,-0.14788818359375,-0.630126953125,-7977,460,-1503,6,-2,-6
39837496,-0.112548828125,0.75396728515625,-0.14788818359375,-0.630126953125,-7947,447,-1475,5,-1,-6
39847478,-0.1134033203125,0.75390625,-0.1478271484375,-0.6300048828125,-7921,446,-1450,5,-1,-6
39857465,-0.11419677734375,0.75390625,-0.14776611328125,-0.6298828125,-7922,456,-1430,4,0,-6
39867443,-0.11492919921875,0.75396728515625,-0.147705078125,-0.62969970703125,-7910,455,-1410,4,1,-6
39877423,-0.11553955078125,0.75408935546875,-0.1475830078125,-0.62945556640625,-7920,446,-1400,3,1,-6
39887415,-0.11614990234375,0.7542724609375,-0.14752197265625,-0.629150390625,-7946,424,-1399,3,2,-6
39897397,-0.11669921875,0.75445556640625,-0.1474609375,-0.62884521484375,-7976,408,-1392,3,2,-5
39907374,-0.1171875,0.754638671875,-0.14739990234375,-0.6285400390625,-8029,390,-1392,3,2,-5
39917357,-0.11761474609375,0.7548828125,-0.14739990234375,-0.62823486328125,-8088,358,-1409,3,3,-4
39927344,-0.11798095703125,0.7550048828125,-0.1474609375,-0.6279296875,-8130,359,-1423,2,2,-3
39937326,-0.11822509765625,0.75518798828125,-0.1475830078125,-0.62762451171875,-8166,369,-1445,2,2,-3
39947309,-0.11846923828125,0.75531005859375,-0.1478271484375,-0.62738037109375,-8196,411,-1466,3,2,-2
39957292,-0.11859130859375,0.75543212890625,-0.14825439453125,-0.627197265625,-8217,473,-1480,3,1,-1
39967278,-0.1185302734375,0.75543212890625,-0.1488037109375,-0.62701416015625,-8229,555,-1492,3,2,2
39977254,-0.11810302734375,0.7554931640625,-0.149658203125,-0.6268310546875,-8215,641,-1499,2,2,5
39987234,-0.11737060546875,0.75543212890625,-0.15087890625,-0.626708984375,-8201,752,-1491,2,2,8
39997227,-0.1162109375,0.7552490234375,-0.1524658203125,-0.62677001953125,-8217,935,-1454,2,2,12
40007208,-0.11468505859375,0.7550048828125,-0.15435791015625,-0.62689208984375,-8303,1254,-1378,1,2,14
40017189,-0.11285400390625,0.754638671875,-0.15643310546875,-0.627197265625,-8516,1685,-1301,0,2,13
40027180,-0.1107177734375,0.754150390625,-0.158447265625,-0.62762451171875,-8904,2188,-1261,-1,1,12
40039989,-0.10821533203125,0.75347900390625,-0.1605224609375,-0.62835693359375,-9382,2657,-1238,-4,0,14
40047137,-0.10491943359375,0.75250244140625,-0.1629638671875,-0.62945556640625,-9812,3100,-1176,-7,-3,22
40057113,-0.10028076171875,0.7509765625,-0.16644287109375,-0.631103515625,-10149,3521,-1073,-10,-5,37
40067096,-0.0938720703125,0.74896240234375,-0.171142578125,-0.63323974609375,-10426,3894,-935,-15,-7,55
40077078,-0.085693359375,0.746337890625,-0.1768798828125,-0.63592529296875,-10644,4241,-847,-21,-9,71
40087062,-0.07623291015625,0.74334716796875,-0.1832275390625,-0.6387939453125,-10795,4503,-829,-25,-11,81
40097044,-0.06585693359375,0.7401123046875,-0.189697265625,-0.64178466796875,-10886,4704,-912,-30,-13,87
40107025,-0.05499267578125,0.7366943359375,-0.1961669921875,-0.64483642578125,-10921,4845,-1060,-34,-15,90
40117011,-0.0438232421875,0.73309326171875,-0.202392578125,-0.6478271484375,-10959,4914,-1227,-37,-16,92
40126993,-0.03240966796875,0.729248046875,-0.20849609375,-0.65087890625,-11020,4921,-1422,-39,-19,95
40136981,-0.02099609375,0.72509765625,-0.214599609375,-0.65399169921875,-11090,4874,-1597,-40,-22,98
40146957,-0.00946044921875,0.7205810546875,-0.22088623046875,-0.65716552734375,-11156,4795,-1748,-40,-25,102
40156941,0.002197265625,0.715576171875,-0.22735595703125,-0.66046142578125,-11230,4699,-1855,-40,-28,107
40166923,0.01385498046875,0.71014404296875,-0.2340087890625,-0.66387939453125,-11278,4562,-1957,-40,-32,111
40176912,0.0255126953125,0.70416259765625,-0.24102783203125,-0.6673583984375,-11288,4433,-2015,-38,-36,116
40186892,0.0372314453125,0.6976318359375,-0.24847412109375,-0.67095947265625,-11280,4320,-2039,-37,-40,122
40196875,0.04901123046875,0.69049072265625,-0.25634765625,-0.67462158203125,-11219,4255,-2018,-35,-43,126
40206856,0.060546875,0.682861328125,-0.26446533203125,-0.6783447265625,-11093,4220,-1936,-33,-47,128
40216843,0.07177734375,0.67486572265625,-0.272705078125,-0.68194580078125,-10939,4227,-1821,-30,-48,128
40226825,0.08251953125,0.666748046875,-0.28082275390625,-0.6854248046875,-10789,4247,-1696,-28,-48,125
40236808,0.0927734375,0.6585693359375,-0.28875732421875,-0.688720703125,-10613,4256,-1589,-26,-49,122
40246790,0.10272216796875,0.6502685546875,-0.29681396484375,-0.69171142578125,-10375,4258,-1463,-23,-49,124
40256778,0.113037109375,0.64166259765625,-0.30548095703125,-0.69439697265625,-10117,4318,-1305,-21,-48,132
40266764,0.12408447265625,0.63262939453125,-0.31500244140625,-0.696533203125,-9809,4422,-1116,-19,-46,142
40276747,0.1361083984375,0.62322998046875,-0.32550048828125,-0.69793701171875,-9434,4590,-891,-17,-42,154
40286729,0.149169921875,0.613525390625,-0.33673095703125,-0.69854736328125,-9053,4837,-646,-16,-36,163
40296705,0.162841796875,0.60382080078125,-0.34814453125,-0.6983642578125,-8684,5147,-418,-15,-30,166
40306688,0.17645263671875,0.5946044921875,-0.35906982421875,-0.6973876953125,-8302,5431,-234,-14,-23,160
40316669,0.1895751953125,0.586181640625,-0.3692626953125,-0.69580078125,-7977,5671,-107,-14,-15,153
40326652,0.2022705078125,0.5784912109375,-0.37872314453125,-0.69354248046875,-7689,5845,-2,-13,-9,148
40336633,0.21514892578125,0.571044921875,-0.38812255859375,-0.69061279296875,-7424,5957,53,-11,-4,151
40346620,0.22869873046875,0.5635986328125,-0.3978271484375,-0.6868896484375,-7233,6077,97,-10,1,160
40356599,0.2427978515625,0.55596923828125,-0.40777587890625,-0.682373046875,-7163,6232,126,-9,5,166
40366581,0.25665283203125,0.54864501953125,-0.4173583984375,-0.67742919921875,-7201,6390,136,-9,8,162
40376565,0.2694091796875,0.5419921875,-0.42596435546875,-0.6724853515625,-7355,6563,117,-8,9,150
40386545,0.2806396484375,0.53607177734375,-0.43341064453125,-0.6678466796875,-7558,6673,52,-7,8,136
40396528,0.29083251953125,0.53045654296875,-0.44024658203125,-0.66351318359375,-7671,6673,-18,-7,6,131
40406513,0.30108642578125,0.524169921875,-0.44757080078125,-0.65899658203125,-7577,6619,-60,-6,2,139
40416497,0.3125,0.5164794921875,-0.4559326171875,-0.65399169921875,-7328,6565,-71,-6,-2,158
40426475,0.32513427734375,0.50726318359375,-0.4654541015625,-0.6483154296875,-7051,6565,-65,-7,-5,174
40436459,0.33807373046875,0.4971923828125,-0.47528076171875,-0.64239501953125,-6762,6644,-60,-8,-8,177
40446443,0.35028076171875,0.48712158203125,-0.48443603515625,-0.63671875,-6460,6738,-47,-10,-10,166
40456428,0.36090087890625,0.477783203125,-0.4921875,-0.63189697265625,-6216,6847,-30,-12,-12,144
40466412,0.3695068359375,0.46966552734375,-0.4984130859375,-0.6280517578125,-6008,6925,-49,-13,-13,122
40476395,0.3770751953125,0.462158203125,-0.50372314453125,-0.62493896484375,-5719,6953,-41,-14,-14,111
40486373,0.3848876953125,0.45416259765625,-0.509033203125,-0.6217041015625,-5284,6915,17,-16,-15,118
40496357,0.3944091796875,0.44464111328125,-0.5152587890625,-0.61749267578125,-4691,6850,83,-18,-14,139
40506337,0.406005859375,0.4332275390625,-0.5224609375,-0.6119384765625,-4083,6804,149,-21,-12,164
40516322,0.41912841796875,0.42059326171875,-0.53009033203125,-0.6053466796875,-3540,6793,209,-24,-10,177
40526303,0.43231201171875,0.4078369140625,-0.53717041015625,-0.5985107421875,-3123,6784,247,-27,-7,173
40536287,0.44439697265625,0.3961181640625,-0.54290771484375,-0.59234619140625,-2829,6770,257,-28,-5,154
40546266,0.454833984375,0.38604736328125,-0.54718017578125,-0.587158203125,-2643,6765,274,-29,-2,130
40556255,0.46368408203125,0.37750244140625,-0.5501708984375,-0.58294677734375,-2460,6714,304,-28,0,111
40566231,0.47186279296875,0.36968994140625,-0.552490234375,-0.5791015625,-2255,6636,340,-28,2,103
40576222,0.48004150390625,0.3619384765625,-0.5548095703125,-0.57513427734375,-2053,6537,380,-28,3,106
40586204,0.4886474609375,0.35382080078125,-0.55718994140625,-0.57061767578125,-1882,6438,436,-27,3,112
40596183,0.49755859375,0.34521484375,-0.55975341796875,-0.565673828125,-1753,6341,481,-27,3,117
40606176,0.5064697265625,0.33636474609375,-0.5623779296875,-0.56036376953125,-1613,6218,523,-26,2,121
40616159,0.51556396484375,0.32720947265625,-0.56524658203125,-0.55462646484375,-1439,6081,583,-24,2,126
40626136,0.52484130859375,0.3175048828125,-0.56842041015625,-0.54833984375,-1248,5941,643,-23,1,132
40636112,0.534423828125,0.30731201171875,-0.5718994140625,-0.54119873046875,-985,5795,718,-20,0,140
40646099,0.54443359375,0.29632568359375,-0.57574462890625,-0.53326416015625,-649,5673,815,-19,-1,148
40656077,0.55450439453125,0.28485107421875,-0.57977294921875,-0.52471923828125,-297,5564,913,-17,-1,151
40666057,0.56427001953125,0.2734375,-0.58367919921875,-0.51593017578125,68,5429,992,-16,-2,148
40676044,0.573486328125,0.26220703125,-0.58734130859375,-0.50732421875,486,5262,1072,-15,-3,141
40686024,0.58209228515625,0.2513427734375,-0.5908203125,-0.49896240234375,896,5071,1176,-13,-4,133
40696006,0.590087890625,0.24090576171875,-0.593994140625,-0.4908447265625,1296,4852,1269,-12,-4,127
40705988,0.5977783203125,0.23046875,-0.5970458984375,-0.4827880859375,1683,4611,1352,-12,-5,125
40715978,0.60540771484375,0.21978759765625,-0.60015869140625,-0.474365234375,2063,4350,1423,-11,-6,128
40725954,0.61322021484375,0.20855712890625,-0.603271484375,-0.46533203125,2473,4031,1452,-11,-6,133
40735942,0.6212158203125,0.19647216796875,-0.6065673828125,-0.4556884765625,2927,3640,1464,-12,-8,140
40745925,0.6292724609375,0.183837890625,-0.60980224609375,-0.4454345703125,3419,3201,1463,-12,-8,142
40755906,0.6370849609375,0.1708984375,-0.61285400390625,-0.43511962890625,3912,2697,1453,-13,-9,138
40765892,0.6444091796875,0.1583251953125,-0.61553955078125,-0.4251708984375,4422,2169,1468,-13,-8,129
40775875,0.65106201171875,0.146484375,-0.6177978515625,-0.41595458984375,4949,1631,1482,-14,-7,114
40785857,0.656982421875,0.1357421875,-0.619384765625,-0.4078369140625,5429,1102,1524,-14,-5,96
40795841,0.661865234375,0.12652587890625,-0.62042236328125,-0.40130615234375,5845,630,1559,-14,-3,74
40805819,0.66571044921875,0.11920166015625,-0.6207275390625,-0.39666748046875,6167,221,1587,-15,-1,47
40815803,0.66827392578125,0.1141357421875,-0.62042236328125,-0.394287109375,6369,-130,1584,-14,2,18
40825784,0.66949462890625,0.1114501953125,-0.61956787109375,-0.394287109375,6453,-424,1537,-14,3,-12
40835767,0.66943359375,0.111083984375,-0.61834716796875,-0.396484375,6461,-660,1463,-13,4,-39
40845750,0.668212890625,0.11260986328125,-0.61688232421875,-0.40032958984375,6482,-839,1372,-11,5,-59
40855734,0.666259765625,0.1153564453125,-0.615234375,-0.40533447265625,6462,-954,1272,-10,5,-73
40865708,0.6636962890625,0.119140625,-0.613525390625,-0.4110107421875,6353,-1024,1166,-8,6,-82
40875692,0.6607666015625,0.12359619140625,-0.61175537109375,-0.41693115234375,6194,-1050,1053,-5,7,-87
40885675,0.65753173828125,0.12872314453125,-0.61004638671875,-0.42303466796875,6001,-1007,917,-2,7,-91
40895656,0.65374755859375,0.1346435546875,-0.60833740234375,-0.429443359375,5751,-913,786,0,7,-98
40905640,0.64935302734375,0.1417236328125,-0.60650634765625,-0.4364013671875,5466,-765,660,3,8,-108
40915621,0.64398193359375,0.1500244140625,-0.6044921875,-0.44427490234375,5175,-572,557,5,8,-122
40925604,0.6376953125,0.15985107421875,-0.60205078125,-0.45306396484375,4846,-329,474,8,9,-137
40935587,0.6304931640625,0.17108154296875,-0.5992431640625,-0.4627685546875,4520,-72,394,10,10,-150
40945570,0.62237548828125,0.183349609375,-0.59600830078125,-0.47314453125,4145,202,336,12,11,-161
40955553,0.61334228515625,0.19677734375,-0.59228515625,-0.48406982421875,3651,489,245,13,13,-171
40965536,0.60333251953125,0.211181640625,-0.58807373046875,-0.49554443359375,3109,777,146,15,12,-180
40975517,0.59246826171875,0.2261962890625,-0.58349609375,-0.50732421875,2560,1090,87,15,12,-186
40985501,0.58087158203125,0.24163818359375,-0.5784912109375,-0.51922607421875,2018,1493,59,16,11,-190
40995483,0.568603515625,0.25738525390625,-0.57305908203125,-0.5311279296875,1458,1933,67,17,10,-192
41005467,0.5557861328125,0.2733154296875,-0.56719970703125,-0.54290771484375,906,2361,102,18,11,-193
41015447,0.54248046875,0.28924560546875,-0.56097412109375,-0.55438232421875,379,2763,105,19,10,-192
41025428,0.52886962890625,0.3050537109375,-0.5545654296875,-0.5654296875,-135,3096,95,19,10,-190
41035420,0.51507568359375,0.32049560546875,-0.5479736328125,-0.57598876953125,-735,3459,87,19,8,-186
41045402,0.50067138671875,0.3358154296875,-0.541015625,-0.58642578125,-1401,3927,85,19,7,-187
41055385,0.4852294921875,0.35150146484375,-0.533447265625,-0.5970458984375,-2044,4484,121,19,6,-195
41065363,0.4686279296875,0.36785888671875,-0.5250244140625,-0.60784912109375,-2591,5026,178,21,6,-207
41075344,0.45098876953125,0.38470458984375,-0.5157470703125,-0.61859130859375,-2906,5407,254,22,8,-216
41085325,0.43316650390625,0.4013671875,-0.50592041015625,-0.62872314453125,-3077,5597,306,22,12,-216
41095308,0.4161376953125,0.417236328125,-0.49615478515625,-0.6376953125,-3252,5721,302,22,14,-203
41105290,0.40008544921875,0.43206787109375,-0.486572265625,-0.6453857421875,-3670,5901,302,20,16,-188
41115274,0.38421630859375,0.446533203125,-0.47650146484375,-0.65264892578125,-4463,6278,323,18,17,-186
41125254,0.36700439453125,0.46185302734375,-0.465087890625,-0.66009521484375,-5370,6644,335,18,19,-203
41135235,0.3475341796875,0.47845458984375,-0.45184326171875,-0.66796875,-6093,6804,301,19,22,-227
41145226,0.3265380859375,0.49566650390625,-0.4373779296875,-0.67559814453125,-6476,6713,255,21,24,-241
41155209,0.3057861328125,0.51226806640625,-0.4229736328125,-0.68206787109375,-6494,6489,209,23,27,-232
41165187,0.28729248046875,0.52703857421875,-0.4100341796875,-0.68670654296875,-6444,6226,200,24,29,-202
41175180,0.27166748046875,0.53997802734375,-0.39892578125,-0.6895751953125,-6619,6083,211,24,32,-168
41185167,0.25799560546875,0.55169677734375,-0.38897705078125,-0.69122314453125,-7094,6050,206,23,35,-147
41195138,0.2445068359375,0.5633544921875,-0.37890625,-0.69232177734375,-7752,6065,151,23,36,-149
41205115,0.22943115234375,0.57562255859375,-0.3675537109375,-0.6934814453125,-8278,5984,79,24,37,-168
41215100,0.21246337890625,0.58856201171875,-0.35479736328125,-0.6947021484375,-8584,5767,-46,26,37,-188
41225086,0.19451904296875,0.60137939453125,-0.3411865234375,-0.69573974609375,-8623,5472,-124,26,36,-196
41235068,0.17657470703125,0.6136474609375,-0.3275146484375,-0.6964111328125,-8758,5180,-207,26,35,-193
41245050,0.15899658203125,0.62506103515625,-0.3140869140625,-0.69671630859375,-9194,4979,-277,25,33,-186
41255032,0.141357421875,0.6358642578125,-0.300537109375,-0.6966552734375,-9796,4827,-353,25,31,-186
41265017,0.12335205078125,0.64630126953125,-0.28662109375,-0.6964111328125,-10387,4713,-491,25,29,-189
41274998,0.1048583984375,0.65618896484375,-0.2724609375,-0.69586181640625,-10896,4544,-610,26,27,-193
41284987,0.086181640625,0.66552734375,-0.2581787109375,-0.69500732421875,-11308,4279,-690,27,25,-192
41294969,0.06793212890625,0.6739501953125,-0.244384765625,-0.69384765625,-11517,4003,-722,27,22,-184
41304946,0.0509033203125,0.68133544921875,-0.231689453125,-0.69244384765625,-11665,3741,-748,27,20,-169
41314929,0.03515625,0.6878662109375,-0.21990966796875,-0.6907958984375,-11880,3540,-842,26,19,-158
41324910,0.01983642578125,0.69390869140625,-0.2083740234375,-0.68896484375,-12355,3472,-877,25,18,-158
41334893,0.00384521484375,0.69976806640625,-0.19598388671875,-0.68695068359375,-12724,3404,-1008,24,17,-171
41344877,-0.0133056640625,0.70556640625,-0.182373046875,-0.68463134765625,-13060,3288,-1130,24,16,-185
41354858,-0.03106689453125,0.71099853515625,-0.16796875,-0.68212890625,-13333,3113,-1181,24,14,-192
41364840,-0.04852294921875,0.7156982421875,-0.15374755859375,-0.6795654296875,-13408,2892,-1182,24,11,-186
41374825,-0.06439208984375,0.719482421875,-0.14093017578125,-0.677001953125,-13285,2657,-1123,23,10,-167
41384807,-0.0780029296875,0.72235107421875,-0.1302490234375,-0.6746826171875,-13026,2447,-998,22,8,-140
41394789,-0.08905029296875,0.724365234375,-0.121826171875,-0.67266845703125,-12784,2329,-868,19,7,-114
41404778,-0.09820556640625,0.72601318359375,-0.114990234375,-0.6708984375,-12571,2332,-746,17,7,-99
41414760,-0.1065673828125,0.7274169921875,-0.10845947265625,-0.66912841796875,-12349,2417,-667,15,7,-99
41424742,-0.11541748046875,0.72894287109375,-0.10113525390625,-0.66717529296875,-12120,2469,-612,13,7,-111
41434718,-0.125244140625,0.7305908203125,-0.0924072265625,-0.66485595703125,-11860,2449,-572,12,8,-125
41444702,-0.1358642578125,0.73223876953125,-0.08245849609375,-0.6622314453125,-11594,2362,-514,10,8,-136
41454684,-0.1466064453125,0.73370361328125,-0.0721435546875,-0.6595458984375,-11321,2241,-426,9,7,-136
41464666,-0.15655517578125,0.7347412109375,-0.0623779296875,-0.65704345703125,-11072,2099,-291,7,6,-127
41474649,-0.1654052734375,0.73553466796875,-0.05352783203125,-0.65478515625,-10915,1952,-163,5,5,-114
41484630,-0.17291259765625,0.736083984375,-0.04571533203125,-0.65283203125,-10825,1824,-53,3,4,-102
41494613,-0.17974853515625,0.7364501953125,-0.03851318359375,-0.65106201171875,-10701,1703,57,3,5,-96
41504597,-0.18658447265625,0.73681640625,-0.03143310546875,-0.64910888671875,-10514,1569,147,4,6,-97
41514579,-0.19384765625,0.7371826171875,-0.0242919921875,-0.6468505859375,-10304,1448,214,6,8,-101
41524561,-0.201904296875,0.73760986328125,-0.01690673828125,-0.64410400390625,-10137,1320,283,10,10,-108
41534542,-0.21087646484375,0.73797607421875,-0.00921630859375,-0.6409912109375,-10164,1133,336,14,13,-115
41544526,-0.220458984375,0.73822021484375,-0.00189208984375,-0.63751220703125,-10353,946,339,20,14,-115
41554508,-0.229736328125,0.73834228515625,0.00408935546875,-0.63409423828125,-10581,823,298,26,15,-104
41564493,-0.23773193359375,0.73822021484375,0.00762939453125,-0.6312255859375,-10758,769,270,31,14,-79
41574474,-0.243408203125,0.7379150390625,0.00787353515625,-0.62945556640625,-10897,791,222,34,13,-44
41584456,-0.24627685546875,0.7374267578125,0.00445556640625,-0.62896728515625,-10988,872,191,36,11,-6
41594443,-0.2464599609375,0.73675537109375,-0.0023193359375,-0.629638671875,-11069,1045,150,37,10,29
41604427,-0.2442626953125,0.73602294921875,-0.01171875,-0.6312255859375,-11095,1278,129,37,9,55
41614411,-0.24029541015625,0.73516845703125,-0.0228271484375,-0.63348388671875,-11091,1525,71,35,7,74
41624392,-0.23504638671875,0.734130859375,-0.034912109375,-0.63604736328125,-11021,1787,30,32,7,85
41634370,-0.22882080078125,0.7330322265625,-0.04742431640625,-0.6387939453125,-10926,2011,-14,29,6,92
41644350,-0.22210693359375,0.7318115234375,-0.0596923828125,-0.6414794921875,-10851,2194,-33,25,5,94
41654333,-0.21514892578125,0.73052978515625,-0.071533203125,-0.6441650390625,-10827,2325,-53,21,4,92
41664315,-0.2081298828125,0.72918701171875,-0.08258056640625,-0.64666748046875,-10872,2412,-98,17,3,88
41674302,-0.2010498046875,0.727783203125,-0.09295654296875,-0.6490478515625,-10937,2427,-169,13,2,85
41684287,-0.1937255859375,0.72625732421875,-0.10296630859375,-0.6514892578125,-11026,2407,-252,10,0,88
41694266,-0.18560791015625,0.72454833984375,-0.1131591796875,-0.654052734375,-11139,2377,-340,6,-1,96
41704249,-0.17645263671875,0.7225341796875,-0.1239013671875,-0.6568603515625,-11289,2358,-403,3,-2,108
41714230,-0.16607666015625,0.72015380859375,-0.1353759765625,-0.659912109375,-11480,2327,-458,0,-3,121
41724214,-0.15423583984375,0.71734619140625,-0.14764404296875,-0.6632080078125,-11666,2289,-473,-4,-4,137
41734199,-0.14080810546875,0.71405029296875,-0.16094970703125,-0.6666259765625,-11847,2283,-488,-7,-4,154
41744184,-0.12567138671875,0.710205078125,-0.17529296875,-0.670166015625,-12017,2313,-522,-11,-4,172
41754167,-0.108642578125,0.7056884765625,-0.1907958984375,-0.67364501953125,-12137,2405,-582,-15,-4,192
41764150,-0.08990478515625,0.7005615234375,-0.2073974609375,-0.6768798828125,-12198,2551,-643,-18,-4,209
41774123,-0.0697021484375,0.69464111328125,-0.224609375,-0.6798095703125,-12208,2766,-660,-22,-2,222
41784109,-0.04864501953125,0.688232421875,-0.24188232421875,-0.6822509765625,-12202,3006,-635,-26,0,226
41794087,-0.027587890625,0.68157958984375,-0.25836181640625,-0.68408203125,-12182,3241,-627,-29,2,223
41804068,-0.00701904296875,0.6748046875,-0.27362060546875,-0.68536376953125,-12162,3483,-642,-31,3,213
41814052,0.01251220703125,0.66827392578125,-0.2874755859375,-0.68603515625,-12142,3703,-710,-33,4,200
41824034,0.03082275390625,0.6619873046875,-0.29974365234375,-0.686279296875,-12146,3895,-782,-34,4,186
41834018,0.0479736328125,0.656005859375,-0.3106689453125,-0.68621826171875,-12149,4050,-869,-34,4,174
41844001,0.064453125,0.64996337890625,-0.3209228515625,-0.68585205078125,-12126,4180,-940,-35,4,172
41853990,0.08135986328125,0.643310546875,-0.3314208984375,-0.68536376953125,-12033,4321,-960,-35,2,181
41863972,0.09954833984375,0.6356201171875,-0.34295654296875,-0.6844482421875,-11930,4475,-940,-36,2,200
41873948,0.11956787109375,0.62664794921875,-0.35595703125,-0.682861328125,-11826,4685,-898,-36,2,224
41883930,0.141357421875,0.6163330078125,-0.37017822265625,-0.6805419921875,-11672,4951,-869,-37,3,244
41893914,0.16412353515625,0.6051025390625,-0.385009765625,-0.67730712890625,-11511,5263,-876,-38,4,255
41903896,0.186767578125,0.5933837890625,-0.39947509765625,-0.67340087890625,-11264,5563,-901,-38,5,253
41913878,0.20867919921875,0.58172607421875,-0.4129638671875,-0.6689453125,-10896,5817,-938,-38,6,243
41923860,0.22918701171875,0.5704345703125,-0.4251708984375,-0.664306640625,-10499,6050,-957,-38,7,228
41933849,0.248291015625,0.5596923828125,-0.43603515625,-0.6595458984375,-10098,6239,-969,-37,8,213
41943832,0.26641845703125,0.54925537109375,-0.4459228515625,-0.6546630859375,-9683,6418,-962,-37,8,205
41953816,0.28411865234375,0.53857421875,-0.45538330078125,-0.64947509765625,-9315,6590,-944,-37,8,204
41963798,0.3018798828125,0.5274658203125,-0.46484375,-0.64385986328125,-8909,6712,-918,-37,8,209
41973779,0.32025146484375,0.51544189453125,-0.47467041015625,-0.63751220703125,-8455,6773,-884,-37,8,220
41983760,0.33935546875,0.50238037109375,-0.48504638671875,-0.63018798828125,-7940,6785,-848,-37,7,234
41993754,0.35919189453125,0.4881591796875,-0.495849609375,-0.6219482421875,-7398,6817,-806,-36,8,244
42003735,0.3792724609375,0.47314453125,-0.50665283203125,-0.61285400390625,-6930,6901,-761,-36,8,249
42013712,0.39874267578125,0.45806884765625,-0.51678466796875,-0.60345458984375,-6519,7036,-729,-37,8,243
42023692,0.4169921875,0.443359375,-0.52581787109375,-0.59417724609375,-6120,7167,-669,-37,9,229
42033677,0.4337158203125,0.4295654296875,-0.53350830078125,-0.58544921875,-5734,7239,-642,-37,8,210
42043660,0.44879150390625,0.41680908203125,-0.5399169921875,-0.57733154296875,-5298,7194,-593,-37,9,191
42053641,0.462646484375,0.4046630859375,-0.54547119140625,-0.56982421875,-4800,7030,-541,-37,8,178
42063629,0.47589111328125,0.39263916015625,-0.550537109375,-0.5623779296875,-4315,6796,-505,-37,7,174
42073607,0.48919677734375,0.38006591796875,-0.5556640625,-0.55450439453125,-3796,6562,-457,-36,6,179
42083589,0.50286865234375,0.36651611328125,-0.5611572265625,-0.5457763671875,-3318,6335,-390,-36,5,190
42093571,0.51702880859375,0.35198974609375,-0.56689453125,-0.5361328125,-2922,6136,-342,-35,4,201
42103555,0.5311279296875,0.33685302734375,-0.57275390625,-0.52569580078125,-2585,5977,-310,-34,3,205
42113537,0.544677734375,0.32171630859375,-0.57830810546875,-0.51519775390625,-2248,5822,-263,-33,2,200
42123521,0.55731201171875,0.3070068359375,-0.5833740234375,-0.50482177734375,-1904,5668,-207,-32,1,191
42133502,0.56903076171875,0.29278564453125,-0.587890625,-0.494873046875,-1555,5507,-146,-31,0,180
42143484,0.57977294921875,0.27911376953125,-0.5919189453125,-0.4853515625,-1240,5384,-78,-30,-1,170
42153462,0.58966064453125,0.26605224609375,-0.5955810546875,-0.47625732421875,-981,5311,-4,-29,-2,161
42163445,0.5985107421875,0.2537841796875,-0.59881591796875,-0.4677734375,-785,5235,54,-26,-3,150
42173424,0.6063232421875,0.2423095703125,-0.601806640625,-0.45989990234375,-606,5137,107,-25,-6,138
42183418,0.61322021484375,0.2315673828125,-0.60467529296875,-0.4525146484375,-392,4981,147,-22,-8,128
42193400,0.61944580078125,0.2210693359375,-0.6075439453125,-0.44537353515625,-109,4764,198,-20,-10,124
42203382,0.62554931640625,0.21014404296875,-0.6107177734375,-0.43768310546875,258,4509,248,-18,-13,128
42213360,0.63189697265625,0.19830322265625,-0.6142578125,-0.42901611328125,674,4278,318,-17,-15,139
42223344,0.638671875,0.18536376953125,-0.61810302734375,-0.41912841796875,1064,4112,422,-15,-16,152
42233326,0.64569091796875,0.1717529296875,-0.62200927734375,-0.4083251953125,1411,3997,510,-14,-16,160
42243306,0.65252685546875,0.15789794921875,-0.62579345703125,-0.39703369140625,1762,3910,597,-13,-16,161
42253293,0.65899658203125,0.144287109375,-0.62939453125,-0.38568115234375,2076,3795,638,-12,-16,157
42263275,0.66510009765625,0.131103515625,-0.6326904296875,-0.3743896484375,2450,3594,691,-10,-15,152
42273256,0.67095947265625,0.11798095703125,-0.6357421875,-0.36297607421875,2866,3346,752,-9,-15,150
42283238,0.6767578125,0.104736328125,-0.6385498046875,-0.35107421875,3292,3067,826,-8,-13,153
42293228,0.68280029296875,0.09112548828125,-0.64105224609375,-0.3385009765625,3708,2822,894,-7,-11,158
42303211,0.68890380859375,0.07708740234375,-0.6431884765625,-0.3251953125,4084,2567,962,-6,-9,163
42313190,0.6951904296875,0.06292724609375,-0.64483642578125,-0.31134033203125,4444,2299,1047,-6,-6,166
42323183,0.7012939453125,0.048828125,-0.64605712890625,-0.29736328125,4786,2002,1124,-5,-4,164
42333167,0.70721435546875,0.03521728515625,-0.646728515625,-0.28350830078125,5102,1647,1186,-4,-2,158
42343152,0.71282958984375,0.0220947265625,-0.64697265625,-0.27001953125,5412,1258,1254,-4,1,150
42353121,0.7181396484375,0.0096435546875,-0.64666748046875,-0.2569580078125,5746,833,1337,-3,4,142
42363102,0.72314453125,-0.00201416015625,-0.64593505859375,-0.24444580078125,6078,399,1419,-2,6,132
42373083,0.72784423828125,-0.0128173828125,-0.6448974609375,-0.23272705078125,6385,-57,1494,-2,7,120
42383063,0.73211669921875,-0.0224609375,-0.64361572265625,-0.22210693359375,6651,-515,1562,-1,9,104
42393051,0.73583984375,-0.03057861328125,-0.64208984375,-0.21295166015625,6820,-906,1617,0,10,85
42403032,0.73895263671875,-0.03717041015625,-0.6405029296875,-0.20556640625,6838,-1109,1678,-1,10,67
42413014,0.74151611328125,-0.04248046875,-0.638916015625,-0.2003173828125,6695,-1182,1779,-6,8,49
42422995,0.7432861328125,-0.04718017578125,-0.637451171875,-0.1973876953125,6543,-1181,1917,-16,4,32
42432986,0.74420166015625,-0.05169677734375,-0.63616943359375,-0.19683837890625,6469,-1273,2021,-28,-1,15
42442957,0.74432373046875,-0.056396484375,-0.63519287109375,-0.19842529296875,6532,-1520,2037,-39,-5,-1
42452938,0.74371337890625,-0.0609130859375,-0.6343994140625,-0.2017822265625,6694,-1896,1989,-45,-7,-16
42462921,0.74261474609375,-0.06475830078125,-0.6337890625,-0.20648193359375,6880,-2312,1889,-47,-8,-32
42472904,0.7410888671875,-0.06744384765625,-0.63330078125,-0.21246337890625,7064,-2663,1804,-45,-7,-48
42482888,0.7391357421875,-0.06854248046875,-0.63299560546875,-0.21978759765625,7169,-2894,1705,-42,-6,-66
42492871,0.73675537109375,-0.06805419921875,-0.6328125,-0.22833251953125,7212,-3015,1583,-39,-6,-81
42502852,0.7340087890625,-0.06610107421875,-0.63275146484375,-0.2376708984375,7203,-3060,1462,-35,-4,-93
42512835,0.73095703125,-0.06304931640625,-0.63275146484375,-0.24755859375,7171,-3028,1369,-31,-4,-101
42522817,0.72772216796875,-0.05914306640625,-0.6328125,-0.25775146484375,7127,-2942,1298,-28,-3,-106
42532803,0.724365234375,-0.05450439453125,-0.6328125,-0.26800537109375,7037,-2806,1248,-23,-2,-110
42542785,0.72088623046875,-0.049072265625,-0.63287353515625,-0.2783203125,6910,-2643,1214,-20,-1,-115
42552765,0.71710205078125,-0.042724609375,-0.63287353515625,-0.288818359375,6741,-2467,1168,-15,-1,-121
42562762,0.71295166015625,-0.035400390625,-0.63299560546875,-0.29962158203125,6546,-2255,1107,-11,0,-128
42572740,0.70843505859375,-0.02691650390625,-0.63311767578125,-0.31072998046875,6315,-2024,1065,-6,1,-136
42582712,0.7034912109375,-0.01715087890625,-0.6331787109375,-0.32232666015625,6077,-1764,1038,-2,2,-146
42592698,0.69793701171875,-0.006103515625,-0.6331787109375,-0.33453369140625,5805,-1461,997,3,3,-157
42602680,0.6917724609375,0.0064697265625,-0.633056640625,-0.347412109375,5526,-1105,987,6,4,-169
42612661,0.684814453125,0.0205078125,-0.63262939453125,-0.36114501953125,5195,-703,953,9,6,-183
42622643,0.67694091796875,0.03607177734375,-0.6319580078125,-0.37567138671875,4797,-303,873,13,7,-195
42632629,0.668212890625,0.05291748046875,-0.63092041015625,-0.39068603515625,4397,80,794,16,8,-205
42642610,0.65875244140625,0.070556640625,-0.62957763671875,-0.40582275390625,4024,434,708,19,9,-210
42652591,0.64898681640625,0.08856201171875,-0.62786865234375,-0.42047119140625,3699,772,645,22,11,-208
42662573,0.63909912109375,0.1065673828125,-0.625732421875,-0.43438720703125,3337,1162,622,24,12,-203
42672557,0.62896728515625,0.1246337890625,-0.62322998046875,-0.44769287109375,2911,1597,566,25,14,-200
42682539,0.6182861328125,0.14312744140625,-0.6202392578125,-0.46099853515625,2419,2077,527,26,15,-204
42692522,0.6063232421875,0.162841796875,-0.61663818359375,-0.4749755859375,1789,2560,455,27,14,-219
42702504,0.59234619140625,0.1844482421875,-0.6121826171875,-0.49029541015625,1083,3001,330,29,13,-242
42712488,0.57611083984375,0.20770263671875,-0.60687255859375,-0.50665283203125,484,3356,191,31,11,-262
42722470,0.5584716796875,0.2313232421875,-0.60101318359375,-0.52288818359375,71,3631,63,33,10,-266
42732453,0.5406494140625,0.25396728515625,-0.59490966796875,-0.53790283203125,-324,3952,10,33,7,-254
42742432,0.5230712890625,0.27520751953125,-0.58868408203125,-0.551513671875,-909,4411,-39,33,5,-237
42752425,0.50543212890625,0.29547119140625,-0.582275390625,-0.5640869140625,-1520,4944,-43,32,3,-227
42762407,0.48748779296875,0.3150634765625,-0.5755615234375,-0.5760498046875,-2025,5418,-43,32,1,-225
42772392,0.46875,0.33453369140625,-0.56817626953125,-0.58782958984375,-2409,5745,-22,32,-1,-232
42782363,0.44873046875,0.35430908203125,-0.559814453125,-0.59979248046875,-2819,6026,-3,32,-1,-245
42792347,0.4268798828125,0.37493896484375,-0.5501708984375,-0.61199951171875,-3320,6298,-50,32,-2,-260
42802329,0.4039306640625,0.39556884765625,-0.53961181640625,-0.6239013671875,-3717,6537,-66,32,-3,-266
42812311,0.38079833984375,0.41522216796875,-0.528564453125,-0.63494873046875,-4227,6822,-71,31,-4,-259
42822295,0.35784912109375,0.433837890625,-0.51715087890625,-0.64520263671875,-4746,7151,-37,29,-5,-251
42832277,0.33551025390625,0.45111083984375,-0.5054931640625,-0.654541015625,-5112,7340,33,26,-5,-242
42842261,0.31365966796875,0.46722412109375,-0.49365234375,-0.66302490234375,-5404,7403,91,24,-5,-236
42852240,0.2919921875,0.48272705078125,-0.4813232421875,-0.67083740234375,-5574,7343,162,22,-3,-236
42862232,0.27001953125,0.49810791015625,-0.4681396484375,-0.67816162109375,-5785,7227,194,21,-1,-242
42872218,0.24737548828125,0.5135498046875,-0.4539794921875,-0.684814453125,-6033,7130,207,21,2,-248
42882199,0.22503662109375,0.5284423828125,-0.43939208984375,-0.690673828125,-6353,7004,242,19,4,-242
42892187,0.203857421875,0.5421142578125,-0.425048828125,-0.69561767578125,-6844,6851,270,17,5,-226
42902169,0.18408203125,0.5545654296875,-0.41119384765625,-0.69964599609375,-7471,6750,274,14,6,-209
42912152,0.165283203125,0.56597900390625,-0.3975830078125,-0.70306396484375,-8101,6607,267,12,6,-200
42922123,0.146728515625,0.576904296875,-0.38385009765625,-0.7059326171875,-8648,6386,189,11,6,-198
42932106,0.12786865234375,0.5875244140625,-0.36956787109375,-0.70843505859375,-9009,6117,131,10,5,-203
42942089,0.108642578125,0.59771728515625,-0.35491943359375,-0.7105712890625,-9249,5863,113,11,4,-206
42952071,0.089599609375,0.60736083984375,-0.3402099609375,-0.7122802734375,-9382,5638,135,10,4,-204
42962053,0.07135009765625,0.61614990234375,-0.32586669921875,-0.7135009765625,-9494,5413,172,9,4,-195
42972035,0.0543212890625,0.6241455078125,-0.3121337890625,-0.71417236328125,-9642,5193,222,9,6,-183
42982019,0.03839111328125,0.63153076171875,-0.299072265625,-0.71435546875,-9781,5037,319,7,8,-173
42992001,0.0235595703125,0.6383056640625,-0.28643798828125,-0.714111328125,-9754,4782,338,6,10,-165
43001989,0.00927734375,0.6448974609375,-0.2740478515625,-0.71337890625,-9793,4530,351,5,12,-162
43011971,-0.0050048828125,0.65130615234375,-0.26123046875,-0.71240234375,-9892,4242,319,3,12,-166
43021951,-0.0201416015625,0.65789794921875,-0.2474365234375,-0.7110595703125,-10206,3954,274,2,12,-177
43031933,-0.03662109375,0.66461181640625,-0.2322998046875,-0.709228515625,-10487,3622,206,3,12,-194
43041917,-0.05413818359375,0.6712646484375,-0.216064453125,-0.70697021484375,-10658,3277,180,3,12,-205
43051898,-0.0718994140625,0.67742919921875,-0.1995849609375,-0.704345703125,-10604,2899,170,4,11,-204
43061881,-0.08856201171875,0.682861328125,-0.1839599609375,-0.70147705078125,-10316,2521,144,4,10,-190
43071862,-0.103515625,0.6873779296875,-0.16986083984375,-0.69854736328125,-10081,2185,193,3,10,-170
43081846,-0.11651611328125,0.69110107421875,-0.1573486328125,-0.69573974609375,-10008,1748,213,2,9,-149
43091826,-0.12823486328125,0.6943359375,-0.14593505859375,-0.6929931640625,-10136,1362,217,1,9,-137
43101807,-0.1395263671875,0.697265625,-0.13470458984375,-0.69012451171875,-10398,985,195,1,8,-135
43111788,-0.15118408203125,0.7000732421875,-0.1231689453125,-0.68695068359375,-10704,593,148,1,8,-141
43121778,-0.16351318359375,0.7027587890625,-0.11083984375,-0.6834716796875,-10962,178,32,2,7,-150
43131765,-0.17645263671875,0.705322265625,-0.0980224609375,-0.6795654296875,-11132,-216,-79,3,6,-155
43141748,-0.18963623046875,0.70751953125,-0.08489990234375,-0.6754150390625,-11252,-597,-150,3,5,-159
43151730,-0.20294189453125,0.70941162109375,-0.0716552734375,-0.671142578125,-11347,-964,-189,4,4,-160
43161707,-0.21624755859375,0.71087646484375,-0.058349609375,-0.66668701171875,-11468,-1328,-235,4,3,-161
43171691,-0.2294921875,0.7120361328125,-0.0450439453125,-0.662109375,-11650,-1631,-287,4,2,-162
43181670,-0.24273681640625,0.71282958984375,-0.0316162109375,-0.6572265625,-11842,-1856,-392,5,1,-165
43191655,-0.25604248046875,0.71337890625,-0.01800537109375,-0.65203857421875,-11933,-2013,-502,5,0,-169
43201639,-0.269287109375,0.713623046875,-0.0045166015625,-0.646728515625,-11861,-2082,-553,6,-1,-169
43211618,-0.28192138671875,0.71343994140625,0.00848388671875,-0.6414794921875,-11629,-2112,-530,6,-1,-162
43221600,-0.29339599609375,0.7130126953125,0.02032470703125,-0.636474609375,-11269,-2121,-444,5,-1,-148
43231583,-0.30322265625,0.71234130859375,0.03057861328125,-0.6322021484375,-10830,-2128,-286,4,-1,-127
43241567,-0.3111572265625,0.711669921875,0.03887939453125,-0.62872314453125,-10400,-2115,-110,3,-1,-104
43251542,-0.317138671875,0.7109375,0.04541015625,-0.62603759765625,-10042,-2120,45,0,-1,-82
43261536,-0.321533203125,0.71044921875,0.05047607421875,-0.62396240234375,-9823,-2140,164,-2,0,-65
43271510,-0.32470703125,0.7100830078125,0.0545654296875,-0.62237548828125,-9723,-2146,259,-4,0,-55
43281492,-0.3271484375,0.7099609375,0.0582275390625,-0.62091064453125,-9657,-2111,325,-7,1,-50
43291475,-0.3292236328125,0.7099609375,0.061767578125,-0.6195068359375,-9589,-2010,392,-9,2,-50
43301458,-0.3314208984375,0.71014404296875,0.06549072265625,-0.61773681640625,-9517,-1904,460,-10,4,-54
43311443,-0.33392333984375,0.71038818359375,0.06951904296875,-0.61566162109375,-9533,-1809,534,-9,8,-58
43321431,-0.336669921875,0.7108154296875,0.0733642578125,-0.6131591796875,-9607,-1720,602,-8,11,-60
43331412,-0.33941650390625,0.71142578125,0.07659912109375,-0.610595703125,-9647,-1655,670,-5,15,-56
43341393,-0.3416748046875,0.71221923828125,0.07843017578125,-0.608154296875,-9740,-1620,716,-1,19,-43
43351375,-0.3428955078125,0.7132568359375,0.07830810546875,-0.60626220703125,-9947,-1629,758,2,22,-24
43361357,-0.3427734375,0.714599609375,0.075927734375,-0.6051025390625,-10223,-1603,759,5,24,-2
43371337,-0.34112548828125,0.71612548828125,0.07122802734375,-0.604736328125,-10484,-1538,749,7,26,21
43381319,-0.33770751953125,0.7178955078125,0.06414794921875,-0.6053466796875,-10685,-1351,723,9,27,45
43391302,-0.33251953125,0.7198486328125,0.05474853515625,-0.60687255859375,-10782,-1102,703,9,28,70
43401287,-0.32537841796875,0.721923828125,0.0430908203125,-0.60919189453125,-10769,-798,686,10,28,95
43411268,-0.31634521484375,0.7239990234375,0.02935791015625,-0.6123046875,-10728,-548,676,9,30,119
43421249,-0.30572509765625,0.72601318359375,0.013916015625,-0.6158447265625,-10735,-367,662,8,31,139
43431237,-0.2938232421875,0.7279052734375,-0.00274658203125,-0.61956787109375,-10815,-255,594,8,32,152
43441223,-0.28118896484375,0.7294921875,-0.02008056640625,-0.6231689453125,-10997,-155,478,8,32,159
43451208,-0.268310546875,0.7308349609375,-0.0374755859375,-0.62646484375,-11237,-68,309,8,32,159
43461188,-0.2554931640625,0.7318115234375,-0.05462646484375,-0.62939453125,-11550,37,148,8,31,157
43471178,-0.242919921875,0.732421875,-0.071533203125,-0.63201904296875,-11859,137,-14,9,30,155
43481167,-0.2301025390625,0.73248291015625,-0.08843994140625,-0.63458251953125,-12149,166,-155,9,27,160
43491138,-0.21661376953125,0.73187255859375,-0.10595703125,-0.6373291015625,-12437,179,-287,9,24,172
43501113,-0.201904296875,0.73046875,-0.12457275390625,-0.64044189453125,-12677,193,-410,9,21,190
43511097,-0.18572998046875,0.72808837890625,-0.14453125,-0.64385986328125,-12867,255,-536,8,18,210
43521080,-0.1680908203125,0.72467041015625,-0.1656494140625,-0.64739990234375,-13030,349,-679,7,14,226
43531063,-0.1495361328125,0.7203369140625,-0.1873779296875,-0.65087890625,-13193,540,-830,5,11,236
43541048,-0.13055419921875,0.7152099609375,-0.20892333984375,-0.654052734375,-13312,785,-963,4,9,238
43551026,-0.111572265625,0.70947265625,-0.229736328125,-0.6568603515625,-13350,1081,-1073,1,7,234
43561011,-0.0928955078125,0.7032470703125,-0.24957275390625,-0.65924072265625,-13323,1399,-1136,-2,6,229
43570991,-0.074462890625,0.69659423828125,-0.268310546875,-0.6612548828125,-13199,1704,-1159,-5,5,223
43580978,-0.05615234375,0.68951416015625,-0.2862548828125,-0.6629638671875,-13028,2008,-1193,-8,3,221
43590955,-0.0377197265625,0.6820068359375,-0.30352783203125,-0.66436767578125,-12856,2310,-1215,-12,3,220
43600939,-0.01898193359375,0.67401123046875,-0.3203125,-0.6654052734375,-12692,2615,-1226,-15,3,222
43610921,0.00018310546875,0.66546630859375,-0.33685302734375,-0.6661376953125,-12551,2900,-1242,-18,3,227
43620903,0.02020263671875,0.65606689453125,-0.3533935546875,-0.66656494140625,-12426,3185,-1255,-22,2,237
43630886,0.04132080078125,0.645751953125,-0.37030029296875,-0.66650390625,-12292,3488,-1309,-25,2,250
43640871,0.0635986328125,0.63427734375,-0.3876953125,-0.6658935546875,-12145,3801,-1365,-27,2,264
43650851,0.08685302734375,0.62164306640625,-0.4052734375,-0.66461181640625,-11941,4154,-1397,-30,2,273
43660833,0.1104736328125,0.6083984375,-0.42242431640625,-0.6627197265625,-11681,4520,-1430,-33,4,275
43670816,0.1337890625,0.5948486328125,-0.43853759765625,-0.6602783203125,-11349,4892,-1451,-36,4,268
43680800,0.156005859375,0.58160400390625,-0.453125,-0.6573486328125,-10915,5227,-1440,-37,6,252
43690782,0.17694091796875,0.56884765625,-0.4658203125,-0.654296875,-10416,5511,-1413,-39,7,234
43700761,0.1964111328125,0.556884765625,-0.476806640625,-0.65118408203125,-9955,5763,-1407,-41,8,215
43710753,0.2144775390625,0.545654296875,-0.48602294921875,-0.64813232421875,-9580,5976,-1394,-43,9,198
43720734,0.2313232421875,0.53515625,-0.49371337890625,-0.64520263671875,-9258,6154,-1404,-45,10,183
43730712,0.2471923828125,0.525146484375,-0.50042724609375,-0.64239501953125,-8973,6270,-1418,-46,10,174
43740694,0.2626953125,0.51513671875,-0.50665283203125,-0.6395263671875,-8652,6309,-1413,-47,9,173
43750677,0.27838134765625,0.5045166015625,-0.5128173828125,-0.63641357421875,-8279,6315,-1393,-48,8,179
43760661,0.294677734375,0.49298095703125,-0.51934814453125,-0.6328125,-7888,6320,-1381,-49,7,188
43770643,0.31146240234375,0.4805908203125,-0.526123046875,-0.62872314453125,-7557,6347,-1382,-50,5,196
43780629,0.32855224609375,0.46728515625,-0.5330810546875,-0.62408447265625,-7209,6364,-1350,-51,4,204
43790611,0.3463134765625,0.45306396484375,-0.54022216796875,-0.61883544921875,-6781,6353,-1285,-52,4,214
43800595,0.364501953125,0.43780517578125,-0.54754638671875,-0.6129150390625,-6331,6335,-1222,-52,3,223
43810576,0.38299560546875,0.421875,-0.5548095703125,-0.60626220703125,-5880,6317,-1143,-53,4,226
43820557,0.40118408203125,0.40570068359375,-0.5616455078125,-0.59918212890625,-5457,6324,-1078,-52,4,224
43830542,0.41851806640625,0.389892578125,-0.56768798828125,-0.59210205078125,-5081,6315,-1009,-52,4,215
43840524,0.434814453125,0.3746337890625,-0.57293701171875,-0.5850830078125,-4764,6332,-968,-51,5,204
43850508,0.45001220703125,0.35986328125,-0.57763671875,-0.5782470703125,-4483,6342,-922,-50,4,196
43860490,0.4647216796875,0.34515380859375,-0.58197021484375,-0.57122802734375,-4184,6322,-850,-48,3,195
43870473,0.4794921875,0.329833984375,-0.58636474609375,-0.5634765625,-3815,6263,-781,-47,2,202
43880455,0.49456787109375,0.31353759765625,-0.59112548828125,-0.5546875,-3383,6187,-686,-46,1,212
43890443,0.510009765625,0.2962646484375,-0.595947265625,-0.54498291015625,-2886,6107,-547,-44,0,220
43900427,0.52520751953125,0.278564453125,-0.6007080078125,-0.5345458984375,-2375,5993,-437,-42,0,220
43910409,0.53973388671875,0.260986328125,-0.60498046875,-0.52398681640625,-1864,5856,-308,-41,-1,213
43920389,0.55322265625,0.244140625,-0.60870361328125,-0.513671875,-1344,5669,-187,-38,-1,201
43930366,0.56573486328125,0.22796630859375,-0.6119384765625,-0.5035400390625,-771,5461,-57,-36,-1,190
43940354,0.57745361328125,0.2122802734375,-0.61468505859375,-0.49359130859375,-219,5222,94,-34,0,181
43950333,0.588623046875,0.19708251953125,-0.6170654296875,-0.483642578125,319,5000,245,-33,0,176
43960316,0.599365234375,0.18212890625,-0.619140625,-0.47357177734375,839,4728,382,-31,1,172
43970299,0.60986328125,0.167236328125,-0.6209716796875,-0.46319580078125,1346,4426,512,-29,2,170
43980287,0.6199951171875,0.15264892578125,-0.62249755859375,-0.4525146484375,1855,4118,655,-27,3,166
43990262,0.6298828125,0.13836669921875,-0.6236572265625,-0.4417724609375,2300,3817,799,-24,4,162
44000249,0.63922119140625,0.12469482421875,-0.62451171875,-0.43109130859375,2631,3568,913,-22,6,156
44010239,0.64801025390625,0.11187744140625,-0.625,-0.420654296875,2875,3342,987,-19,7,149
44020222,0.65655517578125,0.099609375,-0.62518310546875,-0.4100341796875,3122,3124,1061,-17,9,146
44030206,0.66510009765625,0.08721923828125,-0.62530517578125,-0.39886474609375,3376,2914,1139,-15,10,150
44042989,0.67376708984375,0.07452392578125,-0.62518310546875,-0.38677978515625,3588,2680,1193,-12,11,159
44050177,0.6827392578125,0.06121826171875,-0.625,-0.37347412109375,3832,2441,1245,-11,12,169
44060158,0.6920166015625,0.047119140625,-0.6246337890625,-0.35882568359375,4007,2221,1306,-8,13,180
44070134,0.70123291015625,0.03271484375,-0.62396240234375,-0.34332275390625,4130,2023,1355,-6,13,186
44080111,0.71026611328125,0.01812744140625,-0.623046875,-0.32720947265625,4220,1803,1390,-4,13,189
44090094,0.718994140625,0.003662109375,-0.62176513671875,-0.31060791015625,4327,1559,1412,-3,14,190
44100073,0.727294921875,-0.01068115234375,-0.6201171875,-0.2938232421875,4498,1300,1467,-2,14,188
44110054,0.7352294921875,-0.02471923828125,-0.6181640625,-0.2769775390625,4744,988,1543,-1,15,184
44120037,0.74261474609375,-0.03851318359375,-0.61578369140625,-0.2603759765625,5036,628,1628,-1,15,178
44130019,0.74945068359375,-0.051513671875,-0.61309814453125,-0.24444580078125,5292,235,1689,-1,17,167
44140002,0.755615234375,-0.0635986328125,-0.610107421875,-0.2296142578125,5409,-100,1734,-1,18,152
44149989,0.760986328125,-0.0743408203125,-0.60699462890625,-0.21673583984375,5375,-241,1803,-5,17,133
44159980,0.7652587890625,-0.0838623046875,-0.60382080078125,-0.20684814453125,5243,-216,1946,-15,14,107
44169955,0.76806640625,-0.09228515625,-0.600830078125,-0.2012939453125,5108,-153,2104,-33,8,72
44179937,0.769287109375,-0.10009765625,-0.598388671875,-0.20050048828125,5069,-308,2163,-52,2,35
44189918,0.7689208984375,-0.10748291015625,-0.59637451171875,-0.2037353515625,5164,-747,2092,-68,-3,1
44199894,0.767333984375,-0.1142578125,-0.594970703125,-0.2100830078125,5367,-1352,1972,-77,-6,-26
44209874,0.76495361328125,-0.1201171875,-0.5938720703125,-0.218505859375,5655,-1983,1848,-79,-7,-48
44219856,0.76202392578125,-0.12481689453125,-0.593017578125,-0.228271484375,5963,-2549,1743,-77,-7,-64
44229839,0.75860595703125,-0.1282958984375,-0.5924072265625,-0.239013671875,6270,-3003,1634,-73,-7,-78
44239822,0.75482177734375,-0.13055419921875,-0.592041015625,-0.25030517578125,6555,-3344,1559,-68,-6,-88
44249805,0.75091552734375,-0.13165283203125,-0.591796875,-0.26190185546875,6823,-3599,1509,-62,-4,-95
44259787,0.74700927734375,-0.1319580078125,-0.5914306640625,-0.27337646484375,7071,-3786,1484,-56,-3,-98
44269778,0.7432861328125,-0.13153076171875,-0.59112548828125,-0.28436279296875,7287,-3886,1451,-49,0,-98
44279762,0.73974609375,-0.13031005859375,-0.5906982421875,-0.29486083984375,7466,-3917,1453,-42,3,-97
44289746,0.7364501953125,-0.12841796875,-0.59014892578125,-0.3048095703125,7603,-3882,1454,-35,6,-97
44299729,0.7333984375,-0.12567138671875,-0.58953857421875,-0.3143310546875,7693,-3801,1465,-28,9,-98
44309703,0.7305908203125,-0.1219482421875,-0.58880615234375,-0.3236083984375,7731,-3682,1489,-21,13,-101
44319687,0.7279052734375,-0.1170654296875,-0.58795166015625,-0.33282470703125,7721,-3526,1498,-14,18,-105
44329673,0.725341796875,-0.1109619140625,-0.58697509765625,-0.34210205078125,7638,-3336,1504,-8,22,-111
44339649,0.72271728515625,-0.10345458984375,-0.5859375,-0.3516845703125,7496,-3137,1504,-1,26,-119
44349636,0.71990966796875,-0.09442138671875,-0.5848388671875,-0.36163330078125,7276,-2897,1494,6,31,-129
44359617,0.71673583984375,-0.08380126953125,-0.58367919921875,-0.372314453125,7003,-2635,1471,11,35,-141
44369598,0.7130126953125,-0.0714111328125,-0.58245849609375,-0.38372802734375,6668,-2317,1464,16,38,-154
44379581,0.70867919921875,-0.05743408203125,-0.58111572265625,-0.39593505859375,6347,-1975,1441,21,41,-167
44389564,0.7037353515625,-0.0419921875,-0.57952880859375,-0.40887451171875,5973,-1607,1434,24,44,-178
44399547,0.69818115234375,-0.0252685546875,-0.57769775390625,-0.42218017578125,5536,-1247,1412,28,46,-186
44409536,0.69195556640625,-0.007568359375,-0.5755615234375,-0.43572998046875,5039,-906,1354,31,48,-192
44419511,0.68511962890625,0.01104736328125,-0.57318115234375,-0.44940185546875,4489,-569,1247,35,49,-198
44429494,0.677490234375,0.03057861328125,-0.57061767578125,-0.463134765625,3902,-282,1097,38,50,-204
44439478,0.6690673828125,0.05084228515625,-0.56781005859375,-0.4769287109375,3348,25,965,40,50,-209
44449460,0.6597900390625,0.07177734375,-0.564697265625,-0.49053955078125,2788,387,852,43,50,-212
44459443,0.64971923828125,0.09332275390625,-0.56121826171875,-0.504150390625,2202,834,778,44,50,-216
44469430,0.63873291015625,0.115478515625,-0.557373046875,-0.51776123046875,1568,1335,714,46,50,-219
44479413,0.62689208984375,0.13812255859375,-0.5531005859375,-0.5311279296875,928,1804,642,48,49,-221
44489397,0.6143798828125,0.1607666015625,-0.5484619140625,-0.5439453125,350,2210,561,49,48,-219
44499372,0.6015625,0.18304443359375,-0.5435791015625,-0.55596923828125,-147,2530,464,49,47,-212
44509355,0.5887451171875,0.20440673828125,-0.5386962890625,-0.56695556640625,-636,2862,390,49,44,-203
44519344,0.57562255859375,0.2252197265625,-0.53369140625,-0.5771484375,-1269,3302,328,49,41,-195
44529323,0.56158447265625,0.24603271484375,-0.52850341796875,-0.587158203125,-2030,3832,256,49,37,-198
44539306,0.54595947265625,0.267333984375,-0.5228271484375,-0.59759521484375,-2771,4335,182,51,33,-208
44549287,0.5286865234375,0.28912353515625,-0.51666259765625,-0.60821533203125,-3307,4702,168,53,30,-220
44559271,0.51043701171875,0.3106689453125,-0.51019287109375,-0.61859130859375,-3660,4946,152,54,27,-222
44569252,0.4918212890625,0.33148193359375,-0.503662109375,-0.628173828125,-3992,5161,90,55,24,-217
44579233,0.47314453125,0.35125732421875,-0.49725341796875,-0.63677978515625,-4406,5451,42,55,20,-207
44589222,0.454345703125,0.37005615234375,-0.4908447265625,-0.644775390625,-5023,5911,10,54,16,-201
44599207,0.4346923828125,0.3885498046875,-0.4840087890625,-0.65252685546875,-5731,6380,-39,53,12,-204
44609185,0.4136962890625,0.40692138671875,-0.47662353515625,-0.660400390625,-6230,6710,-67,54,8,-214
44619177,0.39166259765625,0.4249267578125,-0.46868896484375,-0.6680908203125,-6433,6817,-100,55,5,-221
44629161,0.36932373046875,0.44219970703125,-0.46075439453125,-0.67510986328125,-6362,6773,-106,57,4,-220
44639136,0.34771728515625,0.458251953125,-0.453125,-0.6810302734375,-6197,6679,-51,57,4,-209
44649113,0.327392578125,0.4730224609375,-0.44586181640625,-0.685791015625,-6230,6677,8,57,6,-193
44659096,0.30755615234375,0.48712158203125,-0.4385986328125,-0.68975830078125,-6624,6865,33,55,7,-187
44669078,0.28717041015625,0.50140380859375,-0.430419921875,-0.6934814453125,-7201,7097,43,53,8,-196
44679060,0.2652587890625,0.51617431640625,-0.420654296875,-0.6973876953125,-7689,7207,42,51,9,-215
44689044,0.24176025390625,0.53131103515625,-0.4091796875,-0.7012939453125,-7953,7136,10,49,10,-234
44699025,0.21746826171875,0.5465087890625,-0.39654541015625,-0.704833984375,-8103,6970,-32,48,12,-242
44709008,0.19329833984375,0.56109619140625,-0.3834228515625,-0.70770263671875,-8312,6818,-73,46,13,-239
44718991,0.169921875,0.57489013671875,-0.37030029296875,-0.7095947265625,-8665,6707,-89,44,16,-231
44728979,0.1474609375,0.58795166015625,-0.35699462890625,-0.710693359375,-9242,6625,-106,41,18,-223
44738955,0.1256103515625,0.60052490234375,-0.34356689453125,-0.7110595703125,-9853,6533,-153,38,21,-219
44748938,0.10418701171875,0.6126708984375,-0.32965087890625,-0.710693359375,-10336,6365,-237,35,24,-218
44758921,0.08331298828125,0.62432861328125,-0.3155517578125,-0.709716796875,-10709,6101,-339,32,25,-214
44768903,0.063232421875,0.6353759765625,-0.3013916015625,-0.7081298828125,-11101,5743,-448,29,27,-208
44778887,0.0439453125,0.64569091796875,-0.28729248046875,-0.7061767578125,-11627,5557,-519,26,27,-200
44788871,0.0257568359375,0.65521240234375,-0.27362060546875,-0.70367431640625,-12161,5433,-618,24,27,-193
44798852,0.00848388671875,0.66412353515625,-0.26031494140625,-0.7008056640625,-12586,5279,-710,22,28,-185
44808833,-0.00750732421875,0.67218017578125,-0.2476806640625,-0.69769287109375,-12786,5078,-764,20,27,-172
44818817,-0.021728515625,0.6793212890625,-0.2362060546875,-0.69439697265625,-12736,4866,-755,17,27,-156
44828798,-0.03411865234375,0.68560791015625,-0.2259521484375,-0.691162109375,-12567,4672,-689,14,27,-139
44838783,-0.04498291015625,0.69122314453125,-0.21649169921875,-0.68798828125,-12416,4513,-606,11,27,-128
44848760,-0.05511474609375,0.6964111328125,-0.20721435546875,-0.68487548828125,-12297,4381,-539,8,26,-126
44858752,-0.06512451171875,0.701416015625,-0.197509765625,-0.6817626953125,-12225,4250,-492,5,25,-129
44868736,-0.07550048828125,0.706298828125,-0.18701171875,-0.6785888671875,-12121,4107,-454,3,24,-137
44878711,-0.08624267578125,0.7110595703125,-0.17578125,-0.67535400390625,-11950,3955,-411,2,22,-144
44888690,-0.0972900390625,0.71551513671875,-0.16400146484375,-0.67205810546875,-11768,3779,-332,1,22,-149
44898674,-0.1082763671875,0.7196044921875,-0.15191650390625,-0.6688232421875,-11578,3596,-259,-1,19,-149
44908655,-0.11907958984375,0.72332763671875,-0.1396484375,-0.6656494140625,-11410,3401,-162,-2,17,-150
44918638,-0.12982177734375,0.7266845703125,-0.1270751953125,-0.66253662109375,-11258,3191,-75,-4,16,-152
44928621,-0.14068603515625,0.72979736328125,-0.114013671875,-0.65924072265625,-11156,2940,-4,-7,15,-156
44938603,-0.15185546875,0.73272705078125,-0.10009765625,-0.65576171875,-11083,2667,9,-9,14,-164
44948585,-0.1636962890625,0.7354736328125,-0.08502197265625,-0.6519775390625,-11127,2355,3,-11,12,-176
44958570,-0.17620849609375,0.73797607421875,-0.06878662109375,-0.6478271484375,-11254,1982,-19,-12,11,-186
44968550,-0.18914794921875,0.739990234375,-0.0518798828125,-0.64337158203125,-11303,1570,2,-12,9,-191
44978536,-0.201904296875,0.74151611328125,-0.03509521484375,-0.638916015625,-11266,1182,22,-12,7,-187
44988518,-0.2139892578125,0.742431640625,-0.01910400390625,-0.63458251953125,-11136,799,67,-11,5,-177
44998500,-0.22528076171875,0.74273681640625,-0.00439453125,-0.6304931640625,-10934,422,142,-8,3,-164
45008483,-0.23602294921875,0.74261474609375,0.0087890625,-0.626708984375,-10703,121,263,-3,3,-151
45018468,-0.2462158203125,0.74212646484375,0.02044677734375,-0.623046875,-10468,-120,354,3,4,-141
45028447,-0.25628662109375,0.74151611328125,0.03070068359375,-0.61932373046875,-10301,-342,423,9,6,-133
45038428,-0.26617431640625,0.74078369140625,0.03973388671875,-0.615478515625,-10201,-560,478,14,10,-125
45048418,-0.275634765625,0.74005126953125,0.0472412109375,-0.61163330078125,-10148,-815,565,18,13,-112
45058403,-0.2840576171875,0.7393798828125,0.0528564453125,-0.608154296875,-10073,-1066,641,21,15,-92
45068385,-0.29052734375,0.7388916015625,0.0556640625,-0.60540771484375,-9962,-1305,651,23,17,-61
45078363,-0.29461669921875,0.73870849609375,0.0552978515625,-0.60369873046875,-9816,-1517,597,24,17,-25
