subject,Joshua Spiesman
arm,left
label,3
hz,100.17558443841588
time,5.051131

timestamp_us,q0,q1,q2,q3,ax,ay,az,gx,gy,gz
144942518,0.743896484375,-0.60601806640625,0.28125,-0.013916015625,-3084,-6974,814,-3,-2,0
144952501,0.74371337890625,-0.6063232421875,0.28118896484375,-0.01361083984375,-3092,-6978,824,-4,-2,0
144962484,0.743408203125,-0.60675048828125,0.2811279296875,-0.0133056640625,-3109,-7028,826,-5,-2,0
144972463,0.7430419921875,-0.607177734375,0.28106689453125,-0.012939453125,-3137,-7119,838,-6,-2,1
144982449,0.74267578125,-0.60772705078125,0.28094482421875,-0.01251220703125,-3162,-7240,858,-6,-3,0
144992434,0.74237060546875,-0.60821533203125,0.28070068359375,-0.0120849609375,-3196,-7370,898,-7,-3,0
145002421,0.74212646484375,-0.60870361328125,0.28033447265625,-0.01171875,-3241,-7512,950,-6,-4,-1
145012397,0.74188232421875,-0.6092529296875,0.27972412109375,-0.0113525390625,-3272,-7693,984,-6,-5,-2
145022372,0.74176025390625,-0.60980224609375,0.27886962890625,-0.01116943359375,-3275,-7893,1009,-6,-7,-4
145032357,0.74169921875,-0.6104736328125,0.277587890625,-0.01116943359375,-3229,-8118,1033,-5,-8,-7
145042339,0.7418212890625,-0.61114501953125,0.2757568359375,-0.011474609375,-3131,-8352,1112,-3,-10,-11
145052321,0.74212646484375,-0.61181640625,0.2734375,-0.0123291015625,-3045,-8613,1207,-2,-10,-16
145062307,0.74261474609375,-0.61248779296875,0.27056884765625,-0.01373291015625,-2987,-8921,1344,0,-11,-22
145072293,0.74322509765625,-0.6131591796875,0.26708984375,-0.0157470703125,-2942,-9232,1475,2,-12,-29
145082271,0.74407958984375,-0.6138916015625,0.262939453125,-0.0185546875,-2874,-9541,1551,5,-12,-37
145092256,0.74505615234375,-0.61468505859375,0.25811767578125,-0.02227783203125,-2723,-9816,1596,7,-12,-46
145102244,0.74615478515625,-0.615478515625,0.25238037109375,-0.02716064453125,-2470,-10032,1656,11,-12,-56
145112226,0.7474365234375,-0.61627197265625,0.2457275390625,-0.0333251953125,-2146,-10157,1728,14,-11,-67
145122210,0.74884033203125,-0.61712646484375,0.2381591796875,-0.04083251953125,-1807,-10224,1827,17,-10,-80
145132191,0.75030517578125,-0.61785888671875,0.2296142578125,-0.04986572265625,-1444,-10287,1951,20,-7,-93
145142182,0.75177001953125,-0.61859130859375,0.2203369140625,-0.0601806640625,-1104,-10358,2069,23,-5,-104
145152164,0.7530517578125,-0.61920166015625,0.210693359375,-0.071533203125,-804,-10417,2161,25,-2,-111
145162145,0.75408935546875,-0.61968994140625,0.2010498046875,-0.08319091796875,-536,-10473,2182,25,0,-112
145172117,0.7548828125,-0.61993408203125,0.19189453125,-0.0946044921875,-320,-10557,2163,25,1,-107
145182100,0.7554931640625,-0.62005615234375,0.1834716796875,-0.105224609375,-162,-10657,2118,24,2,-98
145192084,0.75604248046875,-0.619873046875,0.1759033203125,-0.11480712890625,-72,-10750,2088,24,2,-89
145202065,0.75653076171875,-0.61956787109375,0.1689453125,-0.12353515625,-33,-10826,2052,22,1,-82
145212051,0.75689697265625,-0.6192626953125,0.16217041015625,-0.1318359375,-17,-10893,2010,22,0,-81
145222035,0.757080078125,-0.61895751953125,0.15521240234375,-0.14013671875,29,-10932,1979,22,-1,-85
145232013,0.757080078125,-0.6187744140625,0.14752197265625,-0.14892578125,76,-10970,1962,22,-3,-93
145241996,0.75689697265625,-0.61865234375,0.13916015625,-0.1583251953125,142,-11057,1928,22,-5,-101
145251986,0.7564697265625,-0.61846923828125,0.1300048828125,-0.16827392578125,201,-11164,1906,24,-6,-110
145261963,0.755859375,-0.61822509765625,0.12005615234375,-0.17889404296875,253,-11268,1917,25,-8,-119
145271946,0.755126953125,-0.61785888671875,0.10931396484375,-0.19012451171875,327,-11358,1931,27,-9,-128
145281928,0.754150390625,-0.6171875,0.0977783203125,-0.201904296875,408,-11411,1940,30,-11,-137
145291912,0.7529296875,-0.61639404296875,0.08551025390625,-0.214111328125,532,-11459,1934,32,-13,-144
145301892,0.7515869140625,-0.615234375,0.0726318359375,-0.2265625,691,-11468,1929,35,-15,-147
145311878,0.7501220703125,-0.61376953125,0.0594482421875,-0.2388916015625,885,-11426,1894,37,-16,-149
145321857,0.74859619140625,-0.61199951171875,0.04608154296875,-0.2509765625,1101,-11347,1849,40,-18,-148
145331840,0.74700927734375,-0.60980224609375,0.03253173828125,-0.26275634765625,1317,-11257,1821,42,-19,-147
145341824,0.74542236328125,-0.60723876953125,0.0189208984375,-0.2742919921875,1522,-11116,1803,45,-20,-147
145351807,0.74371337890625,-0.6043701171875,0.005126953125,-0.28570556640625,1707,-10905,1796,47,-22,-148
145361788,0.74176025390625,-0.60113525390625,-0.00897216796875,-0.2972412109375,1908,-10620,1817,48,-22,-152
145371768,0.739501953125,-0.5975341796875,-0.02349853515625,-0.30902099609375,2122,-10289,1843,49,-22,-156
145381759,0.73681640625,-0.5936279296875,-0.0384521484375,-0.3212890625,2349,-9939,1877,49,-22,-163
145391745,0.733642578125,-0.58935546875,-0.05377197265625,-0.333984375,2577,-9586,1916,50,-20,-168
145401721,0.73004150390625,-0.584716796875,-0.0692138671875,-0.34698486328125,2792,-9270,1940,50,-19,-172
145411703,0.72601318359375,-0.579833984375,-0.08465576171875,-0.35992431640625,3015,-8939,1944,49,-19,-172
145421684,0.7215576171875,-0.5748291015625,-0.099853515625,-0.37274169921875,3202,-8613,1937,48,-18,-171
145431668,0.71685791015625,-0.5697021484375,-0.11468505859375,-0.38525390625,3370,-8297,1953,46,-17,-169
145441650,0.7117919921875,-0.564453125,-0.1292724609375,-0.3975830078125,3552,-7993,1971,44,-16,-168
145451636,0.7064208984375,-0.55914306640625,-0.14349365234375,-0.40960693359375,3773,-7749,1984,42,-16,-166
145461616,0.70074462890625,-0.55377197265625,-0.1573486328125,-0.42144775390625,3996,-7490,2007,41,-14,-164
145471597,0.694580078125,-0.5482177734375,-0.17095947265625,-0.433349609375,4211,-7194,2020,38,-13,-166
145481579,0.68780517578125,-0.54241943359375,-0.1846923828125,-0.4456787109375,4386,-6796,2047,36,-11,-172
145491564,0.68023681640625,-0.5362548828125,-0.1986083984375,-0.4586181640625,4514,-6337,2060,34,-10,-180
145501544,0.67169189453125,-0.52960205078125,-0.21282958984375,-0.4722900390625,4621,-5895,2092,31,-8,-188
145511528,0.66241455078125,-0.52276611328125,-0.2269287109375,-0.48626708984375,4773,-5556,2109,29,-6,-192
145521509,0.6527099609375,-0.51580810546875,-0.2406005859375,-0.5001220703125,4932,-5265,2142,26,-5,-190
145531492,0.6429443359375,-0.50885009765625,-0.25347900390625,-0.5133056640625,5068,-5041,2157,24,-4,-184
145541474,0.63330078125,-0.501953125,-0.26556396484375,-0.52581787109375,5193,-4809,2148,23,-3,-177
145551454,0.62371826171875,-0.4951171875,-0.27703857421875,-0.5377197265625,5248,-4548,2153,21,-2,-171
145561435,0.6141357421875,-0.4881591796875,-0.2879638671875,-0.54925537109375,5279,-4283,2135,20,-1,-167
145571431,0.6043701171875,-0.481201171875,-0.298583984375,-0.5604248046875,5283,-4003,2118,19,0,-166
145581410,0.5943603515625,-0.47406005859375,-0.3089599609375,-0.57147216796875,5275,-3755,2107,18,0,-166
145591395,0.58416748046875,-0.466796875,-0.31915283203125,-0.582275390625,5279,-3551,2088,18,0,-166
145601368,0.57373046875,-0.45947265625,-0.32916259765625,-0.59283447265625,5297,-3324,2076,18,0,-165
145611352,0.5631103515625,-0.45196533203125,-0.3389892578125,-0.6031494140625,5311,-3099,2077,17,0,-165
145621334,0.55218505859375,-0.44439697265625,-0.3487548828125,-0.6131591796875,5334,-2877,2086,17,-1,-165
145631313,0.5411376953125,-0.43658447265625,-0.35833740234375,-0.623046875,5344,-2672,2100,17,-1,-165
145641297,0.52984619140625,-0.42877197265625,-0.3677978515625,-0.63262939453125,5326,-2475,2093,17,-2,-164
145651293,0.51837158203125,-0.42095947265625,-0.37701416015625,-0.641845703125,5281,-2247,2083,16,-2,-163
145661268,0.50677490234375,-0.41314697265625,-0.38616943359375,-0.65069580078125,5221,-1968,2050,16,-4,-162
145671256,0.4947509765625,-0.40509033203125,-0.395263671875,-0.65948486328125,5126,-1580,2033,15,-4,-163
145681238,0.48223876953125,-0.39666748046875,-0.40447998046875,-0.668212890625,5011,-1173,2013,15,-5,-166
145691220,0.46923828125,-0.38812255859375,-0.4136962890625,-0.6768798828125,4927,-842,1977,14,-5,-168
145701207,0.4561767578125,-0.379638671875,-0.42254638671875,-0.68505859375,4865,-588,1966,13,-7,-164
145711194,0.4434814453125,-0.37152099609375,-0.43096923828125,-0.69256591796875,4769,-328,1942,13,-7,-156
145721177,0.4310302734375,-0.3636474609375,-0.43896484375,-0.69952392578125,4617,-12,1909,12,-8,-150
145731159,0.41876220703125,-0.35601806640625,-0.44659423828125,-0.7060546875,4461,325,1884,11,-9,-145
145741130,0.40655517578125,-0.34844970703125,-0.45404052734375,-0.71221923828125,4293,640,1844,11,-10,-141
145751114,0.3944091796875,-0.3409423828125,-0.461181640625,-0.718017578125,4116,959,1813,10,-10,-139
145761095,0.38226318359375,-0.3333740234375,-0.4681396484375,-0.7236328125,3933,1253,1776,10,-10,-137
145771077,0.37017822265625,-0.32586669921875,-0.474853515625,-0.72894287109375,3753,1519,1730,9,-10,-134
145781059,0.35833740234375,-0.31854248046875,-0.48126220703125,-0.73388671875,3595,1771,1683,9,-10,-129
145791042,0.34698486328125,-0.3115234375,-0.48724365234375,-0.73834228515625,3456,2015,1648,8,-10,-121
145801025,0.33648681640625,-0.30517578125,-0.4927978515625,-0.7421875,3288,2254,1599,8,-11,-109
145811007,0.3270263671875,-0.29949951171875,-0.497802734375,-0.745361328125,3088,2507,1544,8,-11,-96
145820995,0.318359375,-0.29449462890625,-0.50244140625,-0.748046875,2865,2798,1507,8,-13,-85
145830978,0.31036376953125,-0.28997802734375,-0.50677490234375,-0.75018310546875,2666,3103,1457,8,-13,-76
145840957,0.30279541015625,-0.2857666015625,-0.510986328125,-0.7520751953125,2464,3419,1432,8,-14,-71
145850938,0.2955322265625,-0.28179931640625,-0.5150146484375,-0.75372314453125,2298,3741,1440,8,-14,-66
145860919,0.2886962890625,-0.278076171875,-0.51885986328125,-0.755126953125,2133,4042,1465,9,-15,-59
145870904,0.28265380859375,-0.27496337890625,-0.52239990234375,-0.756103515625,1979,4341,1511,9,-16,-49
145880884,0.2777099609375,-0.2725830078125,-0.52557373046875,-0.756591796875,1851,4654,1569,9,-17,-35
145890866,0.2740478515625,-0.271240234375,-0.5281982421875,-0.756591796875,1752,4971,1654,8,-17,-19
145900845,0.27178955078125,-0.2711181640625,-0.53021240234375,-0.75604248046875,1686,5293,1734,8,-19,-1
145910830,0.27099609375,-0.27215576171875,-0.53167724609375,-0.75494384765625,1665,5599,1810,7,-20,16
145920814,0.271484375,-0.2742919921875,-0.532470703125,-0.75341796875,1651,5876,1907,5,-21,31
145930797,0.27313232421875,-0.27740478515625,-0.53265380859375,-0.7515869140625,1688,6139,2016,3,-22,45
145940784,0.27587890625,-0.28143310546875,-0.5321044921875,-0.7493896484375,1768,6347,2130,1,-22,58
145950764,0.27984619140625,-0.2864990234375,-0.53082275390625,-0.7469482421875,1866,6475,2226,-2,-22,72
145960743,0.28497314453125,-0.2926025390625,-0.5286865234375,-0.744140625,1984,6548,2312,-5,-22,87
145970719,0.29132080078125,-0.2996826171875,-0.52569580078125,-0.740966796875,2116,6568,2367,-8,-22,101
145980701,0.298828125,-0.30780029296875,-0.5218505859375,-0.73736572265625,2273,6539,2424,-11,-21,114
145990687,0.307373046875,-0.31671142578125,-0.5169677734375,-0.7335205078125,2431,6445,2474,-15,-21,127
146000669,0.3167724609375,-0.32635498046875,-0.51116943359375,-0.72930908203125,2620,6296,2521,-19,-19,137
146010652,0.32696533203125,-0.33660888671875,-0.50439453125,-0.72491455078125,2814,6064,2557,-23,-18,146
146020636,0.3377685546875,-0.3472900390625,-0.49664306640625,-0.72021484375,3012,5772,2576,-27,-16,154
146030617,0.34918212890625,-0.3583984375,-0.48797607421875,-0.7152099609375,3171,5405,2551,-30,-14,161
146040599,0.36114501953125,-0.369873046875,-0.47845458984375,-0.70989990234375,3307,4957,2508,-34,-13,168
146050582,0.37347412109375,-0.381591796875,-0.4681396484375,-0.7041015625,3416,4456,2428,-36,-11,173
146060565,0.3861083984375,-0.3934326171875,-0.4571533203125,-0.697998046875,3472,3918,2361,-37,-10,177
146070546,0.39892578125,-0.40545654296875,-0.44561767578125,-0.69140625,3556,3336,2269,-39,-9,179
146080528,0.4117431640625,-0.4173583984375,-0.4334716796875,-0.68438720703125,3640,2741,2205,-40,-8,180
146090512,0.42425537109375,-0.42913818359375,-0.4210205078125,-0.67724609375,3729,2098,2139,-41,-7,177
146100494,0.43646240234375,-0.44061279296875,-0.40826416015625,-0.66986083984375,3868,1391,2060,-41,-6,173
146110475,0.44842529296875,-0.45196533203125,-0.39520263671875,-0.66217041015625,3992,683,1972,-42,-5,172
146120459,0.460205078125,-0.46295166015625,-0.382080078125,-0.65423583984375,4093,47,1884,-40,-5,169
146130438,0.47161865234375,-0.47357177734375,-0.368896484375,-0.64593505859375,4188,-494,1790,-39,-4,167
146140429,0.48260498046875,-0.4837646484375,-0.35589599609375,-0.63751220703125,4309,-1023,1705,-38,-4,162
146150412,0.4932861328125,-0.49359130859375,-0.34295654296875,-0.62884521484375,4487,-1657,1626,-36,-4,159
146160397,0.50390625,-0.50335693359375,-0.32965087890625,-0.61981201171875,4716,-2405,1555,-36,-3,159
146170373,0.5146484375,-0.51300048828125,-0.31591796875,-0.610107421875,4955,-3129,1495,-34,-2,163
146180350,0.5257568359375,-0.5223388671875,-0.30181884765625,-0.59979248046875,5144,-3698,1438,-32,-1,167
146190338,0.53680419921875,-0.5311279296875,-0.28765869140625,-0.589111328125,5214,-4076,1401,-28,1,168
146200317,0.5477294921875,-0.53912353515625,-0.27374267578125,-0.578369140625,5183,-4402,1376,-25,2,164
146210298,0.55828857421875,-0.5465087890625,-0.2601318359375,-0.56744384765625,5151,-4793,1326,-22,2,161
146220282,0.56884765625,-0.55364990234375,-0.24652099609375,-0.55596923828125,5129,-5285,1263,-19,0,162
146230266,0.57958984375,-0.560791015625,-0.232666015625,-0.5435791015625,5144,-5770,1210,-17,-2,168
146240243,0.59039306640625,-0.56781005859375,-0.21856689453125,-0.5303955078125,5158,-6050,1226,-16,-4,174
146250234,0.600830078125,-0.57427978515625,-0.20458984375,-0.51708984375,5132,-6086,1279,-16,-3,172
146260218,0.61041259765625,-0.580078125,-0.19122314453125,-0.50439453125,5062,-5967,1355,-16,-2,163
146270206,0.6190185546875,-0.5849609375,-0.1787109375,-0.49267578125,4953,-5966,1441,-15,0,150
146280189,0.62689208984375,-0.58935546875,-0.1666259765625,-0.4815673828125,4853,-6231,1444,-15,1,140
146290174,0.634521484375,-0.5936279296875,-0.1544189453125,-0.47027587890625,4764,-6688,1417,-14,1,142
146300155,0.64251708984375,-0.59796142578125,-0.14141845703125,-0.45794677734375,4670,-7072,1406,-14,1,154
146310127,0.65087890625,-0.602294921875,-0.12750244140625,-0.44427490234375,4537,-7207,1411,-15,-1,168
146320108,0.65924072265625,-0.6064453125,-0.11322021484375,-0.429931640625,4387,-7054,1479,-16,-2,174
146330088,0.66705322265625,-0.61016845703125,-0.0992431640625,-0.41583251953125,4230,-6726,1594,-18,-2,169
146340075,0.67376708984375,-0.61346435546875,-0.0860595703125,-0.40289306640625,4029,-6412,1703,-20,0,155
146350055,0.6793212890625,-0.61639404296875,-0.0736083984375,-0.391357421875,3831,-6449,1757,-23,4,139
146360037,0.68408203125,-0.61932373046875,-0.06134033203125,-0.38043212890625,3681,-6865,1733,-25,6,132
146370019,0.68865966796875,-0.62213134765625,-0.04852294921875,-0.36920166015625,3550,-7423,1663,-25,8,138
146380000,0.69354248046875,-0.62493896484375,-0.0345458984375,-0.35675048828125,3345,-7973,1586,-26,8,152
146389991,0.69873046875,-0.62762451171875,-0.019287109375,-0.3427734375,3094,-8412,1492,-26,8,168
146399974,0.70416259765625,-0.62994384765625,-0.0030517578125,-0.32763671875,2833,-8624,1448,-26,8,179
146409950,0.70928955078125,-0.63189697265625,0.01348876953125,-0.3121337890625,2588,-8656,1440,-27,9,182
146419932,0.71392822265625,-0.6334228515625,0.02972412109375,-0.2969970703125,2287,-8688,1476,-27,11,175
146429915,0.71783447265625,-0.6346435546875,0.04547119140625,-0.2825927734375,1993,-8957,1472,-28,13,166
146439897,0.72113037109375,-0.6356201171875,0.06097412109375,-0.26873779296875,1758,-9389,1415,-28,15,162
146449879,0.72406005859375,-0.63641357421875,0.07659912109375,-0.2547607421875,1507,-9896,1319,-28,15,164
146459861,0.7266845703125,-0.6368408203125,0.09246826171875,-0.24029541015625,1262,-10353,1214,-27,15,168
146469845,0.72918701171875,-0.63690185546875,0.1085205078125,-0.2254638671875,1001,-10672,1124,-26,16,172
146479827,0.73138427734375,-0.6365966796875,0.1243896484375,-0.210693359375,753,-10924,1061,-26,16,170
146489810,0.73309326171875,-0.63592529296875,0.1397705078125,-0.19647216796875,513,-11222,1035,-25,17,164
146499792,0.73443603515625,-0.63507080078125,0.15447998046875,-0.1829833984375,324,-11546,1041,-24,17,157
146509771,0.7353515625,-0.63397216796875,0.16845703125,-0.170166015625,161,-11841,1036,-23,18,150
146519763,0.73583984375,-0.6328125,0.181640625,-0.15826416015625,42,-12003,1079,-23,18,142
146529744,0.736083984375,-0.63153076171875,0.19384765625,-0.1473388671875,-47,-11979,1131,-22,18,131
146539721,0.73602294921875,-0.63031005859375,0.2049560546875,-0.1378173828125,-103,-11787,1201,-21,19,117
146549704,0.73565673828125,-0.629150390625,0.2147216796875,-0.12982177734375,-124,-11523,1288,-20,20,101
146559686,0.73504638671875,-0.628173828125,0.2232666015625,-0.12353515625,-117,-11286,1396,-19,22,85
146569667,0.73419189453125,-0.62744140625,0.23065185546875,-0.1185302734375,-70,-11195,1481,-18,22,73
146579650,0.73333740234375,-0.626708984375,0.2374267578125,-0.1143798828125,6,-11261,1548,-17,23,68
146589636,0.732421875,-0.62591552734375,0.24407958984375,-0.1103515625,29,-11407,1587,-16,23,69
146599614,0.731689453125,-0.6248779296875,0.2508544921875,-0.10595703125,8,-11518,1653,-15,22,74
146609598,0.73114013671875,-0.6234130859375,0.2578125,-0.10125732421875,-33,-11550,1722,-13,21,78
146619580,0.7308349609375,-0.6217041015625,0.26470947265625,-0.09637451171875,-84,-11540,1768,-11,20,78
146629562,0.7305908203125,-0.619873046875,0.27130126953125,-0.0916748046875,-163,-11546,1774,-8,19,75
146639546,0.73046875,-0.61798095703125,0.27734375,-0.08746337890625,-250,-11602,1789,-6,17,69
146649527,0.73040771484375,-0.61614990234375,0.2825927734375,-0.0838623046875,-301,-11744,1806,-4,16,62
146659508,0.73046875,-0.61444091796875,0.286865234375,-0.08111572265625,-368,-11913,1846,-2,14,53
146669492,0.73065185546875,-0.6129150390625,0.29010009765625,-0.079345703125,-466,-12088,1877,0,12,40
146679472,0.73089599609375,-0.61175537109375,0.2921142578125,-0.0787353515625,-559,-12251,1895,2,10,26
146689455,0.73114013671875,-0.611083984375,0.29266357421875,-0.07958984375,-656,-12379,1857,4,9,8
146699433,0.73138427734375,-0.6109619140625,0.29156494140625,-0.08209228515625,-733,-12496,1852,6,7,-13
146709422,0.73162841796875,-0.6114501953125,0.28875732421875,-0.08636474609375,-767,-12641,1880,8,4,-34
146719406,0.73187255859375,-0.6124267578125,0.2841796875,-0.09234619140625,-792,-12791,1921,10,2,-53
146729389,0.73211669921875,-0.61370849609375,0.278076171875,-0.099853515625,-818,-12880,1930,13,1,-71
146739368,0.7322998046875,-0.61541748046875,0.2705078125,-0.1087646484375,-812,-12899,1919,15,-1,-89
146749350,0.73236083984375,-0.6173095703125,0.26165771484375,-0.118896484375,-744,-12840,1922,17,-3,-104
146759329,0.7322998046875,-0.619384765625,0.25140380859375,-0.130126953125,-618,-12760,1932,19,-6,-118
146769311,0.7320556640625,-0.6214599609375,0.2401123046875,-0.1422119140625,-455,-12680,1936,21,-8,-128
146779295,0.731689453125,-0.6234130859375,0.22796630859375,-0.15484619140625,-296,-12620,1955,23,-10,-136
146789278,0.731201171875,-0.62518310546875,0.21539306640625,-0.16754150390625,-156,-12607,1968,25,-12,-138
146799259,0.73065185546875,-0.62664794921875,0.20263671875,-0.1800537109375,-26,-12640,1957,27,-14,-138
146809239,0.7301025390625,-0.62774658203125,0.18994140625,-0.19195556640625,66,-12696,1913,29,-16,-135
146819231,0.72955322265625,-0.62847900390625,0.17730712890625,-0.20330810546875,130,-12738,1844,31,-18,-133
146829215,0.7288818359375,-0.6290283203125,0.16448974609375,-0.21441650390625,217,-12746,1745,33,-20,-134
146839195,0.72808837890625,-0.62939453125,0.1512451171875,-0.2255859375,312,-12717,1643,34,-22,-139
146849187,0.7269287109375,-0.629638671875,0.13720703125,-0.2373046875,436,-12653,1539,36,-23,-149
146859174,0.725341796875,-0.6297607421875,0.122314453125,-0.249755859375,574,-12552,1467,37,-23,-160
146869146,0.72308349609375,-0.6297607421875,0.10650634765625,-0.2630615234375,750,-12412,1421,38,-23,-171
146879122,0.7203369140625,-0.62945556640625,0.09002685546875,-0.277099609375,935,-12255,1407,39,-23,-181
146889102,0.71710205078125,-0.62884521484375,0.07305908203125,-0.29150390625,1166,-12133,1382,39,-22,-186
146899087,0.71337890625,-0.62799072265625,0.0560302734375,-0.305908203125,1416,-11990,1356,40,-22,-188
146909069,0.70928955078125,-0.626708984375,0.03887939453125,-0.3203125,1707,-11746,1348,40,-21,-189
146919055,0.70477294921875,-0.6251220703125,0.0216064453125,-0.33477783203125,2020,-11434,1357,40,-20,-191
146929038,0.69976806640625,-0.623046875,0.0042724609375,-0.3494873046875,2359,-11119,1399,39,-18,-194
146939020,0.6942138671875,-0.62060546875,-0.01312255859375,-0.3643798828125,2689,-10832,1452,39,-16,-197
146949002,0.68817138671875,-0.61773681640625,-0.03033447265625,-0.3792724609375,2993,-10538,1462,39,-14,-198
146958990,0.6817626953125,-0.614501953125,-0.04730224609375,-0.39410400390625,3270,-10208,1464,39,-11,-198
146968966,0.67498779296875,-0.61083984375,-0.06396484375,-0.4088134765625,3541,-9882,1454,38,-9,-197
146978950,0.6678466796875,-0.60687255859375,-0.080322265625,-0.42340087890625,3798,-9506,1460,36,-7,-197
146988932,0.66021728515625,-0.6025390625,-0.096435546875,-0.43792724609375,4045,-9124,1492,35,-5,-197
146998913,0.652099609375,-0.597900390625,-0.11224365234375,-0.45245361328125,4251,-8694,1507,33,-3,-198
147008902,0.6434326171875,-0.59283447265625,-0.1278076171875,-0.46710205078125,4399,-8195,1548,31,0,-200
147018880,0.6341552734375,-0.5872802734375,-0.143310546875,-0.48211669921875,4510,-7716,1603,29,3,-205
147028862,0.6241455078125,-0.581298828125,-0.15863037109375,-0.497314453125,4586,-7292,1622,27,6,-208
147038845,0.61376953125,-0.5750732421875,-0.1734619140625,-0.51239013671875,4640,-6972,1618,25,8,-206
147048827,0.60321044921875,-0.5687255859375,-0.18756103515625,-0.52679443359375,4695,-6724,1582,23,9,-201
147058811,0.5927734375,-0.56243896484375,-0.20074462890625,-0.5404052734375,4727,-6500,1546,21,10,-192
147068793,0.58258056640625,-0.55615234375,-0.2130126953125,-0.5531005859375,4743,-6237,1522,19,10,-184
147078772,0.57244873046875,-0.54986572265625,-0.224609375,-0.56524658203125,4735,-5971,1480,19,11,-178
147088763,0.5621337890625,-0.54345703125,-0.23590087890625,-0.57708740234375,4699,-5660,1430,17,12,-178
147098746,0.55126953125,-0.53662109375,-0.24725341796875,-0.589111328125,4615,-5288,1408,17,13,-183
147108724,0.53961181640625,-0.52923583984375,-0.25897216796875,-0.6014404296875,4543,-4943,1380,17,14,-191
147118706,0.52716064453125,-0.52130126953125,-0.27099609375,-0.61395263671875,4475,-4577,1343,16,14,-198
147128687,0.51409912109375,-0.5128173828125,-0.283203125,-0.6265869140625,4377,-4193,1295,16,15,-201
147138670,0.5006103515625,-0.504150390625,-0.29522705078125,-0.63885498046875,4295,-3859,1268,15,14,-201
147148653,0.4871826171875,-0.4954833984375,-0.30670166015625,-0.6505126953125,4229,-3551,1280,15,14,-194
147158636,0.4742431640625,-0.48699951171875,-0.31744384765625,-0.6612548828125,4171,-3244,1267,14,13,-184
147168619,0.46173095703125,-0.47882080078125,-0.3275146484375,-0.67108154296875,4080,-2888,1270,13,12,-174
147178601,0.449462890625,-0.47064208984375,-0.33709716796875,-0.68035888671875,4007,-2491,1274,12,12,-168
147188583,0.437255859375,-0.4625244140625,-0.34637451171875,-0.689208984375,3939,-2149,1292,11,11,-164
147198566,0.425048828125,-0.45452880859375,-0.35528564453125,-0.69757080078125,3857,-1831,1301,10,9,-161
147208549,0.41265869140625,-0.446533203125,-0.364013671875,-0.70562744140625,3746,-1448,1337,9,8,-159
147218531,0.39984130859375,-0.43841552734375,-0.3726806640625,-0.7135009765625,3612,-1022,1359,7,6,-160
147228514,0.38653564453125,-0.43011474609375,-0.38134765625,-0.7213134765625,3479,-599,1402,6,5,-162
147238497,0.3726806640625,-0.42169189453125,-0.38983154296875,-0.72894287109375,3384,-219,1466,4,4,-164
147248480,0.3585205078125,-0.41326904296875,-0.398193359375,-0.736328125,3315,137,1511,2,3,-163
147258458,0.34442138671875,-0.405029296875,-0.406005859375,-0.74334716796875,3277,461,1581,0,2,-158
147268438,0.33050537109375,-0.39703369140625,-0.413330078125,-0.7498779296875,3234,784,1654,-1,1,-152
147278428,0.317138671875,-0.38934326171875,-0.4200439453125,-0.7559814453125,3164,1086,1731,-3,0,-143
147288412,0.3043212890625,-0.382080078125,-0.42608642578125,-0.76153564453125,3094,1367,1811,-4,-1,-134
147298391,0.29217529296875,-0.37530517578125,-0.4315185546875,-0.7666015625,3017,1636,1889,-5,-1,-125
147308369,0.28070068359375,-0.3687744140625,-0.43646240234375,-0.771240234375,2922,1946,1974,-6,-1,-117
147318355,0.2696533203125,-0.3624267578125,-0.44097900390625,-0.77557373046875,2822,2292,2063,-6,0,-111
147328335,0.2589111328125,-0.35595703125,-0.4453125,-0.77978515625,2714,2647,2178,-6,0,-108
147338316,0.24822998046875,-0.3494873046875,-0.449462890625,-0.7838134765625,2596,3014,2302,-6,1,-106
147348299,0.23773193359375,-0.34283447265625,-0.4534912109375,-0.78765869140625,2447,3375,2416,-5,2,-103
147358283,0.2276611328125,-0.33624267578125,-0.45733642578125,-0.79119873046875,2278,3732,2530,-4,1,-98
147368268,0.2181396484375,-0.329833984375,-0.46099853515625,-0.79449462890625,2108,4119,2654,-3,2,-90
147378256,0.209228515625,-0.3236083984375,-0.46441650390625,-0.79742431640625,2004,4470,2778,-2,2,-84
147388243,0.20147705078125,-0.31781005859375,-0.46759033203125,-0.7999267578125,1957,4717,2933,1,3,-72
147398222,0.19573974609375,-0.3125,-0.47039794921875,-0.8017578125,1925,4845,3113,7,6,-54
147408206,0.1929931640625,-0.30804443359375,-0.472900390625,-0.80267333984375,1892,4953,3262,16,10,-27
147418194,0.19366455078125,-0.3046875,-0.47509765625,-0.802490234375,1834,5177,3347,25,14,3
147428174,0.197265625,-0.30230712890625,-0.47711181640625,-0.80133056640625,1724,5529,3378,32,16,30
147438157,0.20294189453125,-0.3009033203125,-0.47894287109375,-0.79937744140625,1611,5946,3369,35,17,49
147448128,0.20989990234375,-0.30023193359375,-0.48046875,-0.796875,1553,6340,3338,35,15,62
147458110,0.217529296875,-0.30029296875,-0.481689453125,-0.79412841796875,1553,6652,3290,34,13,69
147468093,0.2254638671875,-0.30096435546875,-0.4825439453125,-0.79107666015625,1614,6882,3225,32,11,75
147478075,0.2337646484375,-0.30218505859375,-0.48297119140625,-0.7879638671875,1689,7033,3185,30,10,80
147488057,0.2425537109375,-0.30413818359375,-0.48284912109375,-0.78460693359375,1795,7081,3149,26,7,89
147498038,0.2520751953125,-0.3070068359375,-0.4820556640625,-0.78094482421875,1908,7032,3084,24,5,99
147508024,0.26251220703125,-0.31097412109375,-0.48046875,-0.77691650390625,2017,6894,3023,20,3,111
147518006,0.27386474609375,-0.31597900390625,-0.47808837890625,-0.7724609375,2142,6682,2933,17,0,123
147527996,0.2860107421875,-0.322021484375,-0.4749755859375,-0.7674560546875,2266,6401,2849,14,-2,135
147537975,0.29901123046875,-0.3291015625,-0.470947265625,-0.761962890625,2387,6058,2752,11,-4,146
147547953,0.31268310546875,-0.33721923828125,-0.466064453125,-0.75592041015625,2523,5667,2663,7,-7,156
147557935,0.32708740234375,-0.34619140625,-0.46026611328125,-0.749267578125,2677,5267,2578,4,-9,167
147567915,0.34185791015625,-0.35595703125,-0.45367431640625,-0.74212646484375,2857,4862,2506,0,-10,174
147577897,0.3568115234375,-0.36614990234375,-0.4462890625,-0.73455810546875,3033,4464,2430,-5,-12,178
147587878,0.37152099609375,-0.3765869140625,-0.43829345703125,-0.72674560546875,3180,4041,2362,-8,-13,179
147597860,0.38592529296875,-0.38714599609375,-0.42962646484375,-0.71881103515625,3347,3555,2288,-13,-13,178
147607843,0.4000244140625,-0.3980712890625,-0.42041015625,-0.7105712890625,3520,2988,2186,-17,-14,178
147617825,0.41375732421875,-0.4090576171875,-0.41058349609375,-0.70208740234375,3690,2415,2089,-20,-14,177
147627808,0.42694091796875,-0.42010498046875,-0.4002685546875,-0.693603515625,3843,1927,2001,-24,-14,174
147637790,0.43927001953125,-0.4306640625,-0.389892578125,-0.685302734375,4002,1532,1934,-27,-13,166
147647769,0.4505615234375,-0.44073486328125,-0.3795166015625,-0.6773681640625,4155,1096,1853,-30,-12,157
147657761,0.461181640625,-0.45050048828125,-0.36895751953125,-0.6695556640625,4293,524,1758,-32,-10,152
147667745,0.47174072265625,-0.46044921875,-0.3577880859375,-0.66143798828125,4409,-130,1626,-34,-11,154
147677719,0.48260498046875,-0.47088623046875,-0.34588623046875,-0.65252685546875,4558,-862,1491,-36,-11,161
147687703,0.4940185546875,-0.48187255859375,-0.3330078125,-0.642578125,4761,-1584,1351,-37,-12,172
147697687,0.505859375,-0.4931640625,-0.3192138671875,-0.63165283203125,4964,-2138,1278,-38,-12,181
147707668,0.517578125,-0.50421142578125,-0.3050537109375,-0.620361328125,5141,-2574,1231,-39,-11,182
147717648,0.5286865234375,-0.51446533203125,-0.29095458984375,-0.6092529296875,5283,-2952,1157,-38,-7,174
147727636,0.5389404296875,-0.52392578125,-0.27716064453125,-0.59857177734375,5347,-3379,1076,-37,-5,164
147737615,0.54852294921875,-0.53265380859375,-0.263671875,-0.58819580078125,5392,-4028,947,-34,-2,155
147747596,0.55810546875,-0.54095458984375,-0.24993896484375,-0.577392578125,5399,-4726,813,-31,-1,157
147757580,0.5682373046875,-0.54913330078125,-0.23583984375,-0.565673828125,5367,-5295,726,-28,-2,166
147767563,0.57891845703125,-0.55712890625,-0.22113037109375,-0.55279541015625,5339,-5707,683,-26,-3,178
147777545,0.5899658203125,-0.56494140625,-0.2059326171875,-0.5389404296875,5315,-5884,722,-25,-4,187
147787528,0.6005859375,-0.57208251953125,-0.19085693359375,-0.52496337890625,5246,-5812,806,-24,-3,184
147797510,0.6102294921875,-0.578369140625,-0.17657470703125,-0.51190185546875,5143,-5643,931,-24,-1,171
147807499,0.61846923828125,-0.5836181640625,-0.16339111328125,-0.500244140625,5039,-5744,1026,-23,1,151
147817479,0.62579345703125,-0.58831787109375,-0.15087890625,-0.48944091796875,5007,-6200,1044,-22,4,139
147827460,0.6328125,-0.59283447265625,-0.13818359375,-0.47857666015625,4959,-6678,1075,-21,5,139
147837449,0.64007568359375,-0.5970458984375,-0.12506103515625,-0.4671630859375,4844,-7066,1098,-20,5,147
147847433,0.647705078125,-0.60107421875,-0.111328125,-0.45477294921875,4697,-7277,1125,-19,4,157
147857414,0.65545654296875,-0.6048583984375,-0.09722900390625,-0.44171142578125,4539,-7251,1200,-19,4,163
147867397,0.66290283203125,-0.608154296875,-0.08331298828125,-0.4287109375,4366,-7054,1293,-19,4,161
147877373,0.6695556640625,-0.611083984375,-0.0699462890625,-0.4163818359375,4153,-6891,1376,-20,5,151
147887355,0.6754150390625,-0.6136474609375,-0.0572509765625,-0.40496826171875,3933,-7083,1415,-21,7,140
147897339,0.6807861328125,-0.61614990234375,-0.04443359375,-0.3935546875,3783,-7632,1382,-21,8,138
147907322,0.68621826171875,-0.61865234375,-0.03094482421875,-0.38140869140625,3646,-8216,1354,-21,8,148
147917303,0.69195556640625,-0.620849609375,-0.0164794921875,-0.3680419921875,3410,-8617,1322,-21,8,160
147927286,0.6978759765625,-0.62286376953125,-0.00128173828125,-0.3536376953125,3151,-8799,1292,-21,7,170
147937268,0.70355224609375,-0.62445068359375,0.01397705078125,-0.3389892578125,2895,-8748,1319,-22,7,171
147947256,0.7086181640625,-0.62567138671875,0.02874755859375,-0.3248291015625,2613,-8526,1365,-22,8,164
147957238,0.7130126953125,-0.62664794921875,0.042724609375,-0.3116455078125,2309,-8445,1396,-23,9,151
147967222,0.716552734375,-0.6275634765625,0.0560302734375,-0.29937744140625,2047,-8573,1380,-24,10,141
147977206,0.71954345703125,-0.62841796875,0.06903076171875,-0.28741455078125,1817,-8781,1369,-25,10,138
147987193,0.72222900390625,-0.62908935546875,0.08203125,-0.275390625,1566,-8970,1376,-26,11,139
147997175,0.724853515625,-0.62957763671875,0.09539794921875,-0.262939453125,1298,-9096,1366,-27,11,143
148007158,0.72723388671875,-0.62982177734375,0.1090087890625,-0.25006103515625,1025,-9141,1389,-28,11,148
148017128,0.7294921875,-0.62982177734375,0.1229248046875,-0.23675537109375,731,-9176,1394,-28,12,151
148027110,0.73150634765625,-0.6295166015625,0.13714599609375,-0.22314453125,410,-9270,1352,-29,12,154
148037093,0.733154296875,-0.62908935546875,0.15155029296875,-0.20916748046875,109,-9508,1271,-29,12,158
148047075,0.734619140625,-0.62835693359375,0.16632080078125,-0.19451904296875,-175,-9834,1171,-30,12,164
148057056,0.73583984375,-0.6273193359375,0.181396484375,-0.17919921875,-474,-10117,1094,-30,11,171
148067038,0.73675537109375,-0.62591552734375,0.19671630859375,-0.163330078125,-785,-10358,1013,-30,10,175
148077021,0.7374267578125,-0.6241455078125,0.21197509765625,-0.14727783203125,-1094,-10568,941,-30,9,176
148087004,0.73773193359375,-0.62213134765625,0.2269287109375,-0.1312255859375,-1421,-10843,852,-29,9,175
148096992,0.73760986328125,-0.61993408203125,0.24139404296875,-0.11541748046875,-1729,-11246,741,-29,8,172
148106974,0.73712158203125,-0.61761474609375,0.25531005859375,-0.0999755859375,-1981,-11764,601,-28,7,168
148119995,0.73626708984375,-0.61529541015625,0.2684326171875,-0.0850830078125,-2177,-12423,446,-27,6,163
148126936,0.73529052734375,-0.61285400390625,0.280517578125,-0.07086181640625,-2274,-13141,350,-25,3,157
148136918,0.73431396484375,-0.6104736328125,0.291259765625,-0.05755615234375,-2288,-13697,280,-22,0,147
148146903,0.73333740234375,-0.6082763671875,0.300048828125,-0.04595947265625,-2232,-14006,272,-19,-4,126
148156882,0.73260498046875,-0.60687255859375,0.3060302734375,-0.037109375,-2075,-14120,330,-15,-7,93
148166863,0.7320556640625,-0.60650634765625,0.30853271484375,-0.031982421875,-1863,-14058,478,-12,-10,50
148176845,0.73187255859375,-0.60748291015625,0.30712890625,-0.03106689453125,-1582,-13889,713,-8,-12,2
148186825,0.73199462890625,-0.6097412109375,0.30206298828125,-0.03424072265625,-1236,-13661,990,-5,-14,-42
148196807,0.73223876953125,-0.61297607421875,0.2939453125,-0.04095458984375,-838,-13389,1277,-3,-15,-78
148206789,0.7325439453125,-0.6168212890625,0.28363037109375,-0.050048828125,-391,-13076,1570,0,-15,-101
148216767,0.7327880859375,-0.6207275390625,0.2720947265625,-0.06036376953125,86,-12771,1816,1,-16,-111
148226758,0.73309326171875,-0.6243896484375,0.26025390625,-0.07080078125,585,-12438,2027,3,-17,-110
148236743,0.73333740234375,-0.62750244140625,0.24884033203125,-0.08062744140625,1051,-12104,2195,4,-18,-101
148246717,0.73370361328125,-0.6300048828125,0.23834228515625,-0.0892333984375,1424,-11872,2355,4,-18,-88
148256701,0.73406982421875,-0.6319580078125,0.22900390625,-0.0965576171875,1670,-11745,2491,4,-17,-73
148266682,0.734375,-0.63348388671875,0.22088623046875,-0.10272216796875,1779,-11737,2593,3,-16,-62
148276665,0.73468017578125,-0.634765625,0.2137451171875,-0.10809326171875,1763,-11774,2625,3,-14,-55
148286649,0.7347412109375,-0.63592529296875,0.20709228515625,-0.11328125,1664,-11840,2610,2,-12,-55
148296636,0.734619140625,-0.63720703125,0.200439453125,-0.11883544921875,1537,-11923,2541,2,-10,-61
148306613,0.734130859375,-0.63873291015625,0.19317626953125,-0.1253662109375,1404,-12006,2433,2,-9,-73
148316595,0.73321533203125,-0.640625,0.1849365234375,-0.13330078125,1278,-12120,2324,2,-8,-91
148326579,0.73187255859375,-0.64276123046875,0.17535400390625,-0.1429443359375,1129,-12304,2179,3,-6,-111
148336561,0.73004150390625,-0.64508056640625,0.16448974609375,-0.154296875,998,-12580,2050,4,-5,-131
148346543,0.727783203125,-0.6474609375,0.1524658203125,-0.1671142578125,912,-12833,1932,6,-4,-147
148356527,0.72509765625,-0.64959716796875,0.13970947265625,-0.180908203125,835,-13118,1830,8,-2,-157
148366510,0.72210693359375,-0.6514892578125,0.1265869140625,-0.1951904296875,805,-13379,1700,10,-2,-163
148376493,0.718994140625,-0.65289306640625,0.11334228515625,-0.20947265625,851,-13521,1560,13,-1,-164
148386476,0.7158203125,-0.65386962890625,0.09991455078125,-0.2237548828125,952,-13554,1408,16,-2,-166
148396458,0.7125244140625,-0.654296875,0.08624267578125,-0.23828125,1117,-13491,1289,20,-1,-170
148406449,0.708984375,-0.65423583984375,0.07196044921875,-0.2532958984375,1325,-13341,1199,23,0,-178
148416431,0.70513916015625,-0.65362548828125,0.05712890625,-0.26898193359375,1551,-13183,1137,27,1,-185
148426414,0.70098876953125,-0.65240478515625,0.04205322265625,-0.284912109375,1797,-13040,1071,29,3,-188
148436395,0.69671630859375,-0.650634765625,0.027099609375,-0.3009033203125,2074,-12900,1014,32,5,-188
148446373,0.69244384765625,-0.648193359375,0.01251220703125,-0.3165283203125,2333,-12735,978,35,8,-184
148456355,0.688232421875,-0.64520263671875,-0.0015869140625,-0.331787109375,2573,-12521,941,38,10,-180
148466337,0.6839599609375,-0.6416015625,-0.015380859375,-0.34686279296875,2804,-12206,922,40,13,-179
148476320,0.67938232421875,-0.63739013671875,-0.029296875,-0.3623046875,3002,-11793,945,41,16,-184
148486301,0.67425537109375,-0.63262939453125,-0.04351806640625,-0.37847900390625,3166,-11340,961,42,19,-193
148496285,0.66845703125,-0.6273193359375,-0.05816650390625,-0.39532470703125,3295,-10892,977,43,22,-202
148506268,0.66192626953125,-0.6214599609375,-0.07293701171875,-0.41278076171875,3430,-10502,1000,42,25,-208
148516256,0.6549072265625,-0.6151123046875,-0.08758544921875,-0.43017578125,3576,-10157,1023,42,27,-208
148526241,0.6478271484375,-0.6083984375,-0.10162353515625,-0.44708251953125,3703,-9840,1048,42,30,-203
148536222,0.64068603515625,-0.6014404296875,-0.11480712890625,-0.4632568359375,3820,-9532,1077,42,31,-195
148546206,0.6337890625,-0.59417724609375,-0.127197265625,-0.4786376953125,3876,-9144,1103,41,32,-186
148556194,0.626708984375,-0.586669921875,-0.1392822265625,-0.49365234375,3851,-8641,1135,41,33,-186
148566178,0.61907958984375,-0.5787353515625,-0.1514892578125,-0.50885009765625,3756,-8076,1168,40,34,-191
148576162,0.6107177734375,-0.57037353515625,-0.1639404296875,-0.52423095703125,3656,-7580,1198,39,34,-197
148586138,0.6016845703125,-0.56170654296875,-0.1766357421875,-0.53973388671875,3600,-7153,1224,38,33,-201
148596115,0.59222412109375,-0.5528564453125,-0.18914794921875,-0.55487060546875,3586,-6748,1274,38,33,-200
148606095,0.58258056640625,-0.5438232421875,-0.20135498046875,-0.5694580078125,3601,-6389,1306,37,32,-195
148616080,0.57318115234375,-0.53497314453125,-0.21282958984375,-0.5831298828125,3628,-6088,1330,36,31,-186
148626062,0.56396484375,-0.52618408203125,-0.22369384765625,-0.59588623046875,3622,-5710,1356,34,30,-178
148636045,0.5546875,-0.51739501953125,-0.2342529296875,-0.60809326171875,3544,-5208,1420,33,29,-174
148646026,0.54486083984375,-0.50836181640625,-0.24493408203125,-0.62030029296875,3435,-4603,1466,31,27,-177
148656009,0.53399658203125,-0.49896240234375,-0.2559814453125,-0.63275146484375,3307,-4009,1512,30,27,-185
148665995,0.52215576171875,-0.4891357421875,-0.267333984375,-0.6455078125,3238,-3545,1571,28,26,-193
148675979,0.5096435546875,-0.4791259765625,-0.2786865234375,-0.6580810546875,3249,-3244,1580,26,26,-195
148685955,0.4970703125,-0.46929931640625,-0.28936767578125,-0.67010498046875,3335,-3125,1610,25,25,-189
148695939,0.485107421875,-0.45989990234375,-0.29913330078125,-0.68096923828125,3418,-3057,1615,23,24,-177
148705920,0.4739990234375,-0.4510498046875,-0.30804443359375,-0.690673828125,3448,-2899,1638,23,23,-163
148715904,0.46343994140625,-0.44244384765625,-0.31634521484375,-0.6995849609375,3427,-2634,1650,22,21,-154
148725887,0.45294189453125,-0.433837890625,-0.32452392578125,-0.70806884765625,3382,-2297,1677,22,20,-151
148735870,0.4420166015625,-0.4249267578125,-0.33282470703125,-0.71649169921875,3320,-1898,1715,22,20,-154
148745852,0.430419921875,-0.41558837890625,-0.34130859375,-0.7249755859375,3266,-1526,1764,22,20,-159
148755834,0.41839599609375,-0.406005859375,-0.34979248046875,-0.73333740234375,3215,-1237,1787,22,20,-162
148765818,0.4061279296875,-0.3963623046875,-0.35821533203125,-0.741455078125,3148,-995,1824,21,19,-160
148775800,0.39422607421875,-0.3868408203125,-0.3662109375,-0.7489013671875,3070,-785,1851,21,18,-154
148785784,0.3828125,-0.377685546875,-0.3739013671875,-0.75567626953125,2984,-533,1898,22,16,-145
148795770,0.3720703125,-0.368896484375,-0.3812255859375,-0.76171875,2889,-231,1942,22,14,-135
148805754,0.3619384765625,-0.36041259765625,-0.38818359375,-0.76715087890625,2812,151,2016,23,13,-127
148815736,0.35211181640625,-0.35205078125,-0.39508056640625,-0.7720947265625,2764,598,2100,23,12,-121
148825712,0.34246826171875,-0.34381103515625,-0.40179443359375,-0.77667236328125,2706,1089,2185,23,11,-117
148835694,0.3328857421875,-0.33544921875,-0.408447265625,-0.78094482421875,2626,1575,2259,23,11,-115
148845677,0.3233642578125,-0.32708740234375,-0.4150390625,-0.7850341796875,2530,2049,2331,23,11,-112
148855659,0.31396484375,-0.31866455078125,-0.42138671875,-0.78887939453125,2413,2509,2409,23,11,-109
148865642,0.304931640625,-0.3104248046875,-0.427490234375,-0.79241943359375,2287,2960,2497,23,11,-103
148875624,0.29644775390625,-0.3023681640625,-0.433349609375,-0.79559326171875,2163,3404,2585,22,10,-95
148885606,0.2886962890625,-0.2947998046875,-0.438720703125,-0.79833984375,2029,3822,2664,21,10,-86
148895588,0.28179931640625,-0.28778076171875,-0.44366455078125,-0.8006591796875,1910,4241,2739,20,9,-74
148905572,0.27569580078125,-0.28143310546875,-0.4481201171875,-0.802490234375,1810,4639,2819,19,8,-64
148915554,0.27044677734375,-0.275634765625,-0.45220947265625,-0.80401611328125,1691,5045,2886,18,6,-53
148925542,0.26605224609375,-0.27056884765625,-0.45587158203125,-0.80517578125,1587,5430,2958,17,5,-43
148935517,0.262451171875,-0.26617431640625,-0.4591064453125,-0.80596923828125,1519,5791,3041,15,3,-32
148945502,0.25970458984375,-0.2625732421875,-0.4617919921875,-0.8065185546875,1463,6131,3129,13,2,-22
148955480,0.25775146484375,-0.2596435546875,-0.4639892578125,-0.80682373046875,1434,6462,3231,10,0,-12
148965464,0.25653076171875,-0.25750732421875,-0.4656982421875,-0.806884765625,1429,6746,3331,8,-2,-2
148975449,0.2562255859375,-0.256103515625,-0.46685791015625,-0.8067626953125,1432,6997,3414,5,-2,9
148985432,0.25677490234375,-0.25555419921875,-0.46746826171875,-0.806396484375,1449,7212,3498,2,-4,19
148995409,0.2584228515625,-0.25579833984375,-0.46746826171875,-0.8057861328125,1479,7366,3570,0,-5,32
149005397,0.26116943359375,-0.257080078125,-0.466796875,-0.804931640625,1513,7450,3606,-3,-6,45
149015372,0.26513671875,-0.2593994140625,-0.46551513671875,-0.8035888671875,1557,7460,3609,-6,-8,60
149025352,0.27044677734375,-0.26287841796875,-0.4635009765625,-0.8018798828125,1602,7374,3613,-8,-9,75
149035334,0.27728271484375,-0.26751708984375,-0.460693359375,-0.79962158203125,1684,7210,3605,-10,-11,92
149045316,0.28558349609375,-0.27349853515625,-0.45703125,-0.7967529296875,1782,6968,3599,-12,-13,109
149055300,0.29547119140625,-0.28070068359375,-0.4525146484375,-0.793212890625,1892,6648,3587,-14,-15,126
149065283,0.30682373046875,-0.2890625,-0.44720458984375,-0.7889404296875,2025,6299,3570,-16,-16,141
149075266,0.3192138671875,-0.29840087890625,-0.44110107421875,-0.783935546875,2157,5931,3517,-17,-18,153
149085256,0.33233642578125,-0.308349609375,-0.4344482421875,-0.7783203125,2262,5563,3461,-19,-20,162
149095236,0.34576416015625,-0.31878662109375,-0.42730712890625,-0.77215576171875,2375,5167,3380,-20,-21,167
149105220,0.35931396484375,-0.32965087890625,-0.41973876953125,-0.76556396484375,2482,4721,3302,-22,-23,170
149115206,0.37298583984375,-0.3408203125,-0.4117431640625,-0.75848388671875,2601,4241,3195,-23,-24,172
149125192,0.38641357421875,-0.35211181640625,-0.4034423828125,-0.7509765625,2715,3783,3095,-25,-26,172
149135174,0.3995361328125,-0.363525390625,-0.3948974609375,-0.74322509765625,2844,3355,2997,-27,-27,171
149145156,0.41217041015625,-0.37481689453125,-0.38604736328125,-0.73529052734375,2977,2958,2920,-29,-27,168
149155126,0.42431640625,-0.3861083984375,-0.37689208984375,-0.72723388671875,3096,2555,2841,-31,-28,166
149165108,0.43597412109375,-0.3973388671875,-0.3675537109375,-0.71905517578125,3200,2163,2747,-34,-28,163
149175091,0.44708251953125,-0.408447265625,-0.35797119140625,-0.71075439453125,3311,1749,2616,-36,-28,159
149185072,0.4576416015625,-0.4195556640625,-0.34814453125,-0.702392578125,3434,1286,2489,-38,-28,156
149195057,0.46783447265625,-0.43060302734375,-0.33807373046875,-0.69390869140625,3552,811,2351,-40,-27,153
149205039,0.4776611328125,-0.4415283203125,-0.32769775390625,-0.68524169921875,3691,335,2234,-42,-27,152
149215020,0.4874267578125,-0.45245361328125,-0.31683349609375,-0.67633056640625,3828,-177,2108,-43,-25,154
149225002,0.49737548828125,-0.46343994140625,-0.30535888671875,-0.66680908203125,3919,-666,1985,-44,-25,160
149234991,0.5076904296875,-0.47454833984375,-0.29315185546875,-0.6566162109375,3959,-1095,1867,-46,-24,167
149244976,0.51837158203125,-0.48583984375,-0.2801513671875,-0.6456298828125,3975,-1548,1724,-46,-24,175
149254951,0.529296875,-0.49725341796875,-0.2664794921875,-0.63372802734375,3989,-2049,1586,-47,-24,182
149264934,0.54034423828125,-0.50860595703125,-0.252197265625,-0.62115478515625,4030,-2583,1443,-47,-23,185
149274917,0.5511474609375,-0.51971435546875,-0.23760986328125,-0.6080322265625,4080,-3146,1307,-47,-22,185
149284903,0.56158447265625,-0.53045654296875,-0.22283935546875,-0.59466552734375,4164,-3715,1155,-46,-20,183
149294885,0.57159423828125,-0.54058837890625,-0.20806884765625,-0.58123779296875,4267,-4264,1036,-44,-18,179
149304868,0.58111572265625,-0.54998779296875,-0.193359375,-0.56787109375,4333,-4791,920,-43,-15,174
149314850,0.59033203125,-0.55865478515625,-0.1785888671875,-0.5545654296875,4331,-5409,786,-40,-12,172
149324831,0.59954833984375,-0.567138671875,-0.163330078125,-0.5406494140625,4272,-6141,612,-39,-11,176
149334813,0.609130859375,-0.575439453125,-0.147216796875,-0.52557373046875,4188,-6849,415,-38,-11,187
149344799,0.6190185546875,-0.58355712890625,-0.13043212890625,-0.50921630859375,4089,-7289,303,-36,-12,197
149354784,0.62872314453125,-0.5909423828125,-0.1136474609375,-0.4925537109375,3971,-7402,301,-35,-12,197
149364770,0.6375732421875,-0.597412109375,-0.09771728515625,-0.4765625,3858,-7381,375,-33,-10,186
149374750,0.645263671875,-0.6029052734375,-0.0828857421875,-0.46185302734375,3741,-7562,409,-32,-8,168
149384734,0.65185546875,-0.60791015625,-0.06878662109375,-0.4481201171875,3699,-8091,339,-30,-5,155
149394709,0.65789794921875,-0.61260986328125,-0.05487060546875,-0.43463134765625,3675,-8810,192,-29,-3,151
149404692,0.66387939453125,-0.61700439453125,-0.0406494140625,-0.42071533203125,3580,-9522,52,-27,-2,155
149414672,0.669921875,-0.6209716796875,-0.02581787109375,-0.4061279296875,3424,-10020,-39,-26,-2,163
149424656,0.6761474609375,-0.62432861328125,-0.01080322265625,-0.39111328125,3307,-10209,-3,-24,-2,167
149434639,0.68206787109375,-0.6270751953125,0.00396728515625,-0.37628173828125,3201,-10151,81,-23,-1,166
149444624,0.6873779296875,-0.6292724609375,0.0179443359375,-0.36236572265625,3087,-9980,212,-22,2,155
149454604,0.69183349609375,-0.63092041015625,0.031005859375,-0.34979248046875,2973,-9928,329,-22,5,141
149464586,0.69561767578125,-0.6322021484375,0.04327392578125,-0.3385009765625,2932,-10048,384,-21,8,129
149474570,0.69879150390625,-0.63323974609375,0.05511474609375,-0.328125,2915,-10191,466,-20,11,123
149484552,0.70172119140625,-0.63385009765625,0.06683349609375,-0.31829833984375,2861,-10269,558,-20,15,121
149494536,0.7044677734375,-0.63409423828125,0.0787353515625,-0.30889892578125,2780,-10266,659,-19,19,120
149504517,0.70709228515625,-0.6339111328125,0.09075927734375,-0.2999267578125,2696,-10183,800,-18,23,119
149514499,0.70965576171875,-0.6331787109375,0.10296630859375,-0.29132080078125,2596,-10175,932,-17,27,119
149524483,0.712158203125,-0.632080078125,0.11553955078125,-0.2828369140625,2508,-10326,1011,-15,31,122
149534463,0.7147216796875,-0.63043212890625,0.12896728515625,-0.274169921875,2399,-10556,1054,-13,36,130
149544449,0.71746826171875,-0.628173828125,0.14324951171875,-0.264892578125,2236,-10760,1066,-11,40,140
149554434,0.72039794921875,-0.62518310546875,0.15850830078125,-0.25506591796875,2021,-10847,1088,-8,43,149
149564418,0.72357177734375,-0.62139892578125,0.1744384765625,-0.24481201171875,1744,-10785,1120,-5,46,156
149574400,0.7266845703125,-0.61688232421875,0.19061279296875,-0.23455810546875,1436,-10622,1171,-2,49,158
149584376,0.729736328125,-0.61181640625,0.2066650390625,-0.22467041015625,1098,-10437,1238,0,51,154
149594356,0.73248291015625,-0.60626220703125,0.222412109375,-0.2154541015625,741,-10350,1316,3,53,148
149604338,0.7349853515625,-0.6004638671875,0.2376708984375,-0.206787109375,377,-10350,1367,5,55,143
149614320,0.7371826171875,-0.5943603515625,0.252685546875,-0.198486328125,-41,-10377,1405,7,55,140
149624306,0.73919677734375,-0.58807373046875,0.2674560546875,-0.19024658203125,-466,-10398,1409,8,54,138
149634293,0.740966796875,-0.5816650390625,0.2818603515625,-0.18206787109375,-891,-10340,1428,8,53,135
149644271,0.7425537109375,-0.5751953125,0.2957763671875,-0.17388916015625,-1313,-10231,1419,7,51,132
149654256,0.74383544921875,-0.56884765625,0.30908203125,-0.16595458984375,-1683,-10091,1435,7,48,126
149664243,0.74481201171875,-0.562744140625,0.32159423828125,-0.158447265625,-2016,-9953,1451,6,46,119
149674225,0.74554443359375,-0.55694580078125,0.3331298828125,-0.1514892578125,-2319,-9806,1489,4,43,110
149684207,0.74591064453125,-0.5516357421875,0.34381103515625,-0.14532470703125,-2579,-9645,1518,3,41,99
149694188,0.7459716796875,-0.546875,0.3533935546875,-0.139892578125,-2791,-9504,1552,1,39,88
149704180,0.7457275390625,-0.54266357421875,0.36212158203125,-0.1351318359375,-2975,-9363,1597,-1,37,78
149714159,0.7452392578125,-0.5389404296875,0.3701171875,-0.1309814453125,-3165,-9219,1649,-3,35,71
149724128,0.74462890625,-0.53564453125,0.37738037109375,-0.12713623046875,-3341,-9099,1689,-4,33,64
149734112,0.74383544921875,-0.53271484375,0.38421630859375,-0.12359619140625,-3520,-9010,1714,-6,31,60
149744094,0.74298095703125,-0.530029296875,0.390625,-0.1199951171875,-3669,-8914,1702,-7,29,57
149754078,0.7420654296875,-0.52764892578125,0.39666748046875,-0.11651611328125,-3796,-8821,1648,-8,26,54
149764059,0.7410888671875,-0.52557373046875,0.4022216796875,-0.113037109375,-3888,-8723,1589,-10,23,51
149774042,0.7401123046875,-0.52374267578125,0.40728759765625,-0.10968017578125,-3934,-8658,1546,-10,21,48
149784024,0.73919677734375,-0.5220947265625,0.41180419921875,-0.10650634765625,-4001,-8599,1542,-10,18,45
149794005,0.73834228515625,-0.52069091796875,0.4158935546875,-0.103515625,-4095,-8567,1551,-11,16,41
149803994,0.737548828125,-0.51947021484375,0.41949462890625,-0.100830078125,-4197,-8530,1546,-10,14,35
149813977,0.73675537109375,-0.5185546875,0.4224853515625,-0.09857177734375,-4288,-8494,1533,-10,12,29
149823953,0.73602294921875,-0.5179443359375,0.4249267578125,-0.09674072265625,-4337,-8436,1499,-10,10,23
149833939,0.7353515625,-0.51763916015625,0.4268798828125,-0.09527587890625,-4364,-8351,1488,-10,9,18
149843920,0.7347412109375,-0.51751708984375,0.4283447265625,-0.0941162109375,-4388,-8224,1534,-10,6,14
149853903,0.7342529296875,-0.51751708984375,0.42938232421875,-0.09295654296875,-4403,-8084,1627,-10,4,12
149863882,0.73394775390625,-0.51763916015625,0.4300537109375,-0.09161376953125,-4442,-7945,1761,-12,0,11
149873866,0.7337646484375,-0.51800537109375,0.43023681640625,-0.09014892578125,-4465,-7834,1888,-13,-3,8
149883847,0.73370361328125,-0.5186767578125,0.42987060546875,-0.08868408203125,-4475,-7720,2009,-15,-7,5
149893826,0.73370361328125,-0.5196533203125,0.428955078125,-0.08721923828125,-4479,-7629,2117,-16,-11,0
149903810,0.7337646484375,-0.52105712890625,0.42742919921875,-0.08587646484375,-4469,-7578,2188,-18,-14,-4
149913788,0.73388671875,-0.522705078125,0.4254150390625,-0.08453369140625,-4466,-7543,2249,-19,-17,-7
149923769,0.73406982421875,-0.52459716796875,0.4229736328125,-0.08319091796875,-4455,-7535,2269,-19,-20,-9
149933761,0.73431396484375,-0.52667236328125,0.4202880859375,-0.081787109375,-4405,-7568,2243,-20,-22,-9
149943742,0.734619140625,-0.52880859375,0.41748046875,-0.08026123046875,-4337,-7577,2187,-19,-24,-9
149953719,0.73492431640625,-0.5308837890625,0.41455078125,-0.07861328125,-4241,-7589,2107,-19,-25,-8
149963703,0.7353515625,-0.5328369140625,0.41162109375,-0.07696533203125,-4135,-7621,1998,-17,-26,-7
149973683,0.7357177734375,-0.53472900390625,0.40869140625,-0.07525634765625,-4028,-7640,1868,-16,-26,-6
149983666,0.7362060546875,-0.53656005859375,0.40582275390625,-0.0736083984375,-3920,-7668,1723,-15,-26,-5
149993649,0.7366943359375,-0.53814697265625,0.403076171875,-0.072021484375,-3830,-7705,1552,-12,-25,-4
