subject,Joshua Spiesman
arm,left
label,0
hz,100.17227112839117
time,5.560421

timestamp_us,q0,q1,q2,q3,ax,ay,az,gx,gy,gz
98837032,0.73681640625,0.60321044921875,-0.2550048828125,-0.16790771484375,1320,7878,1276,0,12,1
98847013,0.7371826171875,0.6033935546875,-0.2540283203125,-0.16680908203125,1316,7861,1303,1,12,2
98856996,0.73760986328125,0.6036376953125,-0.2530517578125,-0.165771484375,1323,7864,1334,1,11,2
98866985,0.7379150390625,0.60394287109375,-0.25213623046875,-0.16461181640625,1332,7885,1351,2,12,2
98876962,0.73822021484375,0.604248046875,-0.25115966796875,-0.16351318359375,1339,7918,1372,2,12,2
98886944,0.73858642578125,0.60455322265625,-0.250244140625,-0.162353515625,1347,7955,1381,1,12,2
98896926,0.7388916015625,0.60479736328125,-0.24932861328125,-0.16119384765625,1370,7993,1381,2,12,2
98906910,0.7392578125,0.60504150390625,-0.24835205078125,-0.1600341796875,1378,8013,1399,1,12,2
98916891,0.7396240234375,0.6053466796875,-0.24737548828125,-0.15887451171875,1380,8012,1409,1,12,2
98926877,0.74005126953125,0.6055908203125,-0.24639892578125,-0.15777587890625,1383,8024,1414,1,12,2
98936859,0.74041748046875,0.6058349609375,-0.24530029296875,-0.15667724609375,1376,8024,1413,1,12,1
98946841,0.74078369140625,0.6060791015625,-0.24420166015625,-0.1556396484375,1366,8016,1407,1,13,1
98956824,0.7410888671875,0.60638427734375,-0.24310302734375,-0.15460205078125,1349,8005,1407,1,12,1
98966806,0.74139404296875,0.60675048828125,-0.241943359375,-0.153564453125,1346,7990,1404,1,12,0
98976790,0.74169921875,0.6070556640625,-0.2408447265625,-0.152587890625,1329,7977,1402,1,12,0
98986769,0.74200439453125,0.607421875,-0.23968505859375,-0.151611328125,1312,7982,1403,2,12,0
98996761,0.74224853515625,0.6077880859375,-0.2386474609375,-0.150634765625,1300,7984,1393,2,12,0
99006744,0.74249267578125,0.608154296875,-0.237548828125,-0.14971923828125,1280,7964,1405,2,11,0
99016720,0.74267578125,0.60858154296875,-0.23651123046875,-0.1488037109375,1258,7961,1422,2,11,0
99026702,0.7427978515625,0.6090087890625,-0.2354736328125,-0.14788818359375,1249,7974,1408,3,10,0
99036687,0.742919921875,0.60943603515625,-0.23455810546875,-0.14697265625,1245,7980,1403,3,11,0
99046667,0.7430419921875,0.60986328125,-0.233642578125,-0.14605712890625,1242,7999,1405,3,10,1
99056651,0.7431640625,0.6102294921875,-0.23284912109375,-0.14508056640625,1248,8027,1408,3,10,2
99066635,0.74334716796875,0.610595703125,-0.2320556640625,-0.14404296875,1254,8031,1405,3,10,2
99076617,0.74346923828125,0.61090087890625,-0.2313232421875,-0.14306640625,1257,8061,1412,3,9,2
99086601,0.74359130859375,0.61126708984375,-0.23052978515625,-0.14202880859375,1251,8091,1417,3,10,2
99096582,0.7437744140625,0.61163330078125,-0.22979736328125,-0.14111328125,1253,8105,1428,3,9,1
99106566,0.743896484375,0.6119384765625,-0.22900390625,-0.1402587890625,1242,8124,1448,3,9,1
99116548,0.7440185546875,0.61224365234375,-0.22821044921875,-0.139404296875,1251,8131,1453,3,9,0
99126532,0.744140625,0.61260986328125,-0.2274169921875,-0.138671875,1228,8150,1468,2,8,0
99136514,0.7442626953125,0.6129150390625,-0.2265625,-0.13800048828125,1221,8167,1477,2,8,0
99146497,0.744384765625,0.61322021484375,-0.2257080078125,-0.1373291015625,1200,8162,1472,2,8,0
99156480,0.74456787109375,0.6134033203125,-0.2249755859375,-0.13671875,1180,8141,1482,1,7,1
99166464,0.7447509765625,0.6136474609375,-0.2242431640625,-0.1361083984375,1169,8115,1501,1,7,0
99176449,0.74493408203125,0.61376953125,-0.22357177734375,-0.135498046875,1154,8092,1518,1,6,1
99186435,0.74505615234375,0.6138916015625,-0.22296142578125,-0.13494873046875,1128,8074,1518,1,6,1
99196417,0.74517822265625,0.61407470703125,-0.22235107421875,-0.13458251953125,1095,8052,1537,2,5,0
99206405,0.7452392578125,0.6142578125,-0.2218017578125,-0.13427734375,1085,8052,1548,2,4,0
99216379,0.74530029296875,0.61444091796875,-0.22137451171875,-0.134033203125,1081,8068,1559,2,3,0
99226365,0.74530029296875,0.6146240234375,-0.220947265625,-0.1337890625,1071,8086,1564,1,3,0
99236350,0.74530029296875,0.61474609375,-0.22064208984375,-0.13360595703125,1080,8112,1565,1,2,0
99246328,0.745361328125,0.61480712890625,-0.22039794921875,-0.1334228515625,1097,8133,1570,1,2,0
99256308,0.7454833984375,0.61480712890625,-0.22021484375,-0.13330078125,1113,8160,1573,0,1,1
99266293,0.74554443359375,0.61474609375,-0.2200927734375,-0.13323974609375,1128,8187,1578,0,1,0
99276274,0.74566650390625,0.6146240234375,-0.219970703125,-0.1331787109375,1138,8182,1576,-1,0,0
99286256,0.745849609375,0.614501953125,-0.2198486328125,-0.13323974609375,1141,8189,1581,-1,-1,0
99296242,0.7459716796875,0.61431884765625,-0.21978759765625,-0.13336181640625,1150,8173,1588,-1,-1,0
99306225,0.74609375,0.6141357421875,-0.21978759765625,-0.133544921875,1152,8157,1609,-1,-2,0
99316208,0.7462158203125,0.6138916015625,-0.21978759765625,-0.13372802734375,1168,8145,1631,-1,-2,0
99326188,0.74639892578125,0.6136474609375,-0.21990966796875,-0.1339111328125,1195,8121,1645,-1,-3,0
99336180,0.74652099609375,0.6134033203125,-0.22003173828125,-0.13409423828125,1216,8114,1642,-1,-3,0
99346163,0.74664306640625,0.6131591796875,-0.22015380859375,-0.13433837890625,1236,8115,1638,-1,-3,0
99356140,0.74676513671875,0.6129150390625,-0.22039794921875,-0.134521484375,1275,8122,1623,-2,-3,0
99366115,0.74688720703125,0.61260986328125,-0.2205810546875,-0.13470458984375,1315,8125,1631,-2,-3,0
99376097,0.7470703125,0.6123046875,-0.2208251953125,-0.13494873046875,1340,8120,1633,-2,-3,0
99386082,0.7471923828125,0.61199951171875,-0.22100830078125,-0.1351318359375,1372,8107,1624,-2,-3,0
99396064,0.74737548828125,0.61163330078125,-0.22125244140625,-0.13531494140625,1411,8102,1621,-2,-3,0
99406051,0.74755859375,0.611328125,-0.221435546875,-0.13543701171875,1428,8111,1618,-2,-2,0
99416029,0.74774169921875,0.61102294921875,-0.2216796875,-0.13555908203125,1452,8126,1600,-2,-2,1
99426014,0.7479248046875,0.61065673828125,-0.221923828125,-0.13555908203125,1482,8129,1590,-2,-2,1
99435996,0.7481689453125,0.61029052734375,-0.22210693359375,-0.13555908203125,1499,8123,1588,-3,-2,0
99445984,0.74847412109375,0.60992431640625,-0.22222900390625,-0.13555908203125,1531,8124,1573,-3,-1,1
99455960,0.748779296875,0.6094970703125,-0.22235107421875,-0.13555908203125,1551,8127,1571,-4,-1,0
99465943,0.7491455078125,0.6090087890625,-0.22235107421875,-0.13555908203125,1557,8115,1571,-4,-1,0
99475931,0.74957275390625,0.6085205078125,-0.2222900390625,-0.135498046875,1546,8093,1566,-5,0,0
99485912,0.74993896484375,0.60809326171875,-0.22222900390625,-0.135498046875,1541,8045,1561,-4,1,0
99495893,0.7503662109375,0.60760498046875,-0.2220458984375,-0.13543701171875,1529,8000,1557,-5,1,0
99505877,0.750732421875,0.60723876953125,-0.22186279296875,-0.13543701171875,1506,7938,1541,-4,1,0
99515859,0.7510986328125,0.60687255859375,-0.2218017578125,-0.13531494140625,1501,7894,1525,-3,1,0
99525843,0.7513427734375,0.60662841796875,-0.2216796875,-0.13525390625,1474,7854,1510,-2,1,0
99535825,0.75152587890625,0.60650634765625,-0.2215576171875,-0.13507080078125,1468,7835,1499,-1,1,0
99545809,0.75164794921875,0.60638427734375,-0.221435546875,-0.1348876953125,1454,7816,1492,-1,1,0
99555798,0.751708984375,0.60638427734375,-0.22137451171875,-0.13470458984375,1448,7812,1479,0,1,0
99565784,0.75177001953125,0.60638427734375,-0.22119140625,-0.13446044921875,1445,7810,1470,0,2,0
99575766,0.7518310546875,0.6064453125,-0.22113037109375,-0.13421630859375,1442,7812,1461,0,2,1
99585747,0.7518310546875,0.6065673828125,-0.2210693359375,-0.1339111328125,1450,7822,1450,1,2,0
99595731,0.75177001953125,0.606689453125,-0.220947265625,-0.13360595703125,1448,7847,1424,1,2,0
99605707,0.751708984375,0.60693359375,-0.22076416015625,-0.13330078125,1453,7849,1422,2,2,0
99615694,0.75164794921875,0.607177734375,-0.2205810546875,-0.13299560546875,1444,7849,1425,2,2,-1
99625669,0.75152587890625,0.607421875,-0.2203369140625,-0.13275146484375,1456,7862,1437,2,2,-1
99635652,0.75146484375,0.607666015625,-0.2200927734375,-0.13250732421875,1475,7877,1455,2,3,-1
99645636,0.7513427734375,0.60797119140625,-0.21978759765625,-0.13214111328125,1483,7885,1459,3,3,-1
99655620,0.751220703125,0.60833740234375,-0.21942138671875,-0.13177490234375,1482,7891,1466,3,4,-1
99665603,0.75115966796875,0.608642578125,-0.21905517578125,-0.13140869140625,1486,7908,1476,3,4,-1
99675582,0.7509765625,0.60906982421875,-0.21868896484375,-0.1309814453125,1492,7923,1496,4,4,-1
99685566,0.7508544921875,0.6094970703125,-0.21826171875,-0.130615234375,1485,7949,1505,4,4,-2
99695547,0.75067138671875,0.60992431640625,-0.21783447265625,-0.1302490234375,1491,7979,1525,4,4,-2
99705531,0.75048828125,0.6103515625,-0.2174072265625,-0.1298828125,1478,8004,1535,4,4,-2
99715515,0.7503662109375,0.61077880859375,-0.21697998046875,-0.1295166015625,1472,8032,1552,4,4,-2
99725497,0.750244140625,0.61114501953125,-0.216552734375,-0.129150390625,1459,8055,1566,4,4,-1
99735481,0.75018310546875,0.6114501953125,-0.2161865234375,-0.1287841796875,1449,8081,1574,3,4,-1
99745471,0.75018310546875,0.61163330078125,-0.21575927734375,-0.12835693359375,1459,8092,1592,2,4,-1
99755449,0.75018310546875,0.61187744140625,-0.21539306640625,-0.12799072265625,1449,8087,1593,2,4,-1
99765437,0.750244140625,0.612060546875,-0.2149658203125,-0.127685546875,1434,8066,1594,2,3,-1
99775419,0.750244140625,0.61224365234375,-0.21453857421875,-0.12744140625,1421,8053,1588,2,3,-2
99785401,0.750244140625,0.6124267578125,-0.214111328125,-0.12725830078125,1411,8023,1569,2,3,-2
99795377,0.7501220703125,0.6126708984375,-0.2137451171875,-0.12701416015625,1409,8010,1554,2,3,-2
99805361,0.75006103515625,0.61297607421875,-0.21343994140625,-0.12677001953125,1417,8004,1522,3,3,-1
99815354,0.74993896484375,0.61328125,-0.21319580078125,-0.12640380859375,1409,8001,1497,3,3,0
99825333,0.74981689453125,0.61358642578125,-0.21307373046875,-0.1259765625,1406,8028,1459,3,3,1
99835313,0.74969482421875,0.61383056640625,-0.2130126953125,-0.1253662109375,1414,8052,1431,3,3,2
99845295,0.74957275390625,0.6141357421875,-0.21295166015625,-0.12469482421875,1433,8075,1383,3,3,2
99855276,0.74951171875,0.61444091796875,-0.2127685546875,-0.12408447265625,1435,8095,1348,3,4,2
99865264,0.74945068359375,0.61468505859375,-0.21258544921875,-0.12347412109375,1438,8108,1331,2,4,1
99875243,0.7493896484375,0.61492919921875,-0.21234130859375,-0.12286376953125,1432,8112,1313,2,4,1
99885231,0.7493896484375,0.61517333984375,-0.2120361328125,-0.122314453125,1429,8109,1305,2,5,1
99895215,0.74945068359375,0.6153564453125,-0.211669921875,-0.1217041015625,1407,8112,1294,1,5,1
99905193,0.74945068359375,0.6156005859375,-0.21124267578125,-0.12115478515625,1392,8121,1284,1,5,0
99915187,0.74945068359375,0.6158447265625,-0.2108154296875,-0.12066650390625,1373,8119,1276,1,5,1
99925173,0.74951171875,0.61602783203125,-0.21038818359375,-0.1201171875,1370,8116,1275,1,5,1
99935156,0.74951171875,0.61627197265625,-0.2100830078125,-0.11956787109375,1339,8120,1273,1,5,1
99945127,0.74951171875,0.616455078125,-0.20977783203125,-0.1190185546875,1314,8126,1263,1,4,2
99955105,0.74951171875,0.61663818359375,-0.20953369140625,-0.118408203125,1276,8159,1267,1,4,3
99965090,0.74945068359375,0.6168212890625,-0.20941162109375,-0.11773681640625,1232,8215,1254,2,3,4
99975072,0.74945068359375,0.61700439453125,-0.20941162109375,-0.11712646484375,1178,8263,1253,1,3,5
99985056,0.74945068359375,0.61700439453125,-0.20947265625,-0.11663818359375,1124,8323,1269,0,1,5
99995036,0.74951171875,0.6170654296875,-0.20965576171875,-0.1162109375,1074,8384,1280,0,0,5
100005019,0.74951171875,0.616943359375,-0.2098388671875,-0.11602783203125,1014,8440,1301,-1,-1,4
100015000,0.74957275390625,0.6168212890625,-0.21002197265625,-0.11602783203125,958,8492,1318,-1,-3,3
100024986,0.74969482421875,0.6165771484375,-0.21026611328125,-0.11627197265625,907,8530,1343,-3,-4,2
100034962,0.749755859375,0.61627197265625,-0.21063232421875,-0.11669921875,862,8580,1341,-4,-6,2
100044944,0.74993896484375,0.6158447265625,-0.21099853515625,-0.1173095703125,824,8619,1337,-5,-7,2
100054926,0.7501220703125,0.615234375,-0.21148681640625,-0.1181640625,793,8661,1339,-7,-9,1
100064910,0.75042724609375,0.614501953125,-0.2120361328125,-0.11920166015625,750,8688,1324,-8,-10,1
100074892,0.75079345703125,0.6136474609375,-0.212646484375,-0.12042236328125,703,8716,1301,-10,-12,0
100087995,0.75115966796875,0.61260986328125,-0.21331787109375,-0.12188720703125,647,8721,1280,-12,-13,0
100094857,0.7515869140625,0.61151123046875,-0.214111328125,-0.12347412109375,588,8711,1265,-13,-15,0
100104841,0.7520751953125,0.6102294921875,-0.21502685546875,-0.12530517578125,515,8693,1250,-14,-17,0
100114824,0.7525634765625,0.60882568359375,-0.216064453125,-0.12738037109375,459,8641,1237,-15,-19,-1
100124805,0.7529296875,0.607421875,-0.21722412109375,-0.12982177734375,398,8564,1213,-15,-22,-3
100134788,0.7532958984375,0.60601806640625,-0.21844482421875,-0.132568359375,338,8488,1178,-16,-24,-4
100144766,0.7535400390625,0.60455322265625,-0.21978759765625,-0.13555908203125,261,8412,1133,-16,-26,-5
100154759,0.75372314453125,0.60302734375,-0.2213134765625,-0.13885498046875,187,8345,1109,-17,-29,-5
100164742,0.75372314453125,0.60150146484375,-0.22308349609375,-0.14239501953125,115,8293,1078,-16,-32,-5
100174720,0.75372314453125,0.599853515625,-0.22515869140625,-0.1461181640625,59,8248,1060,-17,-35,-5
100184702,0.753662109375,0.59808349609375,-0.2275390625,-0.14996337890625,-8,8207,1052,-17,-38,-4
100194684,0.75347900390625,0.59619140625,-0.23028564453125,-0.154052734375,-68,8158,1038,-18,-42,-2
100204667,0.75323486328125,0.59417724609375,-0.23333740234375,-0.15826416015625,-117,8127,1020,-17,-45,-2
100214650,0.7529296875,0.59210205078125,-0.23675537109375,-0.16265869140625,-151,8098,1013,-18,-48,-2
100224635,0.75244140625,0.58984375,-0.24041748046875,-0.1673583984375,-167,8059,992,-18,-52,-2
100234617,0.7518310546875,0.58758544921875,-0.24432373046875,-0.17236328125,-164,8022,973,-18,-54,-4
100244599,0.7510986328125,0.58526611328125,-0.24835205078125,-0.1778564453125,-137,7978,956,-18,-58,-6
100254586,0.75006103515625,0.5830078125,-0.25244140625,-0.18377685546875,-126,7936,932,-18,-61,-10
100264566,0.748779296875,0.580810546875,-0.256591796875,-0.19012451171875,-119,7871,917,-17,-64,-12
100274550,0.74725341796875,0.57855224609375,-0.26092529296875,-0.19683837890625,-109,7802,908,-17,-67,-14
100284534,0.74542236328125,0.57635498046875,-0.265380859375,-0.2039794921875,-83,7720,887,-16,-70,-17
100294516,0.743408203125,0.57421875,-0.27008056640625,-0.21136474609375,-56,7661,854,-15,-73,-18
100304502,0.7410888671875,0.572021484375,-0.2750244140625,-0.21893310546875,-19,7584,799,-14,-77,-18
100314483,0.73846435546875,0.56982421875,-0.2802734375,-0.22662353515625,-1,7515,739,-13,-80,-18
100324468,0.735595703125,0.5675048828125,-0.28582763671875,-0.234619140625,16,7426,667,-12,-83,-19
100334449,0.732421875,0.56524658203125,-0.2916259765625,-0.24273681640625,35,7344,579,-11,-86,-19
100344431,0.72894287109375,0.56298828125,-0.2977294921875,-0.2510986328125,47,7255,486,-9,-90,-20
100354422,0.72509765625,0.5606689453125,-0.30413818359375,-0.259521484375,54,7165,386,-8,-93,-20
100364404,0.7208251953125,0.558349609375,-0.31097412109375,-0.26812744140625,82,7068,257,-6,-97,-20
100374380,0.7161865234375,0.55609130859375,-0.318115234375,-0.27679443359375,92,6937,115,-4,-100,-20
100384361,0.71112060546875,0.5538330078125,-0.32568359375,-0.28546142578125,88,6794,-40,-2,-103,-19
100394350,0.70562744140625,0.551513671875,-0.33367919921875,-0.294189453125,69,6619,-171,1,-108,-18
100404328,0.69970703125,0.54913330078125,-0.342041015625,-0.302978515625,55,6444,-309,4,-112,-18
100414312,0.69329833984375,0.54681396484375,-0.3509521484375,-0.31170654296875,48,6304,-457,7,-115,-16
100424294,0.6864013671875,0.54443359375,-0.3604736328125,-0.3201904296875,55,6196,-605,10,-119,-13
100434278,0.67901611328125,0.54193115234375,-0.37054443359375,-0.32843017578125,83,6106,-779,14,-122,-10
100444262,0.6712646484375,0.539306640625,-0.38116455078125,-0.33636474609375,127,6023,-942,17,-126,-7
100454240,0.6630859375,0.53656005859375,-0.392333984375,-0.34417724609375,197,5966,-1129,19,-130,-6
100464232,0.6544189453125,0.53363037109375,-0.40380859375,-0.3519287109375,256,5943,-1313,21,-133,-5
100474217,0.64532470703125,0.53057861328125,-0.41558837890625,-0.35968017578125,318,5985,-1485,22,-136,-5
100484195,0.63580322265625,0.5272216796875,-0.4276123046875,-0.36737060546875,366,6071,-1669,23,-140,-3
100494194,0.6259765625,0.52337646484375,-0.44012451171875,-0.37481689453125,403,6224,-1851,23,-144,2
100504173,0.615966796875,0.5189208984375,-0.4532470703125,-0.38189697265625,464,6486,-2033,24,-148,10
100514156,0.60595703125,0.5135498046875,-0.46728515625,-0.38824462890625,557,6800,-2234,24,-152,21
100524125,0.5960693359375,0.507080078125,-0.48223876953125,-0.39373779296875,656,7140,-2441,23,-156,33
100534109,0.58624267578125,0.49951171875,-0.4979248046875,-0.3985595703125,782,7491,-2664,22,-159,44
100544090,0.57647705078125,0.49090576171875,-0.51422119140625,-0.40283203125,917,7815,-2882,20,-163,53
100554072,0.566650390625,0.481201171875,-0.5308837890625,-0.40679931640625,1057,8103,-3099,18,-167,59
100564055,0.55657958984375,0.470703125,-0.5477294921875,-0.41064453125,1198,8344,-3332,16,-171,63
100574038,0.54620361328125,0.45947265625,-0.56451416015625,-0.41455078125,1317,8509,-3556,13,-175,64
100584021,0.53533935546875,0.44781494140625,-0.5810546875,-0.41864013671875,1444,8604,-3782,11,-178,62
100594003,0.52386474609375,0.435791015625,-0.59722900390625,-0.423095703125,1548,8642,-3985,9,-182,58
100603991,0.5115966796875,0.4237060546875,-0.61285400390625,-0.427978515625,1669,8604,-4154,7,-184,51
100613978,0.49853515625,0.4117431640625,-0.62786865234375,-0.43328857421875,1796,8522,-4317,7,-186,43
100623954,0.484619140625,0.39996337890625,-0.642333984375,-0.4388427734375,1940,8397,-4471,7,-189,35
100633938,0.4698486328125,0.38848876953125,-0.65618896484375,-0.44464111328125,2111,8268,-4611,9,-190,27
100643920,0.454345703125,0.37738037109375,-0.66961669921875,-0.45037841796875,2282,8118,-4746,11,-192,21
100653903,0.4381103515625,0.36639404296875,-0.68267822265625,-0.455810546875,2427,7914,-4884,15,-193,17
100663885,0.4215087890625,0.35546875,-0.695556640625,-0.46063232421875,2526,7706,-5011,19,-192,17
100673868,0.4046630859375,0.34442138671875,-0.70831298828125,-0.4647216796875,2593,7501,-5136,23,-192,20
100683851,0.38775634765625,0.3330078125,-0.72100830078125,-0.46783447265625,2675,7294,-5262,27,-191,24
100693838,0.37091064453125,0.32122802734375,-0.733642578125,-0.4700927734375,2757,7094,-5353,31,-189,29
100703822,0.354248046875,0.3092041015625,-0.74615478515625,-0.4713134765625,2869,6860,-5418,35,-186,32
100713805,0.33770751953125,0.297119140625,-0.7584228515625,-0.47174072265625,2983,6633,-5464,40,-183,34
100723791,0.32122802734375,0.28521728515625,-0.77032470703125,-0.4713134765625,3110,6442,-5492,44,-180,33
100733769,0.30474853515625,0.273681640625,-0.78173828125,-0.47027587890625,3252,6322,-5513,48,-176,30
100743764,0.288330078125,0.2628173828125,-0.79266357421875,-0.46856689453125,3421,6245,-5554,52,-171,25
100753746,0.27197265625,0.25262451171875,-0.80303955078125,-0.46624755859375,3590,6215,-5628,56,-166,21
100763722,0.2557373046875,0.2431640625,-0.8128662109375,-0.46343994140625,3742,6244,-5716,59,-161,16
100773704,0.23980712890625,0.234375,-0.82220458984375,-0.4599609375,3880,6302,-5831,62,-154,13
100783688,0.22430419921875,0.22613525390625,-0.8310546875,-0.4560546875,3995,6389,-5927,65,-148,11
100793670,0.20953369140625,0.21826171875,-0.83941650390625,-0.45159912109375,4026,6496,-6030,66,-140,12
100803654,0.19561767578125,0.21044921875,-0.84735107421875,-0.44659423828125,4109,6580,-6128,68,-133,16
100813636,0.182861328125,0.20257568359375,-0.85498046875,-0.44110107421875,4164,6670,-6223,68,-124,21
100823620,0.17138671875,0.19439697265625,-0.8623046875,-0.4351806640625,4185,6762,-6294,68,-115,28
100833602,0.1612548828125,0.185791015625,-0.8692626953125,-0.42889404296875,4179,6831,-6328,67,-107,36
100843584,0.152587890625,0.17657470703125,-0.87591552734375,-0.42236328125,4174,6885,-6335,67,-98,46
100853567,0.145263671875,0.16668701171875,-0.88226318359375,-0.41558837890625,4181,6930,-6343,65,-90,56
100863549,0.13934326171875,0.15631103515625,-0.88836669921875,-0.40875244140625,4218,6989,-6376,63,-82,63
100873531,0.13470458984375,0.14569091796875,-0.89398193359375,-0.40179443359375,4273,7075,-6458,60,-74,68
100883515,0.13104248046875,0.13519287109375,-0.89923095703125,-0.39495849609375,4313,7177,-6556,57,-65,69
100893499,0.12823486328125,0.12518310546875,-0.9039306640625,-0.38836669921875,4332,7241,-6617,54,-57,67
100903483,0.12628173828125,0.11572265625,-0.90814208984375,-0.38214111328125,4298,7286,-6633,50,-50,66
100913464,0.12493896484375,0.106689453125,-0.911865234375,-0.37628173828125,4201,7289,-6604,47,-42,64
100923449,0.12432861328125,0.0980224609375,-0.91510009765625,-0.370849609375,4101,7258,-6514,43,-35,65
100933436,0.1243896484375,0.08966064453125,-0.91802978515625,-0.36578369140625,3997,7200,-6408,39,-29,64
100943419,0.125,0.0819091796875,-0.9205322265625,-0.361083984375,3905,7091,-6304,35,-23,60
100953401,0.1259765625,0.0750732421875,-0.922607421875,-0.35687255859375,3835,6981,-6232,32,-17,53
100963378,0.12725830078125,0.06939697265625,-0.92431640625,-0.35308837890625,3780,6873,-6185,28,-12,44
100973359,0.12872314453125,0.06500244140625,-0.92572021484375,-0.3497314453125,3680,6774,-6171,25,-6,35
100983337,0.1304931640625,0.06146240234375,-0.92681884765625,-0.3468017578125,3586,6684,-6174,22,-1,30
100993324,0.13250732421875,0.05859375,-0.92767333984375,-0.34417724609375,3497,6598,-6250,19,4,26
101003304,0.13482666015625,0.05645751953125,-0.92840576171875,-0.34173583984375,3439,6531,-6375,18,8,21
101013286,0.1373291015625,0.05499267578125,-0.928955078125,-0.33941650390625,3394,6468,-6546,16,13,16
101023270,0.13995361328125,0.054443359375,-0.92938232421875,-0.33721923828125,3351,6386,-6728,15,16,9
101033245,0.142578125,0.05499267578125,-0.9296875,-0.335205078125,3268,6287,-6901,15,20,1
101043237,0.14501953125,0.05657958984375,-0.929931640625,-0.333251953125,3120,6161,-7033,14,22,-7
101053217,0.14739990234375,0.05908203125,-0.93011474609375,-0.331298828125,2956,5986,-7101,15,25,-13
101063205,0.14971923828125,0.06219482421875,-0.93023681640625,-0.329345703125,2779,5788,-7112,16,26,-17
101073189,0.1519775390625,0.065673828125,-0.93035888671875,-0.3272705078125,2620,5599,-7100,17,28,-19
101083174,0.15423583984375,0.0694580078125,-0.93048095703125,-0.32501220703125,2505,5413,-7082,18,29,-22
101093154,0.15643310546875,0.07366943359375,-0.9306640625,-0.322509765625,2405,5223,-7086,20,29,-25
101103125,0.15838623046875,0.07855224609375,-0.93084716796875,-0.31982421875,2289,4987,-7049,23,30,-31
101113109,0.16015625,0.08404541015625,-0.93109130859375,-0.31683349609375,2172,4724,-6981,25,30,-36
101123091,0.16156005859375,0.09027099609375,-0.931396484375,-0.31353759765625,2069,4444,-6897,29,30,-42
101133076,0.16278076171875,0.0970458984375,-0.93170166015625,-0.30987548828125,1996,4209,-6816,32,29,-46
101143058,0.16375732421875,0.10443115234375,-0.9320068359375,-0.3060302734375,1958,4055,-6760,35,29,-51
101153041,0.1646728515625,0.11236572265625,-0.93231201171875,-0.3018798828125,1974,3956,-6733,38,30,-55
101163025,0.16546630859375,0.12078857421875,-0.93255615234375,-0.2974853515625,2060,3930,-6721,41,30,-60
101173007,0.16619873046875,0.1298828125,-0.9326171875,-0.29290771484375,2167,3919,-6756,43,31,-66
101182996,0.1668701171875,0.13970947265625,-0.93255615234375,-0.2882080078125,2308,3975,-6831,45,33,-72
101192981,0.1676025390625,0.1502685546875,-0.9322509765625,-0.28338623046875,2455,4023,-6956,45,35,-77
101202958,0.1685791015625,0.1612548828125,-0.93170166015625,-0.2784423828125,2596,4092,-7137,46,38,-80
101212941,0.1700439453125,0.1722412109375,-0.93096923828125,-0.27349853515625,2727,4190,-7346,45,41,-78
101222925,0.17218017578125,0.1826171875,-0.9300537109375,-0.2685546875,2831,4310,-7500,43,46,-71
101232909,0.175048828125,0.192138671875,-0.92901611328125,-0.2635498046875,2898,4410,-7590,41,50,-62
101242891,0.1785888671875,0.2005615234375,-0.92791748046875,-0.258544921875,2929,4507,-7614,39,52,-52
101252877,0.18280029296875,0.2081298828125,-0.92681884765625,-0.253662109375,2959,4620,-7622,37,55,-44
101262859,0.1875,0.21514892578125,-0.925537109375,-0.2490234375,2994,4757,-7605,33,58,-41
101272841,0.19268798828125,0.221923828125,-0.9239501953125,-0.24481201171875,3067,4893,-7567,29,60,-39
101282824,0.1983642578125,0.228759765625,-0.92205810546875,-0.24114990234375,3168,5031,-7511,25,64,-41
101292804,0.2044677734375,0.2357177734375,-0.9197998046875,-0.23797607421875,3306,5107,-7465,19,66,-43
101302790,0.2109375,0.2431640625,-0.91705322265625,-0.2353515625,3436,5136,-7435,14,69,-49
101312768,0.2176513671875,0.25152587890625,-0.91375732421875,-0.2333984375,3548,5120,-7412,8,73,-58
101322760,0.224609375,0.26068115234375,-0.90985107421875,-0.2320556640625,3600,5046,-7358,3,76,-66
101332740,0.2318115234375,0.27008056640625,-0.905517578125,-0.23114013671875,3630,4951,-7282,-2,79,-67
101342715,0.23931884765625,0.27923583984375,-0.90093994140625,-0.23046875,3649,4847,-7231,-5,80,-64
101352698,0.2471923828125,0.28778076171875,-0.89630126953125,-0.229736328125,3695,4718,-7188,-7,82,-59
101362680,0.25543212890625,0.29547119140625,-0.8917236328125,-0.22882080078125,3743,4557,-7144,-9,83,-51
101372663,0.26397705078125,0.30206298828125,-0.8873291015625,-0.2275390625,3799,4387,-7067,-9,84,-42
101382647,0.27276611328125,0.3076171875,-0.8831787109375,-0.22589111328125,3862,4232,-7011,-10,84,-33
101392629,0.28173828125,0.3123779296875,-0.87921142578125,-0.2237548828125,3910,4101,-6972,-8,86,-26
101402613,0.29083251953125,0.31640625,-0.87542724609375,-0.22125244140625,3932,3987,-6892,-8,86,-18
101412594,0.30010986328125,0.3194580078125,-0.8719482421875,-0.21832275390625,3964,3896,-6777,-7,86,-9
101422583,0.30963134765625,0.32147216796875,-0.86865234375,-0.2149658203125,4023,3864,-6626,-5,86,1
101432561,0.3193359375,0.32232666015625,-0.86578369140625,-0.2110595703125,4124,3879,-6556,-4,86,12
101442543,0.32916259765625,0.322021484375,-0.86334228515625,-0.20660400390625,4246,3913,-6520,-3,85,23
101452532,0.33892822265625,0.3206787109375,-0.8612060546875,-0.20147705078125,4360,3942,-6484,0,84,33
101462512,0.3486328125,0.31854248046875,-0.85943603515625,-0.19586181640625,4452,3940,-6402,2,83,40
101472491,0.358154296875,0.31573486328125,-0.85791015625,-0.18975830078125,4522,3967,-6340,5,81,47
101482476,0.36737060546875,0.312255859375,-0.856689453125,-0.1832275390625,4569,4019,-6307,8,78,54
101492459,0.37628173828125,0.30810546875,-0.8558349609375,-0.17633056640625,4620,4079,-6270,9,76,61
101502437,0.385009765625,0.30322265625,-0.8551025390625,-0.16912841796875,4648,4133,-6070,11,74,68
101512430,0.39337158203125,0.2978515625,-0.85467529296875,-0.16168212890625,4672,4171,-5816,13,69,72
101522414,0.40106201171875,0.2923583984375,-0.85430908203125,-0.154296875,4723,4290,-5741,16,64,71
101532396,0.40777587890625,0.28753662109375,-0.85400390625,-0.1474609375,4776,4425,-5741,16,58,63
101542373,0.41357421875,0.2838134765625,-0.853515625,-0.141357421875,4860,4565,-5828,16,52,51
101552362,0.41851806640625,0.28131103515625,-0.85272216796875,-0.13616943359375,4995,4750,-6025,16,48,38
101562342,0.4227294921875,0.27996826171875,-0.851806640625,-0.13177490234375,5133,4911,-6292,15,44,28
101572326,0.4263916015625,0.27911376953125,-0.850830078125,-0.1278076171875,5289,4984,-6513,14,41,24
101582312,0.429931640625,0.27825927734375,-0.8499755859375,-0.1239013671875,5470,4914,-6582,14,39,24
101592295,0.4334716796875,0.27703857421875,-0.84918212890625,-0.11962890625,5676,4713,-6520,16,38,26
101602279,0.4368896484375,0.275634765625,-0.8485107421875,-0.11474609375,5836,4400,-6388,19,37,28
101612260,0.44000244140625,0.27423095703125,-0.84814453125,-0.10919189453125,5957,4040,-6238,25,34,30
101622240,0.44268798828125,0.2723388671875,-0.84814453125,-0.1025390625,6057,3616,-6095,31,32,38
101632232,0.44500732421875,0.26953125,-0.8487548828125,-0.09442138671875,6155,3168,-5999,39,30,52
101642214,0.447021484375,0.265380859375,-0.85009765625,-0.0843505859375,6239,2693,-5910,49,28,68
101652193,0.44854736328125,0.25994873046875,-0.85205078125,-0.07220458984375,6277,2199,-5851,59,26,85
101662185,0.44940185546875,0.25323486328125,-0.854736328125,-0.05810546875,6238,1728,-5851,69,23,102
101672173,0.44940185546875,0.245361328125,-0.85797119140625,-0.042236328125,6154,1278,-5880,79,18,117
101682145,0.4483642578125,0.23663330078125,-0.86163330078125,-0.02471923828125,6014,848,-5917,89,14,129
101692122,0.4461669921875,0.22747802734375,-0.86553955078125,-0.00592041015625,5821,439,-5959,99,8,135
101702106,0.44281005859375,0.21868896484375,-0.86944580078125,0.01373291015625,5557,98,-6032,109,2,134
101712086,0.4381103515625,0.21087646484375,-0.8731689453125,0.03369140625,5307,-164,-6128,117,-5,128
101722069,0.43212890625,0.2041015625,-0.87677001953125,0.0535888671875,5065,-328,-6255,124,-13,122
101732053,0.42498779296875,0.1978759765625,-0.8802490234375,0.0736083984375,4824,-443,-6364,129,-20,120
101742033,0.41656494140625,0.1917724609375,-0.88372802734375,0.09368896484375,4558,-508,-6445,133,-28,122
101752016,0.406982421875,0.18548583984375,-0.88714599609375,0.11370849609375,4277,-549,-6505,135,-37,125
101762000,0.39617919921875,0.1793212890625,-0.89056396484375,0.13348388671875,4005,-549,-6534,136,-46,124
101771990,0.38446044921875,0.173583984375,-0.89373779296875,0.152587890625,3817,-460,-6517,136,-53,120
101781967,0.37213134765625,0.1685791015625,-0.89666748046875,0.17071533203125,3758,-207,-6392,134,-60,113
101791948,0.35968017578125,0.16455078125,-0.89910888671875,0.1873779296875,3758,164,-6177,129,-66,103
101801932,0.34722900390625,0.1614990234375,-0.90130615234375,0.2025146484375,3768,585,-5945,123,-70,94
101811915,0.3348388671875,0.15924072265625,-0.90325927734375,0.2159423828125,3810,1025,-5719,114,-73,85
101821896,0.32293701171875,0.1578369140625,-0.90496826171875,0.2276611328125,3929,1348,-5534,105,-74,73
101831880,0.31146240234375,0.15716552734375,-0.906494140625,0.23785400390625,4021,1501,-5378,94,-74,63
101841864,0.30059814453125,0.15728759765625,-0.9078369140625,0.24652099609375,4100,1571,-5253,85,-73,51
101851847,0.290283203125,0.15814208984375,-0.9090576171875,0.25372314453125,4149,1559,-5158,75,-73,40
101861831,0.280517578125,0.15966796875,-0.91021728515625,0.259521484375,4152,1466,-5060,65,-72,31
101871812,0.271240234375,0.16156005859375,-0.911376953125,0.2640380859375,4012,1304,-4953,55,-71,24
101881796,0.26214599609375,0.16363525390625,-0.91265869140625,0.2674560546875,3830,1200,-4815,46,-70,19
101891784,0.2537841796875,0.1658935546875,-0.91400146484375,0.2696533203125,3830,1040,-4694,36,-69,13
101901767,0.2459716796875,0.16851806640625,-0.91534423828125,0.27069091796875,3692,903,-4598,27,-67,6
101911750,0.2384033203125,0.17138671875,-0.91680908203125,0.270751953125,3619,703,-4558,19,-66,2
101921731,0.231201171875,0.174072265625,-0.9183349609375,0.26995849609375,3677,456,-4555,11,-66,2
101931709,0.22430419921875,0.17633056640625,-0.92010498046875,0.2684326171875,3725,163,-4566,3,-64,4
101941688,0.2176513671875,0.17791748046875,-0.92193603515625,0.26641845703125,3796,-95,-4600,-4,-63,7
101951668,0.2113037109375,0.17913818359375,-0.9239501953125,0.2637939453125,3950,-332,-4689,-9,-62,7
101961651,0.20538330078125,0.18023681640625,-0.9259033203125,0.2607421875,4211,-595,-4800,-14,-60,6
101971635,0.199951171875,0.1812744140625,-0.9278564453125,0.25738525390625,4539,-880,-4921,-17,-58,6
101981618,0.19476318359375,0.181884765625,-0.92974853515625,0.25408935546875,4865,-1209,-5077,-19,-56,10
101991599,0.1898193359375,0.1817626953125,-0.931640625,0.2509765625,5128,-1562,-5254,-20,-53,15
102001583,0.18505859375,0.18096923828125,-0.93353271484375,0.24810791015625,5325,-1932,-5425,-20,-50,19
102011564,0.1805419921875,0.17974853515625,-0.935302734375,0.24566650390625,5431,-2403,-5605,-19,-46,21
102021548,0.17620849609375,0.17828369140625,-0.9368896484375,0.24371337890625,5470,-2939,-5858,-17,-43,21
102031529,0.17193603515625,0.17694091796875,-0.9383544921875,0.24212646484375,5447,-3416,-6248,-14,-41,18
102041513,0.16766357421875,0.17559814453125,-0.939697265625,0.240966796875,5434,-3843,-6730,-11,-39,20
102051496,0.16339111328125,0.1734619140625,-0.9410400390625,0.240234375,5466,-4188,-7189,-8,-36,28
102061480,0.1591796875,0.1700439453125,-0.9423828125,0.2401123046875,5505,-4388,-7589,-6,-33,40
102071463,0.1551513671875,0.16546630859375,-0.94384765625,0.24029541015625,5566,-4509,-7869,-4,-29,49
102081449,0.151611328125,0.160400390625,-0.94512939453125,0.2408447265625,5636,-4582,-8090,-2,-24,50
102091432,0.14886474609375,0.15582275390625,-0.9461669921875,0.2415771484375,5666,-4700,-8274,-1,-18,43
102101418,0.14703369140625,0.15240478515625,-0.94677734375,0.242431640625,5685,-4880,-8446,1,-13,30
102111400,0.146240234375,0.15045166015625,-0.94696044921875,0.243408203125,5687,-5056,-8585,3,-6,16
102121380,0.14666748046875,0.14984130859375,-0.94671630859375,0.24462890625,5696,-5164,-8682,5,1,3
102131358,0.14813232421875,0.1505126953125,-0.946044921875,0.24578857421875,5725,-5092,-8718,7,7,-8
102141339,0.15069580078125,0.152099609375,-0.945068359375,0.24700927734375,5793,-4894,-8657,9,13,-16
102151320,0.15423583984375,0.15423583984375,-0.94384765625,0.24810791015625,5903,-4582,-8521,9,19,-21
102161302,0.1588134765625,0.15655517578125,-0.9425048828125,0.24896240234375,6014,-4278,-8346,7,26,-24
102171285,0.16436767578125,0.158935546875,-0.94097900390625,0.24957275390625,6086,-4024,-8163,5,33,-27
102181267,0.1707763671875,0.161376953125,-0.9393310546875,0.24993896484375,6050,-3882,-8022,2,41,-30
102191246,0.17791748046875,0.1639404296875,-0.9375,0.250244140625,5947,-3899,-7905,0,48,-34
102201239,0.185791015625,0.166748046875,-0.93536376953125,0.25048828125,5817,-3996,-7787,-2,54,-40
102211219,0.1943359375,0.16998291015625,-0.93304443359375,0.25067138671875,5716,-4096,-7663,-3,59,-46
102221205,0.20355224609375,0.17376708984375,-0.9302978515625,0.25079345703125,5672,-4152,-7549,-3,64,-53
102231192,0.21343994140625,0.17822265625,-0.92724609375,0.25079345703125,5683,-4140,-7408,-2,68,-60
102241175,0.22393798828125,0.18316650390625,-0.92376708984375,0.2508544921875,5717,-4049,-7248,-1,72,-65
102251161,0.23504638671875,0.1885986328125,-0.919921875,0.25091552734375,5774,-3939,-7056,0,77,-70
102261138,0.24676513671875,0.19427490234375,-0.91558837890625,0.25115966796875,5811,-3883,-6862,2,81,-74
102271118,0.2587890625,0.2001953125,-0.91082763671875,0.2515869140625,5810,-3869,-6686,4,86,-78
102281101,0.27117919921875,0.20648193359375,-0.9056396484375,0.252197265625,5756,-3844,-6511,6,90,-82
102291084,0.28375244140625,0.21307373046875,-0.9000244140625,0.2530517578125,5690,-3826,-6381,9,92,-85
102301068,0.29638671875,0.21966552734375,-0.89404296875,0.254150390625,5715,-3792,-6280,12,95,-85
102311052,0.30902099609375,0.2259521484375,-0.88775634765625,0.25567626953125,5792,-3713,-6182,15,97,-82
102321031,0.3214111328125,0.23175048828125,-0.8812255859375,0.2576904296875,5871,-3589,-6069,19,98,-76
102331014,0.3336181640625,0.23699951171875,-0.87451171875,0.26031494140625,5946,-3495,-5953,23,99,-70
102340997,0.34552001953125,0.24169921875,-0.86767578125,0.263427734375,6009,-3452,-5875,25,101,-65
102350987,0.357177734375,0.24578857421875,-0.860595703125,0.26715087890625,6083,-3460,-5811,28,103,-60
102360964,0.36865234375,0.2493896484375,-0.8533935546875,0.2713623046875,6174,-3397,-5738,32,105,-55
102370951,0.38018798828125,0.252685546875,-0.84588623046875,0.27587890625,6299,-3245,-5624,34,107,-52
102380935,0.39178466796875,0.25579833984375,-0.83807373046875,0.28057861328125,6412,-3003,-5469,36,110,-51
102390918,0.403564453125,0.25897216796875,-0.829833984375,0.285400390625,6489,-2779,-5284,38,112,-52
102400900,0.41552734375,0.262451171875,-0.8211669921875,0.28997802734375,6571,-2585,-5126,38,114,-57
102410884,0.42779541015625,0.2664794921875,-0.81201171875,0.2943115234375,6683,-2408,-4995,39,117,-63
102420866,0.44049072265625,0.27093505859375,-0.80224609375,0.2982177734375,6889,-2233,-4908,38,120,-70
102430848,0.4537353515625,0.27581787109375,-0.7918701171875,0.30157470703125,7141,-2087,-4873,36,124,-76
102440832,0.467529296875,0.2808837890625,-0.7808837890625,0.30450439453125,7409,-1929,-4874,35,130,-81
102450814,0.48187255859375,0.28607177734375,-0.769287109375,0.306884765625,7692,-1769,-4911,32,136,-87
102460798,0.49688720703125,0.291259765625,-0.75701904296875,0.30859375,7944,-1614,-4887,28,142,-93
102470784,0.512451171875,0.29638671875,-0.74407958984375,0.30963134765625,8212,-1488,-4845,23,147,-98
102480768,0.528564453125,0.3011474609375,-0.7305908203125,0.30999755859375,8462,-1345,-4810,17,153,-101
102490752,0.54510498046875,0.3055419921875,-0.71661376953125,0.3096923828125,8705,-1172,-4753,11,158,-104
102500735,0.5621337890625,0.3094482421875,-0.7021484375,0.30865478515625,8999,-941,-4666,5,163,-107
102510705,0.57965087890625,0.31298828125,-0.68701171875,0.306640625,9250,-699,-4623,-2,168,-112
102520688,0.59759521484375,0.31622314453125,-0.67138671875,0.30352783203125,9424,-430,-4530,-10,172,-117
102530671,0.6158447265625,0.31903076171875,-0.65521240234375,0.29937744140625,9527,-154,-4401,-18,175,-123
102540654,0.63446044921875,0.32135009765625,-0.6385498046875,0.29400634765625,9526,127,-4213,-27,177,-128
102550637,0.65313720703125,0.32318115234375,-0.62158203125,0.28741455078125,9440,409,-3990,-36,178,-132
102560620,0.67169189453125,0.32427978515625,-0.60443115234375,0.27972412109375,9266,697,-3730,-46,176,-135
102570603,0.6900634765625,0.324951171875,-0.5872802734375,0.270751953125,8967,975,-3412,-54,172,-140
102580585,0.7081298828125,0.32537841796875,-0.5699462890625,0.26025390625,8490,1264,-3041,-62,166,-147
102590568,0.72564697265625,0.32568359375,-0.55291748046875,0.2481689453125,7996,1500,-2597,-70,156,-153
102600552,0.74237060546875,0.325927734375,-0.5362548828125,0.23455810546875,7481,1707,-2149,-75,144,-161
102610535,0.75823974609375,0.326416015625,-0.52008056640625,0.21905517578125,7105,1839,-1576,-81,130,-171
102620517,0.7733154296875,0.32745361328125,-0.504150390625,0.20135498046875,6638,1947,-1043,-84,115,-188
102630501,0.78753662109375,0.32958984375,-0.4881591796875,0.180908203125,6131,2090,-536,-86,101,-208
102640486,0.80072021484375,0.33270263671875,-0.472412109375,0.15771484375,5611,2170,-52,-87,85,-228
102650469,0.8126220703125,0.33660888671875,-0.4569091796875,0.13232421875,5102,2237,407,-87,69,-240
102660451,0.82275390625,0.340576171875,-0.44244384765625,0.106201171875,4688,2211,837,-83,52,-238
102670430,0.83087158203125,0.3441162109375,-0.4296875,0.08062744140625,4381,2188,1268,-78,35,-226
102680422,0.83709716796875,0.34735107421875,-0.4188232421875,0.05645751953125,4013,2202,1613,-71,18,-207
102690407,0.84149169921875,0.35009765625,-0.40997314453125,0.03399658203125,3622,2229,1881,-63,3,-186
102700379,0.8443603515625,0.3526611328125,-0.40313720703125,0.01336669921875,3301,2267,2107,-54,-10,-167
102710360,0.8458251953125,0.35516357421875,-0.39794921875,-0.005859375,3024,2326,2257,-46,-22,-153
102720343,0.8460693359375,0.3580322265625,-0.3941650390625,-0.02392578125,2836,2391,2369,-36,-31,-143
102730326,0.84527587890625,0.3612060546875,-0.3914794921875,-0.04119873046875,2718,2436,2427,-28,-39,-136
102740308,0.84356689453125,0.36474609375,-0.389892578125,-0.0574951171875,2707,2500,2442,-20,-46,-129
102750293,0.84100341796875,0.36865234375,-0.38922119140625,-0.07293701171875,2762,2577,2425,-11,-51,-123
102760276,0.837646484375,0.3729248046875,-0.38934326171875,-0.08758544921875,2835,2739,2412,-4,-56,-116
102770259,0.8336181640625,0.37744140625,-0.39031982421875,-0.10113525390625,2901,3043,2447,2,-60,-105
102780239,0.82928466796875,0.38128662109375,-0.3924560546875,-0.11309814453125,2987,3394,2573,5,-66,-86
102790228,0.8248291015625,0.384033203125,-0.396240234375,-0.12274169921875,3132,3773,2683,6,-71,-60
102800211,0.8204345703125,0.3856201171875,-0.40155029296875,-0.130126953125,3350,4106,2711,6,-74,-39
102810191,0.81591796875,0.38653564453125,-0.40771484375,-0.13623046875,3639,4369,2647,7,-75,-29
102820186,0.81134033203125,0.38726806640625,-0.41424560546875,-0.1419677734375,3961,4558,2494,7,-75,-28
102830173,0.80645751953125,0.38836669921875,-0.420654296875,-0.14788818359375,4274,4684,2292,8,-74,-34
102840143,0.80126953125,0.39007568359375,-0.42657470703125,-0.15447998046875,4528,4752,2081,10,-72,-45
102850120,0.79571533203125,0.39276123046875,-0.431640625,-0.162109375,4657,4811,1883,13,-70,-59
102860105,0.78973388671875,0.396484375,-0.4356689453125,-0.1710205078125,4716,4875,1753,16,-68,-76
102870087,0.78326416015625,0.40167236328125,-0.43829345703125,-0.181640625,4653,4973,1720,19,-65,-97
102880069,0.77618408203125,0.4083251953125,-0.43939208984375,-0.19415283203125,4510,5126,1730,22,-62,-119
102890052,0.7685546875,0.4161376953125,-0.43914794921875,-0.2081298828125,4278,5315,1696,24,-60,-135
102900035,0.76025390625,0.42474365234375,-0.43804931640625,-0.22296142578125,4007,5474,1568,26,-58,-144
102910017,0.7513427734375,0.43389892578125,-0.43646240234375,-0.23809814453125,3716,5583,1337,28,-57,-151
102920000,0.7418212890625,0.443603515625,-0.43426513671875,-0.2535400390625,3431,5678,1124,31,-55,-158
102929989,0.73175048828125,0.453857421875,-0.4312744140625,-0.26934814453125,3143,5743,1025,33,-53,-166
102939966,0.72125244140625,0.46441650390625,-0.42724609375,-0.2855224609375,2838,5759,1083,35,-50,-174
102949949,0.7103271484375,0.47528076171875,-0.42236328125,-0.3018798828125,2500,5757,1170,38,-46,-180
102959932,0.6988525390625,0.486328125,-0.41680908203125,-0.31829833984375,2161,5779,1191,40,-45,-184
102969914,0.68682861328125,0.4976806640625,-0.41070556640625,-0.33447265625,1792,5738,1100,42,-41,-187
102979896,0.674072265625,0.50933837890625,-0.404052734375,-0.35052490234375,1388,5638,917,44,-39,-191
102989881,0.66070556640625,0.521240234375,-0.39697265625,-0.36627197265625,1121,5532,730,47,-37,-193
102999863,0.646728515625,0.53326416015625,-0.3892822265625,-0.38189697265625,702,5314,597,50,-35,-199
103009849,0.6317138671875,0.54571533203125,-0.380859375,-0.3975830078125,302,4890,355,54,-33,-206
103019831,0.61541748046875,0.55877685546875,-0.37158203125,-0.41339111328125,100,4374,71,59,-31,-219
103029815,0.5975341796875,0.57269287109375,-0.361083984375,-0.42962646484375,59,4030,-180,64,-28,-238
103039797,0.578125,0.58734130859375,-0.34912109375,-0.44598388671875,79,3971,-350,68,-24,-255
103049784,0.55706787109375,0.60260009765625,-0.3353271484375,-0.46270751953125,140,4074,-506,72,-19,-276
103059768,0.533935546875,0.61865234375,-0.31927490234375,-0.4798583984375,164,4402,-708,75,-14,-302
103069750,0.508544921875,0.63543701171875,-0.3006591796875,-0.4971923828125,-5,4679,-929,78,-8,-326
103079733,0.4815673828125,0.65216064453125,-0.2802734375,-0.51397705078125,-283,4972,-1107,80,-2,-334
103089713,0.4544677734375,0.667724609375,-0.259765625,-0.529296875,-563,5371,-1231,79,0,-323
103099692,0.4287109375,0.68145751953125,-0.2406005859375,-0.5421142578125,-800,6011,-1458,76,3,-296
103109677,0.4052734375,0.69342041015625,-0.223876953125,-0.55206298828125,-1037,6638,-1738,71,6,-261
103119662,0.3841552734375,0.70404052734375,-0.2088623046875,-0.5595703125,-1456,7374,-1986,66,12,-236
103129645,0.36474609375,0.7137451171875,-0.19439697265625,-0.56536865234375,-2111,7865,-2148,59,19,-217
103139627,0.34722900390625,0.72259521484375,-0.1802978515625,-0.56988525390625,-2846,8239,-2232,51,25,-199
103149610,0.3321533203125,0.7303466796875,-0.1673583984375,-0.57293701171875,-3571,8693,-2297,41,29,-172
103159593,0.3203125,0.73687744140625,-0.156494140625,-0.57427978515625,-4282,9289,-2460,31,32,-140
103169577,0.3123779296875,0.74237060546875,-0.14837646484375,-0.57379150390625,-5006,9868,-2641,20,35,-98
103179559,0.30859375,0.74664306640625,-0.1431884765625,-0.5716552734375,-5727,10155,-2689,7,37,-55
103189535,0.307861328125,0.74981689453125,-0.1396484375,-0.56878662109375,-6370,10158,-2635,-4,37,-29
103199515,0.3084716796875,0.75238037109375,-0.135986328125,-0.56585693359375,-6943,10031,-2691,-13,36,-25
103209500,0.3094482421875,0.7547607421875,-0.13140869140625,-0.56329345703125,-7457,9938,-2813,-21,35,-30
103219482,0.3104248046875,0.7568359375,-0.12554931640625,-0.56134033203125,-7895,9812,-2909,-29,34,-39
103229466,0.31121826171875,0.75860595703125,-0.11810302734375,-0.56005859375,-8232,9542,-2913,-37,32,-50
103239449,0.311767578125,0.7601318359375,-0.10906982421875,-0.55950927734375,-8435,9148,-2867,-43,30,-61
103249430,0.31207275390625,0.76123046875,-0.09869384765625,-0.559814453125,-8533,8705,-2765,-49,28,-71
103259422,0.31219482421875,0.761962890625,-0.08734130859375,-0.56060791015625,-8570,8342,-2640,-54,25,-78
103269404,0.312744140625,0.76214599609375,-0.075927734375,-0.56170654296875,-8625,8020,-2515,-58,21,-74
103279380,0.3140869140625,0.76171875,-0.065185546875,-0.5628662109375,-8757,7626,-2418,-61,17,-63
103289363,0.31634521484375,0.7607421875,-0.05560302734375,-0.56396484375,-8917,7132,-2297,-63,12,-48
103299350,0.3197021484375,0.7591552734375,-0.04754638671875,-0.56500244140625,-9044,6580,-2069,-63,7,-31
103309328,0.3240966796875,0.7568359375,-0.041259765625,-0.5660400390625,-9227,6082,-1767,-63,1,-11
103319310,0.3299560546875,0.75390625,-0.0372314453125,-0.56689453125,-9458,5738,-1530,-62,-6,12
103329293,0.337158203125,0.75042724609375,-0.03558349609375,-0.5673828125,-9688,5448,-1340,-61,-12,34
103339275,0.34515380859375,0.7464599609375,-0.0357666015625,-0.56781005859375,-9875,5042,-1143,-59,-19,50
103349258,0.35321044921875,0.7420654296875,-0.037109375,-0.56854248046875,-9935,4566,-901,-54,-25,57
103359240,0.360595703125,0.73736572265625,-0.0389404296875,-0.56982421875,-9918,4154,-648,-48,-31,54
103369228,0.366943359375,0.7325439453125,-0.04083251953125,-0.5718994140625,-9868,3881,-414,-42,-37,46
103379212,0.371826171875,0.72760009765625,-0.04248046875,-0.57489013671875,-9814,3733,-195,-34,-42,34
103389193,0.375,0.72265625,-0.04345703125,-0.5789794921875,-9757,3676,-35,-28,-48,17
103399186,0.3760986328125,0.71783447265625,-0.04351806640625,-0.58428955078125,-9698,3622,86,-20,-53,-5
103409165,0.37469482421875,0.7130126953125,-0.0421142578125,-0.59112548828125,-9633,3522,233,-12,-59,-30
103419142,0.37054443359375,0.70831298828125,-0.03924560546875,-0.5994873046875,-9563,3427,378,-4,-63,-57
103429121,0.36383056640625,0.70367431640625,-0.03515625,-0.6092529296875,-9481,3373,462,5,-68,-80
103439101,0.3551025390625,0.6990966796875,-0.03045654296875,-0.619873046875,-9380,3346,509,13,-73,-96
103449092,0.34490966796875,0.6944580078125,-0.02581787109375,-0.63092041015625,-9256,3346,538,21,-76,-104
103459075,0.33404541015625,0.68975830078125,-0.0218505859375,-0.6419677734375,-9062,3356,552,27,-79,-103
103469059,0.32330322265625,0.6849365234375,-0.01904296875,-0.65264892578125,-8826,3388,527,32,-81,-95
103479042,0.31329345703125,0.67999267578125,-0.017822265625,-0.66265869140625,-8513,3456,457,35,-83,-81
103489024,0.30426025390625,0.6749267578125,-0.01806640625,-0.6719970703125,-8149,3518,400,36,-83,-68
103499006,0.2962646484375,0.66961669921875,-0.0194091796875,-0.68072509765625,-7749,3507,363,36,-85,-57
103508995,0.2890625,0.66412353515625,-0.0216064453125,-0.68914794921875,-7340,3401,390,35,-86,-47
103518979,0.28271484375,0.6583251953125,-0.02447509765625,-0.6971435546875,-6893,3201,421,35,-86,-37
103528955,0.27716064453125,0.6522216796875,-0.02813720703125,-0.7049560546875,-6415,2931,480,34,-89,-27
103538937,0.27252197265625,0.64581298828125,-0.03253173828125,-0.71246337890625,-5938,2580,548,34,-90,-15
103548922,0.26904296875,0.638916015625,-0.03802490234375,-0.71966552734375,-5434,2205,624,33,-93,0
103558899,0.2669677734375,0.6317138671875,-0.044921875,-0.72637939453125,-4934,1870,686,34,-95,18
103568882,0.26678466796875,0.6240234375,-0.05352783203125,-0.73248291015625,-4475,1640,714,33,-97,40
103578866,0.2686767578125,0.61590576171875,-0.06396484375,-0.73779296875,-4005,1553,739,33,-99,62
103588848,0.27264404296875,0.6072998046875,-0.07611083984375,-0.74237060546875,-3694,1569,732,31,-101,85
103598832,0.2786865234375,0.59808349609375,-0.08966064453125,-0.74603271484375,-3512,1720,705,28,-103,106
103608813,0.2869873046875,0.588134765625,-0.104736328125,-0.74884033203125,-3480,2126,695,24,-105,128
103618795,0.29766845703125,0.5775146484375,-0.1212158203125,-0.75048828125,-3495,2524,663,19,-106,152
103628784,0.31085205078125,0.56597900390625,-0.138916015625,-0.7508544921875,-3525,2820,649,13,-106,178
103638771,0.32635498046875,0.553466796875,-0.15777587890625,-0.7498779296875,-3570,3100,701,9,-106,203
103648755,0.343994140625,0.5399169921875,-0.1776123046875,-0.7474365234375,-3654,3543,809,4,-105,224
103658737,0.36322021484375,0.52545166015625,-0.19818115234375,-0.74346923828125,-3781,4146,1028,1,-103,241
103668715,0.38330078125,0.51031494140625,-0.21893310546875,-0.738037109375,-3927,4850,1347,-1,-100,251
103678695,0.4033203125,0.49493408203125,-0.23931884765625,-0.7315673828125,-4063,5612,1667,-2,-95,249
103688677,0.42181396484375,0.47991943359375,-0.25848388671875,-0.72454833984375,-4135,6331,1975,-1,-89,233
103698665,0.437255859375,0.46624755859375,-0.27532958984375,-0.71807861328125,-4114,6996,2241,2,-82,195
103708645,0.4476318359375,0.4549560546875,-0.28887939453125,-0.713623046875,-3985,7523,2516,6,-74,136
103718629,0.451416015625,0.447021484375,-0.29840087890625,-0.7122802734375,-3875,7890,2781,13,-67,59
103728612,0.44793701171875,0.44317626953125,-0.30352783203125,-0.7147216796875,-3847,8123,3002,21,-59,-23
103738591,0.4376220703125,0.443359375,-0.30499267578125,-0.72039794921875,-3924,8309,3177,32,-50,-93
103748572,0.422119140625,0.44677734375,-0.3038330078125,-0.72796630859375,-4036,8377,3293,43,-42,-141
103758556,0.40380859375,0.45233154296875,-0.30157470703125,-0.73577880859375,-4154,8349,3338,53,-33,-162
103768542,0.38507080078125,0.45892333984375,-0.2994384765625,-0.7425537109375,-4250,8275,3285,61,-24,-158
103778524,0.3677978515625,0.4659423828125,-0.2984619140625,-0.74737548828125,-4318,8152,3150,67,-15,-135
103788508,0.3533935546875,0.47265625,-0.29925537109375,-0.74981689453125,-4306,7938,2941,71,-6,-102
103798493,0.34234619140625,0.478759765625,-0.30206298828125,-0.7498779296875,-4194,7628,2705,74,2,-65
103808475,0.3348388671875,0.48419189453125,-0.306884765625,-0.74786376953125,-3988,7245,2463,76,9,-29
103818462,0.3304443359375,0.48883056640625,-0.31341552734375,-0.74407958984375,-3722,6835,2247,77,15,2
103828437,0.32879638671875,0.4927978515625,-0.32135009765625,-0.73876953125,-3389,6410,2045,77,20,29
103838428,0.32916259765625,0.49615478515625,-0.33038330078125,-0.7322998046875,-3070,6032,1867,78,24,49
103848412,0.33123779296875,0.4990234375,-0.34033203125,-0.724853515625,-2768,5754,1711,77,27,66
103858395,0.33465576171875,0.5013427734375,-0.3509521484375,-0.716552734375,-2516,5551,1556,77,29,79
103868371,0.33929443359375,0.5030517578125,-0.36224365234375,-0.70751953125,-2290,5450,1408,76,30,93
103878355,0.3450927734375,0.504150390625,-0.3740234375,-0.69775390625,-2087,5424,1257,74,31,105
103888338,0.35174560546875,0.50457763671875,-0.3863525390625,-0.68731689453125,-1909,5452,1098,73,31,115
103898324,0.35906982421875,0.50433349609375,-0.39898681640625,-0.67645263671875,-1770,5566,968,72,30,122
103908304,0.36663818359375,0.50360107421875,-0.41156005859375,-0.665283203125,-1705,5743,898,71,29,125
103918293,0.3740234375,0.5025634765625,-0.423828125,-0.6541748046875,-1744,6028,903,69,28,124
103928271,0.3809814453125,0.50140380859375,-0.435546875,-0.64324951171875,-1828,6433,894,68,26,120
103938256,0.38720703125,0.50042724609375,-0.4466552734375,-0.632568359375,-1919,6926,810,67,26,111
103948243,0.392333984375,0.5,-0.45684814453125,-0.6224365234375,-1987,7451,671,65,25,97
103958225,0.3961181640625,0.500244140625,-0.4658203125,-0.61309814453125,-2056,8016,507,63,24,80
103968207,0.39862060546875,0.50128173828125,-0.47357177734375,-0.6046142578125,-2143,8626,354,61,23,63
103978188,0.400146484375,0.5029296875,-0.480224609375,-0.596923828125,-2244,9262,208,58,23,50
103988179,0.4010009765625,0.5050048828125,-0.4859619140625,-0.5899658203125,-2343,9877,65,56,23,40
103998162,0.4014892578125,0.5072021484375,-0.490966796875,-0.58349609375,-2385,10372,-30,52,22,34
104008139,0.40191650390625,0.50946044921875,-0.49542236328125,-0.57745361328125,-2511,10886,-145,49,22,32
104018115,0.40234375,0.5115966796875,-0.49957275390625,-0.57171630859375,-2599,11306,-237,46,22,31
104028097,0.40283203125,0.513671875,-0.50323486328125,-0.56622314453125,-2638,11620,-306,42,22,28
104038080,0.40313720703125,0.515869140625,-0.5062255859375,-0.56134033203125,-2603,11806,-338,39,22,20
104048062,0.40289306640625,0.5184326171875,-0.50823974609375,-0.5572509765625,-2539,11889,-324,35,21,8
104058051,0.402099609375,0.52154541015625,-0.50921630859375,-0.55413818359375,-2454,11880,-307,31,21,-5
104068025,0.40093994140625,0.52484130859375,-0.5091552734375,-0.55181884765625,-2314,11806,-284,26,20,-15
104078008,0.399658203125,0.52825927734375,-0.5084228515625,-0.55023193359375,-2175,11678,-262,21,19,-20
104090995,0.398681640625,0.53125,-0.50732421875,-0.54901123046875,-2024,11509,-265,15,18,-19
104097981,0.3983154296875,0.53369140625,-0.506103515625,-0.54803466796875,-1878,11316,-275,8,17,-15
104107958,0.398681640625,0.535400390625,-0.50494384765625,-0.5472412109375,-1718,11028,-264,3,16,-9
104117937,0.39984130859375,0.5362548828125,-0.50384521484375,-0.5465087890625,-1518,10705,-227,-3,15,-2
104127920,0.4017333984375,0.536376953125,-0.5029296875,-0.5458984375,-1337,10380,-185,-9,14,4
104137900,0.404296875,0.53582763671875,-0.5020751953125,-0.54534912109375,-1154,10062,-147,-13,12,8
104147883,0.40728759765625,0.53472900390625,-0.50128173828125,-0.544921875,-965,9732,-87,-17,11,12
104157865,0.41064453125,0.53314208984375,-0.50048828125,-0.544677734375,-815,9401,-14,-21,10,15
104167848,0.4141845703125,0.53125,-0.4996337890625,-0.54461669921875,-696,9115,35,-23,9,16
104177831,0.41778564453125,0.52911376953125,-0.49871826171875,-0.54473876953125,-615,8885,86,-26,7,16
104187813,0.4212646484375,0.5269775390625,-0.49774169921875,-0.5450439453125,-544,8652,124,-26,6,14
104197797,0.4244384765625,0.52490234375,-0.49664306640625,-0.54559326171875,-500,8445,156,-26,5,11
104207784,0.42724609375,0.52294921875,-0.495361328125,-0.54638671875,-470,8280,186,-25,3,8
104217772,0.4295654296875,0.521240234375,-0.49407958984375,-0.54742431640625,-461,8138,177,-24,1,4
104227751,0.431396484375,0.51971435546875,-0.4927978515625,-0.548583984375,-465,7993,166,-22,-1,1
104237723,0.432861328125,0.518310546875,-0.49163818359375,-0.5498046875,-469,7868,165,-20,-3,0
104247706,0.43402099609375,0.51690673828125,-0.49072265625,-0.551025390625,-493,7781,144,-18,-4,1
104257690,0.43505859375,0.51544189453125,-0.49017333984375,-0.552001953125,-511,7700,125,-15,-5,3
104267675,0.43609619140625,0.51385498046875,-0.49005126953125,-0.55279541015625,-503,7636,95,-13,-7,6
104277657,0.4371337890625,0.51220703125,-0.4903564453125,-0.5533447265625,-472,7574,74,-11,-7,9
104287639,0.43817138671875,0.5103759765625,-0.490966796875,-0.5535888671875,-440,7520,48,-9,-8,11
104297623,0.43927001953125,0.508544921875,-0.49188232421875,-0.5535888671875,-409,7465,24,-7,-8,14
104307607,0.4403076171875,0.50677490234375,-0.4930419921875,-0.55340576171875,-399,7426,20,-6,-8,15
104317590,0.44140625,0.5050048828125,-0.494140625,-0.5531005859375,-374,7385,28,-5,-7,15
104327573,0.4425048828125,0.50335693359375,-0.49530029296875,-0.552734375,-339,7374,38,-4,-6,14
104337555,0.443359375,0.501953125,-0.49627685546875,-0.5523681640625,-297,7373,41,-3,-5,11
104347542,0.444091796875,0.5008544921875,-0.4970703125,-0.5521240234375,-267,7359,35,-2,-4,8
104357524,0.44451904296875,0.5001220703125,-0.49761962890625,-0.552001953125,-232,7320,54,-2,-3,4
104367507,0.4447021484375,0.49981689453125,-0.497802734375,-0.552001953125,-218,7273,68,-1,-1,-1
104377496,0.444580078125,0.4998779296875,-0.4976806640625,-0.5521240234375,-222,7237,82,0,0,-5
104387471,0.44427490234375,0.500244140625,-0.49725341796875,-0.5523681640625,-250,7220,103,0,1,-9
104397453,0.44378662109375,0.50091552734375,-0.4967041015625,-0.55267333984375,-285,7233,106,1,2,-11
