subject,Joshua Spiesman
arm,left
label,3
hz,100.17235749180624
time,5.570399

timestamp_us,q0,q1,q2,q3,ax,ay,az,gx,gy,gz
40557236,-0.4007568359375,-0.68115234375,-0.30230712890625,0.53302001953125,-8047,1972,-975,-15,2,-4
40567218,-0.40167236328125,-0.6805419921875,-0.30364990234375,0.5323486328125,-7965,1940,-997,-15,2,-3
40577205,-0.4027099609375,-0.67987060546875,-0.30499267578125,0.53167724609375,-7863,1883,-1010,-16,2,-3
40587189,-0.4036865234375,-0.67926025390625,-0.30633544921875,0.5308837890625,-7727,1814,-1013,-16,2,-2
40597173,-0.40478515625,-0.67864990234375,-0.30767822265625,0.530029296875,-7597,1745,-987,-16,3,-1
40607161,-0.4058837890625,-0.67816162109375,-0.30889892578125,0.52911376953125,-7480,1652,-969,-16,4,0
40617127,-0.406982421875,-0.6778564453125,-0.31005859375,0.52801513671875,-7388,1583,-958,-15,5,3
40627111,-0.40814208984375,-0.677734375,-0.31097412109375,0.52667236328125,-7323,1533,-962,-15,6,5
40637092,-0.40936279296875,-0.6778564453125,-0.311767578125,0.525146484375,-7278,1521,-976,-14,8,7
40647076,-0.410400390625,-0.67816162109375,-0.3125,0.52349853515625,-7265,1515,-1007,-13,9,7
40657058,-0.41131591796875,-0.67864990234375,-0.31329345703125,0.521728515625,-7278,1533,-1061,-12,11,6
40667042,-0.41192626953125,-0.67919921875,-0.31414794921875,0.51995849609375,-7351,1565,-1131,-11,12,5
40677025,-0.412353515625,-0.6798095703125,-0.31524658203125,0.5181884765625,-7497,1573,-1170,-10,14,4
40687007,-0.41259765625,-0.680419921875,-0.31646728515625,0.51641845703125,-7670,1545,-1173,-9,15,3
40696995,-0.41265869140625,-0.6810302734375,-0.3177490234375,0.5147705078125,-7888,1537,-1185,-9,16,1
40706981,-0.41253662109375,-0.68157958984375,-0.31927490234375,0.51324462890625,-8075,1517,-1201,-9,15,-1
40716952,-0.41217041015625,-0.681884765625,-0.321044921875,0.511962890625,-8219,1469,-1232,-9,14,-5
40726937,-0.4114990234375,-0.68194580078125,-0.3232421875,0.51104736328125,-8330,1375,-1246,-9,13,-10
40736923,-0.4105224609375,-0.681640625,-0.325927734375,0.510498046875,-8455,1236,-1227,-9,13,-16
40746907,-0.4093017578125,-0.68096923828125,-0.3289794921875,0.510498046875,-8689,1086,-1182,-9,11,-20
40756890,-0.407958984375,-0.679931640625,-0.3321533203125,0.5108642578125,-9056,1006,-1139,-9,8,-22
40766877,-0.4068603515625,-0.67877197265625,-0.3350830078125,0.51141357421875,-9588,1021,-1136,-9,5,-21
40776856,-0.40594482421875,-0.67730712890625,-0.3377685546875,0.51226806640625,-10233,1097,-1187,-9,1,-21
40786834,-0.405029296875,-0.6754150390625,-0.340576171875,0.513671875,-10867,1167,-1291,-10,-4,-27
40796814,-0.40350341796875,-0.67266845703125,-0.34423828125,0.5159912109375,-11404,1131,-1413,-11,-9,-42
40806799,-0.40081787109375,-0.66864013671875,-0.34942626953125,0.51983642578125,-11812,957,-1497,-11,-15,-63
40816784,-0.3968505859375,-0.6632080078125,-0.35614013671875,0.5252685546875,-12142,667,-1489,-10,-21,-86
40826773,-0.39154052734375,-0.65631103515625,-0.36419677734375,0.53228759765625,-12433,314,-1399,-9,-27,-106
40836755,-0.38525390625,-0.64813232421875,-0.37310791015625,0.54071044921875,-12643,-71,-1258,-7,-33,-121
40846737,-0.37823486328125,-0.6390380859375,-0.38232421875,0.5499267578125,-12805,-409,-1143,-5,-38,-131
40856716,-0.37091064453125,-0.62933349609375,-0.3914794921875,0.5595703125,-12923,-767,-1098,-3,-43,-133
40866692,-0.363525390625,-0.619384765625,-0.400146484375,0.5693359375,-12887,-1175,-1067,-2,-46,-131
40876674,-0.35638427734375,-0.60931396484375,-0.408203125,0.57891845703125,-12678,-1632,-1024,-1,-49,-126
40886657,-0.34942626953125,-0.59906005859375,-0.415771484375,0.58837890625,-12354,-2093,-938,-1,-51,-122
40896645,-0.3424072265625,-0.5887451171875,-0.423095703125,0.59765625,-11951,-2542,-793,1,-51,-121
40906626,-0.335205078125,-0.5782470703125,-0.43011474609375,0.60687255859375,-11540,-2945,-604,2,-50,-121
40916608,-0.327880859375,-0.5677490234375,-0.43695068359375,0.6158447265625,-11213,-3246,-423,3,-49,-121
40926593,-0.3204345703125,-0.55743408203125,-0.44354248046875,0.62445068359375,-10913,-3490,-238,4,-46,-120
40936573,-0.3128662109375,-0.54718017578125,-0.449951171875,0.6326904296875,-10676,-3693,-57,4,-43,-120
40946558,-0.3048095703125,-0.536865234375,-0.45654296875,0.64068603515625,-10462,-3881,97,4,-41,-124
40956542,-0.29595947265625,-0.52630615234375,-0.463623046875,0.64849853515625,-10243,-4037,224,4,-37,-134
40966525,-0.28570556640625,-0.51507568359375,-0.471435546875,0.65643310546875,-10015,-4214,339,5,-34,-149
40976508,-0.27374267578125,-0.50311279296875,-0.48016357421875,0.6644287109375,-9827,-4380,445,6,-29,-165
40986491,-0.26019287109375,-0.49053955078125,-0.48944091796875,0.67236328125,-9700,-4559,527,8,-25,-178
40996474,-0.2459716796875,-0.4779052734375,-0.498779296875,0.67999267578125,-9693,-4730,594,9,-22,-181
41006455,-0.23193359375,-0.4656982421875,-0.50732421875,0.68701171875,-9804,-4877,598,11,-20,-173
41016436,-0.218994140625,-0.45452880859375,-0.51470947265625,0.6932373046875,-9963,-5015,539,12,-20,-158
41026429,-0.207275390625,-0.4442138671875,-0.52099609375,0.69879150390625,-10092,-5152,491,13,-20,-144
41036410,-0.196044921875,-0.434326171875,-0.52667236328125,0.7039794921875,-10191,-5256,419,14,-21,-141
41046394,-0.18438720703125,-0.424072265625,-0.53228759765625,0.70916748046875,-10306,-5359,344,16,-21,-149
41056371,-0.17169189453125,-0.41302490234375,-0.5380859375,0.71441650390625,-10387,-5415,279,18,-22,-162
41066354,-0.15777587890625,-0.40093994140625,-0.544189453125,0.71990966796875,-10410,-5431,201,20,-23,-177
41076338,-0.1427001953125,-0.38787841796875,-0.5504150390625,0.72540283203125,-10342,-5465,137,22,-25,-190
41086319,-0.1268310546875,-0.3740234375,-0.55657958984375,0.73095703125,-10192,-5535,95,25,-26,-197
41096301,-0.110595703125,-0.3597412109375,-0.5623779296875,0.736328125,-10004,-5616,64,27,-27,-198
41106286,-0.094482421875,-0.3455810546875,-0.5673828125,0.741455078125,-9839,-5738,50,31,-27,-194
41116272,-0.07891845703125,-0.331787109375,-0.5716552734375,0.74627685546875,-9623,-5836,37,33,-27,-187
41126255,-0.06390380859375,-0.3184814453125,-0.5750732421875,0.7508544921875,-9372,-5829,21,36,-26,-180
41136242,-0.04913330078125,-0.3055419921875,-0.577880859375,0.75518798828125,-9049,-5779,4,38,-25,-177
41146225,-0.034423828125,-0.2926025390625,-0.5802001953125,0.75933837890625,-8632,-5679,10,40,-25,-176
41156208,-0.0194091796875,-0.27947998046875,-0.58221435546875,0.76324462890625,-8233,-5569,-18,42,-24,-178
41166187,-0.00408935546875,-0.26611328125,-0.58392333984375,0.76690673828125,-7830,-5501,-19,44,-23,-180
41176180,0.01153564453125,-0.25274658203125,-0.58526611328125,0.77032470703125,-7487,-5460,-7,45,-22,-181
41186164,0.02716064453125,-0.23944091796875,-0.5863037109375,0.7734375,-7128,-5402,32,46,-20,-179
41196143,0.042724609375,-0.22637939453125,-0.58685302734375,0.77618408203125,-6779,-5284,74,46,-18,-177
41206118,0.0579833984375,-0.2137451171875,-0.58709716796875,0.77862548828125,-6501,-5166,118,46,-16,-172
41216101,0.072509765625,-0.20172119140625,-0.58697509765625,0.78070068359375,-6243,-5049,167,45,-16,-164
41226085,0.0863037109375,-0.19012451171875,-0.5865478515625,0.78253173828125,-5986,-4892,197,43,-16,-158
41236066,0.099853515625,-0.1787109375,-0.58612060546875,0.783935546875,-5743,-4797,247,41,-15,-156
41246050,0.11322021484375,-0.16729736328125,-0.585693359375,0.78497314453125,-5560,-4775,322,38,-15,-157
41256033,0.1265869140625,-0.15594482421875,-0.58526611328125,0.78558349609375,-5339,-4757,430,36,-15,-156
41266015,0.13995361328125,-0.14434814453125,-0.5849609375,0.78570556640625,-5031,-4670,537,32,-15,-157
41275998,0.15362548828125,-0.13250732421875,-0.5848388671875,0.785400390625,-4709,-4564,671,29,-15,-161
41285989,0.167724609375,-0.12030029296875,-0.58489990234375,0.784423828125,-4356,-4471,765,25,-15,-166
41295966,0.18218994140625,-0.107666015625,-0.58526611328125,0.78271484375,-4000,-4400,842,21,-15,-171
41305948,0.19720458984375,-0.0946044921875,-0.58587646484375,0.78033447265625,-3660,-4373,946,16,-15,-177
41315930,0.212646484375,-0.0811767578125,-0.586669921875,0.7772216796875,-3328,-4382,1027,13,-14,-182
41325914,0.22821044921875,-0.0675048828125,-0.5875244140625,0.77337646484375,-2938,-4346,1126,10,-15,-184
41335896,0.2440185546875,-0.05352783203125,-0.58837890625,0.76904296875,-2475,-4237,1233,6,-15,-186
41345881,0.260009765625,-0.0391845703125,-0.58929443359375,0.76397705078125,-1940,-4050,1312,4,-16,-188
41355863,0.27630615234375,-0.0242919921875,-0.59002685546875,0.7581787109375,-1347,-3786,1390,2,-16,-192
41365842,0.293212890625,-0.00872802734375,-0.590576171875,0.75177001953125,-726,-3476,1480,1,-17,-199
41375825,0.3106689453125,0.007568359375,-0.59075927734375,0.74456787109375,-80,-3160,1579,1,-17,-205
41385812,0.32830810546875,0.0242919921875,-0.5904541015625,0.73687744140625,511,-2822,1678,2,-17,-205
41395793,0.3453369140625,0.04071044921875,-0.589599609375,0.72894287109375,1005,-2536,1769,3,-18,-198
41405773,0.360595703125,0.0560302734375,-0.5885009765625,0.721435546875,1431,-2259,1843,4,-19,-177
41415765,0.37310791015625,0.069580078125,-0.5872802734375,0.71484375,1809,-1969,1899,4,-21,-146
41425747,0.38262939453125,0.08099365234375,-0.58624267578125,0.70947265625,2174,-1681,1911,4,-23,-113
41435724,0.3895263671875,0.090576171875,-0.58551025390625,0.70513916015625,2567,-1441,1921,3,-25,-87
41445706,0.3948974609375,0.09918212890625,-0.58502197265625,0.70135498046875,3028,-1234,1929,3,-26,-72
41455688,0.39996337890625,0.10760498046875,-0.5845947265625,0.6976318359375,3508,-1078,1942,3,-26,-71
41465673,0.4053955078125,0.11639404296875,-0.583984375,0.693603515625,3991,-976,1962,3,-25,-77
41475656,0.41162109375,0.1258544921875,-0.5831298828125,0.68890380859375,4504,-908,2008,3,-25,-86
41485637,0.4185791015625,0.1358642578125,-0.58203125,0.68377685546875,4982,-870,2066,3,-24,-94
41495621,0.42596435546875,0.14605712890625,-0.5806884765625,0.67822265625,5437,-864,2095,2,-23,-97
41505604,0.43353271484375,0.15625,-0.5792236328125,0.67242431640625,5900,-908,2122,2,-21,-98
41515586,0.4410400390625,0.16607666015625,-0.5775146484375,0.6666259765625,6338,-985,2155,2,-18,-96
41525568,0.4482421875,0.17523193359375,-0.57562255859375,0.66107177734375,6711,-1099,2164,3,-14,-89
41535552,0.45458984375,0.18310546875,-0.57373046875,0.65618896484375,7001,-1217,2149,3,-11,-74
41545533,0.45916748046875,0.1890869140625,-0.572265625,0.652587890625,7198,-1354,2117,3,-8,-50
41555515,0.46160888671875,0.19281005859375,-0.57135009765625,0.65057373046875,7311,-1500,2047,3,-6,-21
41565500,0.4617919921875,0.19427490234375,-0.57122802734375,0.650146484375,7367,-1698,1966,1,-5,6
41575474,0.46026611328125,0.1939697265625,-0.57177734375,0.65081787109375,7360,-2034,1844,0,-4,25
41585456,0.45794677734375,0.192626953125,-0.5726318359375,0.652099609375,7297,-2496,1690,0,-2,31
41595449,0.45556640625,0.1910400390625,-0.57342529296875,0.65350341796875,7160,-3031,1565,2,1,28
41605432,0.45361328125,0.18951416015625,-0.5738525390625,0.65496826171875,6931,-3590,1475,4,2,22
41615415,0.4517822265625,0.18804931640625,-0.57403564453125,0.656494140625,6635,-4088,1429,7,4,20
41625397,0.44970703125,0.186279296875,-0.57391357421875,0.65850830078125,6370,-4518,1451,9,5,24
41635376,0.447021484375,0.18389892578125,-0.57366943359375,0.66119384765625,6160,-4848,1550,11,6,33
41645360,0.44354248046875,0.18084716796875,-0.57342529296875,0.66461181640625,5995,-5080,1680,13,6,44
41655342,0.439453125,0.1771240234375,-0.5731201171875,0.66864013671875,5879,-5216,1854,14,7,52
41665325,0.43505859375,0.173095703125,-0.57257080078125,0.6729736328125,5722,-5263,2036,15,9,55
41675307,0.4310302734375,0.16912841796875,-0.57171630859375,0.67724609375,5575,-5214,2209,15,10,52
41685293,0.42767333984375,0.16552734375,-0.570556640625,0.6812744140625,5433,-5070,2388,15,12,44
41695271,0.42523193359375,0.16259765625,-0.569091796875,0.6846923828125,5315,-4832,2552,14,12,35
41705256,0.42352294921875,0.16021728515625,-0.56744384765625,0.68768310546875,5218,-4548,2725,13,12,28
41715244,0.422119140625,0.157958984375,-0.56585693359375,0.69036865234375,5136,-4273,2898,11,11,28
41725226,0.42041015625,0.1553955078125,-0.56451416015625,0.693115234375,5064,-4058,3060,7,11,34
41735208,0.41790771484375,0.15203857421875,-0.563720703125,0.69598388671875,5027,-3939,3213,4,10,44
41745189,0.41455078125,0.14788818359375,-0.5633544921875,0.69915771484375,4980,-3917,3327,0,9,53
41755182,0.41046142578125,0.14312744140625,-0.5634765625,0.70245361328125,4933,-3937,3392,-3,8,59
41765162,0.40625,0.13818359375,-0.56396484375,0.70556640625,4886,-3967,3409,-5,7,60
41775140,0.40216064453125,0.1334228515625,-0.5645751953125,0.708251953125,4847,-3954,3379,-7,6,56
41785116,0.39849853515625,0.12908935546875,-0.56536865234375,0.71051025390625,4822,-3899,3323,-9,5,50
41795099,0.39532470703125,0.1253662109375,-0.5662841796875,0.71221923828125,4803,-3780,3240,-11,4,45
41805081,0.3922119140625,0.1219482421875,-0.5673828125,0.71368408203125,4771,-3628,3142,-12,1,44
41815065,0.38873291015625,0.11846923828125,-0.568603515625,0.71514892578125,4747,-3469,3061,-13,0,49
41825050,0.38427734375,0.114501953125,-0.57012939453125,0.717041015625,4667,-3360,2973,-13,-2,61
41835027,0.3780517578125,0.10931396484375,-0.572021484375,0.71966552734375,4494,-3276,2859,-14,-4,81
41845010,0.36968994140625,0.10260009765625,-0.57427978515625,0.72314453125,4319,-3192,2763,-14,-5,103
41854995,0.3594970703125,0.094482421875,-0.5767822265625,0.7274169921875,4153,-3094,2657,-15,-5,123
41864984,0.34796142578125,0.08538818359375,-0.579345703125,0.7320556640625,4030,-2975,2552,-15,-5,135
41874960,0.3359375,0.07574462890625,-0.58172607421875,0.73687744140625,3925,-2861,2441,-15,-3,140
41884942,0.3238525390625,0.06591796875,-0.5838623046875,0.74151611328125,3782,-2792,2376,-14,-1,140
41894928,0.31195068359375,0.05584716796875,-0.5855712890625,0.74609375,3606,-2782,2331,-13,2,139
41904909,0.30023193359375,0.0455322265625,-0.58697509765625,0.75048828125,3405,-2804,2281,-13,5,138
41914894,0.2886962890625,0.03485107421875,-0.58807373046875,0.75469970703125,3214,-2839,2237,-13,9,138
41924877,0.27728271484375,0.0238037109375,-0.5888671875,0.7587890625,3039,-2860,2186,-12,13,138
41934858,0.26580810546875,0.01239013671875,-0.58941650390625,0.76275634765625,2851,-2873,2098,-11,16,141
41944839,0.25390625,0.00018310546875,-0.58966064453125,0.7667236328125,2572,-2901,1997,-11,19,148
41954823,0.240966796875,-0.01324462890625,-0.589599609375,0.770751953125,2214,-2973,1881,-11,22,159
41964807,0.226806640625,-0.028076171875,-0.5892333984375,0.77496337890625,1787,-3105,1788,-10,26,173
41974789,0.21142578125,-0.0443115234375,-0.58843994140625,0.77911376953125,1294,-3273,1691,-11,29,185
41984768,0.19500732421875,-0.06170654296875,-0.58734130859375,0.7830810546875,822,-3453,1575,-11,31,194
41994760,0.17791748046875,-0.07965087890625,-0.5858154296875,0.78662109375,320,-3612,1484,-10,32,198
42004744,0.16070556640625,-0.09765625,-0.5838623046875,0.78973388671875,-200,-3760,1378,-10,32,197
42014718,0.14337158203125,-0.1156005859375,-0.58154296875,0.7923583984375,-799,-3902,1252,-9,31,195
42024702,0.12542724609375,-0.13372802734375,-0.57891845703125,0.79449462890625,-1571,-4107,1118,-9,29,198
42034684,0.1060791015625,-0.1527099609375,-0.57586669921875,0.796142578125,-2445,-4447,1003,-11,27,210
42044667,0.08428955078125,-0.173095703125,-0.5721435546875,0.7972412109375,-3325,-4886,913,-13,25,233
42054651,0.05999755859375,-0.19488525390625,-0.567626953125,0.79766845703125,-3966,-5336,849,-14,25,256
42064635,0.0345458984375,-0.2171630859375,-0.5621337890625,0.7972412109375,-4278,-5662,866,-13,25,267
42074615,0.01007080078125,-0.238525390625,-0.55596923828125,0.79620361328125,-4469,-5845,916,-11,26,255
42084602,-0.01153564453125,-0.2579345703125,-0.5496826171875,0.79449462890625,-4821,-5989,949,-6,28,225
42094584,-0.030029296875,-0.2752685546875,-0.54345703125,0.79248046875,-5472,-6136,960,-2,28,193
42104573,-0.0460205078125,-0.29095458984375,-0.537353515625,0.79022216796875,-6141,-6216,946,1,27,170
42114554,-0.06060791015625,-0.3052978515625,-0.53143310546875,0.787841796875,-6485,-6138,985,1,26,157
42124536,-0.07403564453125,-0.31854248046875,-0.52557373046875,0.785400390625,-6398,-5896,1056,1,25,149
42134520,-0.0863037109375,-0.3306884765625,-0.52001953125,0.7828369140625,-6031,-5659,1176,1,26,139
42144501,-0.09716796875,-0.34185791015625,-0.5146484375,0.7802734375,-5579,-5460,1335,2,29,129
42154482,-0.10687255859375,-0.35260009765625,-0.50946044921875,0.77764892578125,-5507,-5375,1425,3,32,122
42164467,-0.1165771484375,-0.36407470703125,-0.50384521484375,0.77459716796875,-5802,-5513,1487,6,35,129
42174449,-0.1278076171875,-0.37677001953125,-0.4970703125,0.7711181640625,-6212,-5634,1483,8,37,150
42184430,-0.14111328125,-0.39111328125,-0.48876953125,0.7669677734375,-6574,-5575,1396,11,37,175
42194422,-0.1563720703125,-0.4066162109375,-0.4788818359375,0.76220703125,-6744,-5334,1309,13,37,196
42204404,-0.17242431640625,-0.4224853515625,-0.46795654296875,0.7568359375,-6704,-4965,1230,15,37,205
42214381,-0.1881103515625,-0.43798828125,-0.45654296875,0.751220703125,-6565,-4523,1151,18,37,200
42224362,-0.20257568359375,-0.45281982421875,-0.4451904296875,0.7454833984375,-6584,-4087,1074,20,38,189
42234350,-0.21600341796875,-0.46728515625,-0.43377685546875,0.739501953125,-7054,-3693,975,23,40,181
42244328,-0.22955322265625,-0.482177734375,-0.42181396484375,0.73272705078125,-8022,-3375,845,24,41,189
42254311,-0.2447509765625,-0.49798583984375,-0.40826416015625,0.724853515625,-9115,-3054,646,24,41,212
42264294,-0.26220703125,-0.51483154296875,-0.392822265625,0.7154541015625,-10050,-2628,432,24,40,238
42274278,-0.281005859375,-0.53192138671875,-0.3759765625,0.704833984375,-10694,-2126,224,23,38,252
42284261,-0.29931640625,-0.5482177734375,-0.3587646484375,0.69366455078125,-11011,-1584,48,22,37,245
42294241,-0.31561279296875,-0.56298828125,-0.34259033203125,0.68267822265625,-11163,-1054,-85,23,37,222
42304232,-0.32904052734375,-0.5760498046875,-0.328125,0.6724853515625,-11391,-596,-205,24,37,190
42314213,-0.33966064453125,-0.58770751953125,-0.3155517578125,0.66314697265625,-11671,-220,-297,25,38,162
42324194,-0.34820556640625,-0.59814453125,-0.304443359375,0.65447998046875,-11973,90,-349,25,38,142
42334186,-0.35552978515625,-0.60784912109375,-0.294189453125,0.646240234375,-12297,326,-390,25,38,133
42344173,-0.36248779296875,-0.61724853515625,-0.28399658203125,0.637939453125,-12558,509,-416,25,37,134
42354156,-0.36956787109375,-0.62640380859375,-0.2735595703125,0.6295166015625,-12684,666,-421,25,37,138
42364127,-0.376708984375,-0.63525390625,-0.2628173828125,0.62091064453125,-12692,810,-402,26,36,140
42374109,-0.3834228515625,-0.64373779296875,-0.252197265625,0.61236572265625,-12600,967,-381,26,36,135
42384094,-0.38922119140625,-0.65167236328125,-0.24224853515625,0.60430908203125,-12459,1114,-357,27,35,124
42394075,-0.393798828125,-0.65887451171875,-0.23333740234375,0.59698486328125,-12267,1263,-325,27,34,108
42404059,-0.3970947265625,-0.66534423828125,-0.22564697265625,0.590576171875,-12059,1397,-293,28,33,91
42414041,-0.39910888671875,-0.671142578125,-0.21923828125,0.58502197265625,-11830,1486,-247,28,31,74
42424023,-0.4000244140625,-0.67626953125,-0.21392822265625,0.5804443359375,-11590,1555,-187,28,30,60
42434004,-0.400146484375,-0.68072509765625,-0.20953369140625,0.57672119140625,-11324,1593,-124,28,27,48
42443995,-0.39971923828125,-0.68475341796875,-0.205810546875,0.5736083984375,-11010,1609,-18,27,25,39
42453978,-0.3990478515625,-0.688232421875,-0.20263671875,0.571044921875,-10649,1686,161,26,24,33
42463954,-0.3984375,-0.6912841796875,-0.19976806640625,0.56878662109375,-10290,1834,401,23,22,29
42473936,-0.3983154296875,-0.69403076171875,-0.197265625,0.56640625,-9966,2013,659,17,24,28
42483920,-0.39886474609375,-0.6964111328125,-0.19512939453125,0.5638427734375,-9704,2176,905,10,25,29
42493900,-0.400146484375,-0.698486328125,-0.1934814453125,0.5609130859375,-9454,2290,1159,3,27,30
42503881,-0.40216064453125,-0.7003173828125,-0.1923828125,0.55755615234375,-9277,2350,1374,-5,30,31
42513863,-0.404541015625,-0.70184326171875,-0.192138671875,0.553955078125,-9173,2405,1573,-12,33,29
42523847,-0.40728759765625,-0.7030029296875,-0.19281005859375,0.55023193359375,-9165,2399,1693,-19,35,24
42533829,-0.4097900390625,-0.703857421875,-0.19464111328125,0.546630859375,-9244,2387,1729,-24,36,16
42543812,-0.411865234375,-0.704345703125,-0.19781494140625,0.5433349609375,-9378,2352,1683,-28,37,4
42553792,-0.4132080078125,-0.704345703125,-0.2022705078125,0.5406494140625,-9530,2296,1582,-30,36,-8
42563771,-0.413818359375,-0.7039794921875,-0.207763671875,0.53857421875,-9701,2205,1421,-31,34,-19
42573763,-0.41375732421875,-0.7032470703125,-0.2139892578125,0.53717041015625,-9865,2093,1218,-31,31,-28
42583748,-0.41314697265625,-0.7022705078125,-0.22052001953125,0.5362548828125,-9995,1974,991,-29,28,-32
42593722,-0.41229248046875,-0.70111083984375,-0.226806640625,0.5357666015625,-10078,1854,752,-27,23,-33
42603706,-0.4112548828125,-0.69989013671875,-0.232666015625,0.53564453125,-10103,1749,505,-23,19,-33
42613688,-0.4100341796875,-0.69854736328125,-0.238037109375,0.53594970703125,-10065,1666,267,-19,14,-33
42623671,-0.40850830078125,-0.69720458984375,-0.24285888671875,0.5367431640625,-9971,1611,46,-15,9,-34
42633653,-0.40655517578125,-0.69580078125,-0.247314453125,0.53802490234375,-9805,1568,-168,-10,5,-36
42643635,-0.4041748046875,-0.6943359375,-0.25140380859375,0.539794921875,-9589,1551,-354,-6,0,-39
42653616,-0.4013671875,-0.69281005859375,-0.2552490234375,0.54205322265625,-9341,1539,-535,-1,-3,-41
42663599,-0.3983154296875,-0.6912841796875,-0.2586669921875,0.5445556640625,-9070,1543,-691,2,-6,-41
42673581,-0.395263671875,-0.68994140625,-0.26153564453125,0.54718017578125,-8816,1557,-842,6,-7,-38
42683563,-0.392333984375,-0.68878173828125,-0.263671875,0.54974365234375,-8569,1598,-975,8,-10,-33
42693545,-0.38970947265625,-0.6878662109375,-0.26495361328125,0.55206298828125,-8315,1645,-1078,10,-11,-26
42703529,-0.3875732421875,-0.687255859375,-0.26544189453125,0.55413818359375,-8079,1702,-1156,12,-12,-19
42713511,-0.38592529296875,-0.6868896484375,-0.26507568359375,0.555908203125,-7885,1769,-1222,13,-12,-11
42723495,-0.384765625,-0.68682861328125,-0.26397705078125,0.5572509765625,-7730,1842,-1291,13,-12,-3
42733481,-0.38409423828125,-0.68707275390625,-0.26226806640625,0.5582275390625,-7611,1923,-1353,14,-12,3
42743462,-0.38372802734375,-0.6875,-0.2601318359375,0.5589599609375,-7531,2007,-1385,14,-12,8
42753449,-0.38360595703125,-0.6881103515625,-0.25775146484375,0.5594482421875,-7501,2096,-1415,13,-11,11
42763432,-0.3836669921875,-0.688720703125,-0.25518798828125,0.55975341796875,-7490,2195,-1455,13,-11,12
42773415,-0.38372802734375,-0.68939208984375,-0.2528076171875,0.55999755859375,-7489,2299,-1480,12,-10,11
42783398,-0.38372802734375,-0.6900634765625,-0.2506103515625,0.5601806640625,-7467,2387,-1484,11,-9,9
42793375,-0.38360595703125,-0.69061279296875,-0.248779296875,0.56036376953125,-7453,2477,-1473,10,-7,6
42803359,-0.3834228515625,-0.691162109375,-0.24737548828125,0.56048583984375,-7441,2558,-1456,8,-5,4
42813341,-0.38311767578125,-0.69171142578125,-0.24627685546875,0.56048583984375,-7455,2612,-1413,7,-3,2
42823326,-0.38275146484375,-0.6922607421875,-0.24560546875,0.56036376953125,-7448,2644,-1333,5,-1,0
42833315,-0.38238525390625,-0.69268798828125,-0.245361328125,0.5601806640625,-7491,2636,-1244,3,2,-2
42843293,-0.38201904296875,-0.693115234375,-0.2454833984375,0.559814453125,-7570,2601,-1161,1,4,-3
42853272,-0.38177490234375,-0.693603515625,-0.245849609375,0.55926513671875,-7676,2559,-1071,-1,6,-3
42863255,-0.38153076171875,-0.69390869140625,-0.24658203125,0.55865478515625,-7816,2484,-982,-3,7,-4
42873244,-0.38140869140625,-0.69415283203125,-0.24755859375,0.55804443359375,-7961,2395,-885,-5,8,-4
42883226,-0.38140869140625,-0.69427490234375,-0.2486572265625,0.55743408203125,-8112,2301,-759,-7,8,-5
42893206,-0.38134765625,-0.69415283203125,-0.25006103515625,0.5570068359375,-8249,2189,-634,-8,7,-7
42903187,-0.38128662109375,-0.69378662109375,-0.25164794921875,0.5567626953125,-8397,2050,-521,-9,6,-8
42913180,-0.38116455078125,-0.6932373046875,-0.25335693359375,0.5567626953125,-8565,1861,-416,-9,5,-9
42923161,-0.3812255859375,-0.69256591796875,-0.2550048828125,0.55682373046875,-8804,1645,-315,-10,3,-6
42933138,-0.381591796875,-0.69183349609375,-0.2562255859375,0.55694580078125,-9122,1415,-240,-10,1,-1
42943121,-0.3822021484375,-0.69097900390625,-0.25701904296875,0.55718994140625,-9445,1198,-125,-9,-1,3
42953098,-0.38287353515625,-0.68994140625,-0.25762939453125,0.5577392578125,-9803,1029,-31,-8,-5,2
42963082,-0.383056640625,-0.68853759765625,-0.2584228515625,0.5589599609375,-10133,920,32,-6,-8,-5
42973063,-0.38238525390625,-0.6866455078125,-0.2598876953125,0.56109619140625,-10411,831,75,-3,-12,-18
42983050,-0.38043212890625,-0.6842041015625,-0.26214599609375,0.5643310546875,-10589,757,111,0,-15,-34
42993034,-0.37713623046875,-0.68115234375,-0.2655029296875,0.56866455078125,-10693,672,111,4,-18,-51
43003016,-0.37255859375,-0.67755126953125,-0.2696533203125,0.573974609375,-10714,600,73,7,-21,-66
43012999,-0.366943359375,-0.67364501953125,-0.2744140625,0.5799560546875,-10711,526,21,10,-24,-76
43022988,-0.36065673828125,-0.66937255859375,-0.2794189453125,0.58636474609375,-10726,450,-45,13,-25,-82
43032964,-0.35406494140625,-0.6650390625,-0.284423828125,0.5928955078125,-10764,388,-133,14,-27,-83
43042946,-0.34765625,-0.66070556640625,-0.28900146484375,0.59930419921875,-10823,342,-234,15,-28,-81
43052931,-0.34149169921875,-0.6563720703125,-0.293212890625,0.60546875,-10893,291,-307,14,-30,-76
43062912,-0.33563232421875,-0.6519775390625,-0.29718017578125,0.61151123046875,-10969,259,-349,14,-30,-76
43072896,-0.32958984375,-0.64739990234375,-0.30133056640625,0.61767578125,-11044,228,-371,13,-31,-80
43082878,-0.3231201171875,-0.64239501953125,-0.305908203125,0.6240234375,-11067,201,-377,12,-32,-88
43092862,-0.31585693359375,-0.6368408203125,-0.3114013671875,0.63067626953125,-11002,153,-384,12,-32,-101
43102843,-0.3076171875,-0.63067626953125,-0.31787109375,0.6376953125,-10904,55,-360,11,-33,-113
43112829,-0.29852294921875,-0.6239013671875,-0.32513427734375,0.6448974609375,-10806,-73,-348,10,-33,-124
43122809,-0.28900146484375,-0.6168212890625,-0.332763671875,0.65216064453125,-10761,-241,-326,10,-33,-127
43132791,-0.27960205078125,-0.609619140625,-0.34033203125,0.65911865234375,-10784,-449,-312,8,-32,-125
43142772,-0.270751953125,-0.6025390625,-0.34747314453125,0.66552734375,-10889,-681,-265,7,-32,-117
43152765,-0.26275634765625,-0.595703125,-0.35400390625,0.67144775390625,-11054,-906,-226,5,-32,-107
43162749,-0.25555419921875,-0.58905029296875,-0.3599853515625,0.6768798828125,-11171,-1128,-180,3,-32,-101
43172732,-0.2484130859375,-0.582275390625,-0.36602783203125,0.68212890625,-11201,-1354,-109,2,-32,-103
43182709,-0.24072265625,-0.574951171875,-0.37255859375,0.6875,-11094,-1596,-11,1,-33,-112
43192692,-0.23187255859375,-0.56689453125,-0.37994384765625,0.6932373046875,-10861,-1860,110,2,-32,-126
43202676,-0.221435546875,-0.557861328125,-0.388427734375,0.69921875,-10511,-2131,235,2,-32,-143
43212656,-0.20947265625,-0.54803466796875,-0.39764404296875,0.7054443359375,-10169,-2392,382,4,-30,-158
43222640,-0.19647216796875,-0.5377197265625,-0.4073486328125,0.71160888671875,-9948,-2674,500,5,-29,-165
43232622,-0.183349609375,-0.52734375,-0.41668701171875,0.7174072265625,-9913,-2981,577,6,-28,-162
43242605,-0.1707763671875,-0.51739501953125,-0.42535400390625,0.72265625,-9959,-3309,629,6,-27,-153
43252591,-0.1591796875,-0.5079345703125,-0.43310546875,0.72735595703125,-9960,-3606,667,6,-27,-141
43262574,-0.1483154296875,-0.498779296875,-0.440185546875,0.73175048828125,-9859,-3856,737,6,-27,-135
43272556,-0.1375732421875,-0.4896240234375,-0.44696044921875,0.7359619140625,-9686,-4097,839,7,-27,-134
43282542,-0.12646484375,-0.47998046875,-0.4537353515625,0.7401123046875,-9471,-4330,956,8,-27,-139
43292520,-0.1146240234375,-0.4698486328125,-0.46075439453125,0.74420166015625,-9199,-4536,1065,8,-27,-147
43302507,-0.10174560546875,-0.45892333984375,-0.46807861328125,0.748291015625,-8866,-4704,1187,9,-27,-158
43312487,-0.0875244140625,-0.4471435546875,-0.475830078125,0.75238037109375,-8524,-4845,1300,11,-27,-172
43322471,-0.07220458984375,-0.43463134765625,-0.48382568359375,0.7562255859375,-8267,-5026,1375,12,-26,-182
43332453,-0.05645751953125,-0.42169189453125,-0.49163818359375,0.75982666015625,-8127,-5246,1434,13,-26,-184
43342434,-0.0411376953125,-0.40899658203125,-0.4989013671875,0.762939453125,-8103,-5512,1419,14,-26,-178
43352428,-0.02655029296875,-0.39666748046875,-0.50555419921875,0.7657470703125,-8023,-5791,1410,15,-28,-170
43362410,-0.012451171875,-0.38446044921875,-0.511474609375,0.7684326171875,-7805,-5975,1422,17,-28,-165
43372391,0.00189208984375,-0.37188720703125,-0.51715087890625,0.7708740234375,-7528,-6098,1422,19,-28,-170
43382367,0.01708984375,-0.35870361328125,-0.52264404296875,0.773193359375,-7264,-6208,1410,22,-29,-178
43392350,0.0330810546875,-0.344970703125,-0.52801513671875,0.77532958984375,-7070,-6291,1369,25,-29,-186
43402333,0.049560546875,-0.3306884765625,-0.533203125,0.777099609375,-6872,-6370,1316,27,-29,-191
43412315,0.066162109375,-0.3162841796875,-0.53802490234375,0.778564453125,-6686,-6425,1242,29,-29,-192
43422301,0.08258056640625,-0.30181884765625,-0.54229736328125,0.77972412109375,-6468,-6464,1171,31,-30,-189
43432281,0.09857177734375,-0.287353515625,-0.54595947265625,0.78076171875,-6260,-6470,1111,33,-30,-185
43442265,0.1141357421875,-0.27325439453125,-0.54901123046875,0.7816162109375,-6102,-6493,1014,36,-30,-180
43452246,0.12896728515625,-0.25946044921875,-0.55145263671875,0.78228759765625,-5895,-6429,928,38,-31,-174
43462236,0.14324951171875,-0.245849609375,-0.55322265625,0.78289794921875,-5589,-6258,879,40,-31,-168
43472221,0.15728759765625,-0.23211669921875,-0.5545654296875,0.783447265625,-5197,-5981,845,41,-32,-166
43482205,0.1712646484375,-0.2181396484375,-0.55560302734375,0.7838134765625,-4781,-5651,818,42,-32,-166
43492192,0.1851806640625,-0.20416259765625,-0.5562744140625,0.783935546875,-4357,-5302,802,43,-32,-165
43502174,0.19873046875,-0.1903076171875,-0.55670166015625,0.7838134765625,-3953,-4967,772,42,-31,-160
43512157,0.21142578125,-0.17706298828125,-0.55670166015625,0.7835693359375,-3554,-4652,806,41,-30,-149
43522127,0.2227783203125,-0.164794921875,-0.5562744140625,0.783447265625,-3196,-4363,842,40,-29,-133
43532113,0.2322998046875,-0.15386962890625,-0.55548095703125,0.783447265625,-2877,-4089,898,38,-28,-113
43542093,0.23974609375,-0.14453125,-0.55426025390625,0.78387451171875,-2616,-3803,975,36,-27,-90
43552077,0.24530029296875,-0.13653564453125,-0.55279541015625,0.78460693359375,-2457,-3461,1001,33,-28,-74
43562061,0.25018310546875,-0.12896728515625,-0.55145263671875,0.7852783203125,-2246,-3064,994,31,-28,-72
43572044,0.256103515625,-0.12054443359375,-0.55047607421875,0.785400390625,-1992,-2663,1003,28,-29,-85
43582026,0.263916015625,-0.11053466796875,-0.54986572265625,0.78466796875,-1709,-2286,1019,26,-30,-107
43592009,0.2738037109375,-0.098876953125,-0.5496826171875,0.782958984375,-1419,-1928,1019,25,-31,-129
43601994,0.28515625,-0.08587646484375,-0.5498046875,0.7803955078125,-1105,-1590,1033,23,-33,-144
43611979,0.2969970703125,-0.07208251953125,-0.54998779296875,0.7772216796875,-758,-1294,1063,21,-35,-146
43621959,0.30804443359375,-0.05853271484375,-0.5501708984375,0.77392578125,-371,-1039,1105,19,-37,-136
43631941,0.317138671875,-0.04583740234375,-0.55029296875,0.77099609375,112,-795,1212,17,-39,-114
43641924,0.32379150390625,-0.03448486328125,-0.55029296875,0.76885986328125,702,-554,1351,16,-41,-86
43651906,0.32763671875,-0.0247802734375,-0.55029296875,0.767578125,1343,-292,1523,13,-42,-55
43661889,0.3287353515625,-0.01678466796875,-0.55035400390625,0.76727294921875,2016,-29,1699,11,-44,-24
43671877,0.32733154296875,-0.0103759765625,-0.550537109375,0.76788330078125,2702,213,1869,9,-44,2
43681853,0.323974609375,-0.00531005859375,-0.5509033203125,0.76910400390625,3390,422,2029,6,-45,24
43691835,0.31903076171875,-0.00140380859375,-0.55145263671875,0.770751953125,4040,589,2159,3,-43,41
43701817,0.31292724609375,0.00140380859375,-0.55224609375,0.772705078125,4594,692,2256,0,-42,55
43711797,0.305908203125,0.0030517578125,-0.5531005859375,0.77490234375,5055,718,2353,-2,-38,68
43721784,0.297607421875,0.003173828125,-0.5540771484375,0.77740478515625,5333,678,2392,-5,-34,84
43731767,0.28778076171875,0.00140380859375,-0.55517578125,0.78033447265625,5462,576,2400,-8,-29,104
43741749,0.276123046875,-0.0025634765625,-0.55633544921875,0.78375244140625,5489,397,2372,-10,-24,125
43751735,0.26251220703125,-0.0087890625,-0.55743408203125,0.78753662109375,5379,173,2323,-13,-19,148
43761711,0.24700927734375,-0.01727294921875,-0.5584716796875,0.79168701171875,5191,-92,2268,-14,-13,169
43771695,0.22991943359375,-0.0277099609375,-0.55926513671875,0.79595947265625,4983,-372,2250,-16,-7,185
43781681,0.212158203125,-0.0396728515625,-0.55975341796875,0.800048828125,4716,-621,2227,-18,1,194
43791659,0.1944580078125,-0.052734375,-0.55987548828125,0.8037109375,4343,-832,2192,-19,8,195
43801643,0.17706298828125,-0.066650390625,-0.5596923828125,0.80682373046875,3813,-1025,2113,-20,15,192
43811625,0.159912109375,-0.08135986328125,-0.5592041015625,0.809326171875,3082,-1236,2029,-21,21,190
43821609,0.14251708984375,-0.09710693359375,-0.55865478515625,0.811279296875,2175,-1542,1904,-24,25,192
43831589,0.1243896484375,-0.11395263671875,-0.55792236328125,0.81256103515625,1082,-1961,1777,-27,28,198
43841572,0.105224609375,-0.13189697265625,-0.55712890625,0.8131103515625,-29,-2421,1646,-30,29,204
43851556,0.08563232421875,-0.15008544921875,-0.55615234375,0.81292724609375,-972,-2855,1575,-31,28,202
43861542,0.06707763671875,-0.16729736328125,-0.55499267578125,0.81207275390625,-1780,-3216,1508,-31,27,187
43871520,0.05029296875,-0.1829833984375,-0.55401611328125,0.81060791015625,-2667,-3586,1383,-31,25,166
43881504,0.0345458984375,-0.19775390625,-0.5531005859375,0.80853271484375,-3543,-4002,1276,-31,23,154
43891488,0.018798828125,-0.212158203125,-0.5521240234375,0.80609130859375,-4212,-4377,1215,-33,21,156
43901471,0.00225830078125,-0.22674560546875,-0.55084228515625,0.80322265625,-4534,-4719,1208,-34,21,166
43911453,-0.01495361328125,-0.24163818359375,-0.54913330078125,0.7999267578125,-4559,-5041,1292,-34,23,177
43921434,-0.03179931640625,-0.25634765625,-0.54693603515625,0.79632568359375,-4520,-5251,1370,-32,26,174
43931424,-0.04669189453125,-0.27032470703125,-0.5445556640625,0.7926025390625,-4773,-5385,1356,-27,30,154
43941406,-0.05950927734375,-0.2835693359375,-0.54217529296875,0.7886962890625,-5481,-5577,1277,-22,32,135
43951391,-0.07177734375,-0.2967529296875,-0.5394287109375,0.78472900390625,-6517,-5804,1064,-18,32,132
43961367,-0.0855712890625,-0.31103515625,-0.53594970703125,0.7801513671875,-7674,-5920,728,-18,29,151
43971351,-0.1025390625,-0.3270263671875,-0.53118896484375,0.77484130859375,-8470,-5862,477,-19,26,183
43981334,-0.12249755859375,-0.34442138671875,-0.52490234375,0.7686767578125,-8733,-5722,355,-23,25,216
43991320,-0.1439208984375,-0.36224365234375,-0.51776123046875,0.7615966796875,-8549,-5563,340,-25,26,230
44001302,-0.1641845703125,-0.37908935546875,-0.510498046875,0.754150390625,-8184,-5352,430,-24,29,217
44011284,-0.181396484375,-0.39422607421875,-0.50396728515625,0.746826171875,-8267,-5148,429,-21,32,186
44021269,-0.19537353515625,-0.40777587890625,-0.4984130859375,0.73974609375,-8788,-5119,352,-17,34,155
44031255,-0.20703125,-0.42010498046875,-0.49346923828125,0.73291015625,-9393,-5085,227,-14,35,136
44043995,-0.2176513671875,-0.43170166015625,-0.48876953125,0.7261962890625,-9913,-4987,81,-12,34,129
44051224,-0.22802734375,-0.4429931640625,-0.48388671875,0.719482421875,-10132,-4871,7,-12,32,129
44061207,-0.2384033203125,-0.45391845703125,-0.47869873046875,0.71270751953125,-9985,-4747,13,-11,32,132
44071187,-0.248291015625,-0.46435546875,-0.473388671875,0.7061767578125,-9619,-4614,114,-9,32,128
44081179,-0.257080078125,-0.47406005859375,-0.46820068359375,0.70001220703125,-9360,-4434,204,-6,33,118
44091160,-0.26458740234375,-0.4832763671875,-0.4632568359375,0.69415283203125,-9429,-4288,231,-2,33,106
44101140,-0.271484375,-0.4921875,-0.45819091796875,0.6885986328125,-9672,-4183,243,1,32,104
44111113,-0.27874755859375,-0.50128173828125,-0.4525146484375,0.682861328125,-10027,-4014,199,3,30,111
44121097,-0.28704833984375,-0.51080322265625,-0.4456787109375,0.67681884765625,-10308,-3821,146,5,27,125
44131080,-0.29632568359375,-0.52081298828125,-0.43768310546875,0.67041015625,-10360,-3592,118,6,25,138
44141064,-0.3062744140625,-0.53082275390625,-0.4288330078125,0.66375732421875,-10203,-3335,129,7,23,145
44151050,-0.31610107421875,-0.54052734375,-0.4195556640625,0.6572265625,-9997,-3046,166,10,21,144
44161027,-0.32525634765625,-0.5496826171875,-0.4102783203125,0.65093994140625,-9864,-2734,178,12,20,136
44171009,-0.33343505859375,-0.5582275390625,-0.40130615234375,0.64508056640625,-9814,-2417,177,14,18,126
44180995,-0.34088134765625,-0.56610107421875,-0.39263916015625,0.6396484375,-9888,-2113,184,16,16,118
44190981,-0.3480224609375,-0.5736083984375,-0.3839111328125,0.6343994140625,-10054,-1835,164,17,14,116
44200958,-0.35528564453125,-0.5809326171875,-0.3748779296875,0.62908935546875,-10206,-1579,141,17,12,120
44210942,-0.3631591796875,-0.58831787109375,-0.3651123046875,0.62353515625,-10312,-1308,123,17,9,128
44220925,-0.37158203125,-0.595703125,-0.3544921875,0.61761474609375,-10411,-994,95,18,7,136
44230908,-0.3802490234375,-0.60308837890625,-0.3433837890625,0.61138916015625,-10520,-664,75,18,6,140
44240891,-0.38897705078125,-0.61041259765625,-0.33184814453125,0.60504150390625,-10712,-308,45,19,5,141
44250877,-0.39739990234375,-0.61737060546875,-0.3201904296875,0.59869384765625,-10941,-14,35,20,4,139
44260855,-0.40557861328125,-0.62396240234375,-0.30859375,0.59246826171875,-11210,214,31,21,2,138
44270838,-0.41351318359375,-0.630126953125,-0.29693603515625,0.58636474609375,-11506,395,56,20,1,138
44280821,-0.42138671875,-0.63592529296875,-0.28533935546875,0.58026123046875,-11762,560,97,20,-1,137
44290803,-0.428955078125,-0.6412353515625,-0.2738037109375,0.5743408203125,-11927,713,154,19,-3,134
44300784,-0.4359130859375,-0.64593505859375,-0.262939453125,0.5689697265625,-12009,896,245,19,-4,122
44310772,-0.44158935546875,-0.649658203125,-0.25341796875,0.5645751953125,-12160,1063,323,18,-6,104
44320756,-0.44573974609375,-0.65252685546875,-0.2454833984375,0.56146240234375,-12171,1304,455,18,-7,79
44330739,-0.4481201171875,-0.65435791015625,-0.23968505859375,0.55999755859375,-12134,1428,601,18,-9,51
44340713,-0.44866943359375,-0.65509033203125,-0.23614501953125,0.5601806640625,-12067,1452,739,17,-10,24
44350697,-0.44757080078125,-0.65496826171875,-0.23443603515625,0.56195068359375,-12032,1380,873,17,-12,2
44360679,-0.4454345703125,-0.654052734375,-0.23419189453125,0.5648193359375,-12008,1281,1025,16,-14,-14
44370657,-0.44268798828125,-0.65264892578125,-0.23468017578125,0.56842041015625,-11983,1202,1222,15,-16,-22
44380643,-0.43988037109375,-0.65069580078125,-0.23541259765625,0.57244873046875,-11955,1203,1475,14,-18,-26
44390623,-0.437255859375,-0.64837646484375,-0.2362060546875,0.5767822265625,-11896,1205,1729,12,-20,-29
44400605,-0.4346923828125,-0.6456298828125,-0.23736572265625,0.581298828125,-11804,1150,1943,9,-22,-33
44410589,-0.4320068359375,-0.64239501953125,-0.23907470703125,0.586181640625,-11687,968,2120,6,-24,-38
44420574,-0.4290771484375,-0.6385498046875,-0.24139404296875,0.59149169921875,-11588,722,2307,2,-26,-43
44430556,-0.42608642578125,-0.6341552734375,-0.2442626953125,0.5972900390625,-11569,503,2564,0,-29,-49
44440542,-0.42279052734375,-0.629150390625,-0.24749755859375,0.603515625,-11637,338,2867,-1,-30,-55
44450519,-0.41912841796875,-0.62384033203125,-0.25103759765625,0.61004638671875,-11749,255,3129,-1,-31,-61
44460502,-0.4151611328125,-0.6182861328125,-0.2550048828125,0.61676025390625,-11877,211,3304,-2,-31,-67
44470485,-0.41070556640625,-0.612548828125,-0.25946044921875,0.62353515625,-11931,176,3389,-3,-30,-73
44480468,-0.40570068359375,-0.6065673828125,-0.2646484375,0.63043212890625,-11930,125,3412,-5,-30,-83
44490455,-0.3997802734375,-0.60028076171875,-0.27081298828125,0.63763427734375,-11927,35,3401,-7,-28,-95
44500433,-0.39276123046875,-0.59356689453125,-0.278076171875,0.64508056640625,-11941,-87,3412,-8,-26,-109
44510425,-0.384521484375,-0.58642578125,-0.286376953125,0.65289306640625,-11964,-226,3444,-8,-23,-123
44520409,-0.375,-0.578857421875,-0.295654296875,0.66094970703125,-12065,-363,3436,-8,-21,-137
44530389,-0.3642578125,-0.571044921875,-0.30584716796875,0.66912841796875,-12224,-491,3382,-8,-19,-149
44540366,-0.3525390625,-0.56292724609375,-0.31658935546875,0.67718505859375,-12400,-606,3255,-8,-17,-159
44550350,-0.3402099609375,-0.5545654296875,-0.3277587890625,0.68505859375,-12595,-713,3056,-9,-17,-165
44560333,-0.327392578125,-0.54595947265625,-0.3392333984375,0.69256591796875,-12735,-842,2817,-10,-17,-170
44570315,-0.3143310546875,-0.53717041015625,-0.35076904296875,0.69976806640625,-12814,-998,2581,-12,-17,-173
44580297,-0.30108642578125,-0.5279541015625,-0.36236572265625,0.70660400390625,-12860,-1155,2382,-13,-18,-175
44590279,-0.28759765625,-0.51837158203125,-0.37396240234375,0.7132568359375,-12893,-1312,2205,-14,-18,-179
44600264,-0.27386474609375,-0.50836181640625,-0.3856201171875,0.71966552734375,-12819,-1475,2048,-14,-20,-183
44610255,-0.25982666015625,-0.49786376953125,-0.397216796875,0.725830078125,-12668,-1665,1872,-15,-22,-187
44620237,-0.24554443359375,-0.48681640625,-0.4088134765625,0.73187255859375,-12499,-1841,1671,-15,-25,-190
44630220,-0.23114013671875,-0.475341796875,-0.42010498046875,0.7376708984375,-12307,-2069,1449,-14,-28,-190
44640205,-0.2169189453125,-0.4635009765625,-0.43096923828125,0.74322509765625,-12066,-2288,1227,-13,-31,-189
44650192,-0.202880859375,-0.45135498046875,-0.44140625,0.74853515625,-11839,-2478,1041,-12,-35,-188
44660175,-0.1890869140625,-0.43890380859375,-0.4512939453125,0.75360107421875,-11577,-2667,858,-10,-38,-186
44670159,-0.17529296875,-0.42608642578125,-0.46075439453125,0.75860595703125,-11199,-2850,718,-8,-40,-186
44680129,-0.1612548828125,-0.4127197265625,-0.46978759765625,0.76348876953125,-10738,-2990,611,-6,-42,-189
44690112,-0.146728515625,-0.39886474609375,-0.47857666015625,0.768310546875,-10278,-3127,490,-3,-44,-193
44700100,-0.1318359375,-0.384521484375,-0.48699951171875,0.77301025390625,-9790,-3285,409,0,-45,-196
44710078,-0.1165771484375,-0.369873046875,-0.494873046875,0.777587890625,-9317,-3432,329,4,-45,-196
44720062,-0.1011962890625,-0.355224609375,-0.502197265625,0.78192138671875,-8909,-3584,255,8,-45,-195
44730050,-0.08599853515625,-0.3406982421875,-0.50872802734375,0.78594970703125,-8489,-3722,203,11,-44,-190
44740027,-0.0709228515625,-0.32635498046875,-0.5145263671875,0.789794921875,-7998,-3779,171,15,-43,-186
44750011,-0.055908203125,-0.31219482421875,-0.5196533203125,0.7933349609375,-7511,-3784,138,18,-42,-184
44759996,-0.04083251953125,-0.29803466796875,-0.52423095703125,0.79669189453125,-7044,-3774,128,20,-40,-183
44769983,-0.02557373046875,-0.2840576171875,-0.52838134765625,0.7996826171875,-6663,-3759,113,23,-38,-182
44779958,-0.01025390625,-0.270263671875,-0.53204345703125,0.8023681640625,-6269,-3750,105,24,-35,-181
44789941,0.00518798828125,-0.256591796875,-0.5352783203125,0.80474853515625,-5876,-3727,128,26,-33,-179
44799926,0.0205078125,-0.24310302734375,-0.53802490234375,0.806884765625,-5504,-3669,168,27,-31,-176
44809907,0.03564453125,-0.22998046875,-0.540283203125,0.80865478515625,-5155,-3588,224,28,-29,-171
44819890,0.05023193359375,-0.21728515625,-0.5421142578125,0.81011962890625,-4894,-3487,252,27,-27,-166
44829877,0.06402587890625,-0.20538330078125,-0.543701171875,0.81121826171875,-4781,-3434,253,26,-26,-157
44839857,0.07659912109375,-0.1942138671875,-0.54510498046875,0.81195068359375,-4654,-3444,295,24,-26,-146
44849839,0.0882568359375,-0.18365478515625,-0.5462646484375,0.81243896484375,-4461,-3432,382,21,-25,-137
44859821,0.0994873046875,-0.17333984375,-0.54736328125,0.81268310546875,-4161,-3386,488,19,-24,-133
44869803,0.11090087890625,-0.162841796875,-0.54864501953125,0.8125,-3798,-3331,609,16,-24,-136
44879787,0.12286376953125,-0.15185546875,-0.55010986328125,0.81195068359375,-3393,-3293,741,13,-23,-141
44889766,0.13543701171875,-0.14044189453125,-0.5517578125,0.81085205078125,-3007,-3266,865,10,-22,-147
44899761,0.14874267578125,-0.1285400390625,-0.55364990234375,0.8092041015625,-2607,-3304,1006,8,-22,-154
44909743,0.16278076171875,-0.11614990234375,-0.55560302734375,0.8070068359375,-2225,-3387,1132,5,-21,-161
44919721,0.17730712890625,-0.103515625,-0.5576171875,0.80426025390625,-1836,-3485,1273,3,-19,-164
44929703,0.19189453125,-0.0909423828125,-0.5595703125,0.80108642578125,-1461,-3556,1433,1,-18,-163
44939686,0.206298828125,-0.07855224609375,-0.56146240234375,0.79754638671875,-1051,-3578,1561,-1,-17,-160
44949666,0.22027587890625,-0.06640625,-0.56317138671875,0.79364013671875,-614,-3557,1701,-3,-16,-155
44959648,0.23382568359375,-0.0546875,-0.56475830078125,0.78955078125,-166,-3514,1840,-4,-15,-149
44969635,0.2470703125,-0.043212890625,-0.56622314453125,0.78515625,303,-3473,1978,-6,-14,-145
44979613,0.26019287109375,-0.03192138671875,-0.567626953125,0.7803955078125,780,-3445,2131,-8,-13,-144
44989597,0.2734375,-0.02056884765625,-0.56878662109375,0.775390625,1263,-3420,2298,-8,-12,-144
44999579,0.2867431640625,-0.00927734375,-0.56964111328125,0.7701416015625,1714,-3375,2463,-8,-10,-144
45009563,0.29986572265625,0.001708984375,-0.57025146484375,0.7647705078125,2143,-3306,2629,-8,-9,-140
45019545,0.31231689453125,0.01214599609375,-0.57049560546875,0.75946044921875,2531,-3217,2785,-8,-8,-130
45029529,0.323486328125,0.02166748046875,-0.570556640625,0.7545166015625,2884,-3100,2925,-8,-8,-116
45039512,0.33331298828125,0.03009033203125,-0.57049560546875,0.75,3255,-2978,3063,-8,-7,-100
45049493,0.341796875,0.03753662109375,-0.5704345703125,0.74591064453125,3624,-2853,3180,-9,-7,-86
45059478,0.349365234375,0.0443115234375,-0.5703125,0.7420654296875,3992,-2744,3287,-9,-7,-76
45069458,0.356689453125,0.05096435546875,-0.570068359375,0.73834228515625,4299,-2682,3374,-8,-7,-76
45079438,0.36419677734375,0.05810546875,-0.56951904296875,0.73455810546875,4498,-2612,3428,-4,-9,-81
45089434,0.371826171875,0.06597900390625,-0.56866455078125,0.730712890625,4628,-2491,3435,0,-13,-85
45099414,0.3790283203125,0.0743408203125,-0.56756591796875,0.72705078125,4725,-2335,3413,4,-17,-82
45109398,0.38482666015625,0.08258056640625,-0.5662841796875,0.72412109375,4814,-2178,3406,9,-22,-68
45119374,0.38836669921875,0.08984375,-0.56512451171875,0.7222900390625,4931,-2024,3388,12,-26,-44
45129356,0.38909912109375,0.095458984375,-0.56414794921875,0.72198486328125,5053,-1899,3351,14,-29,-12
45139340,0.3865966796875,0.09893798828125,-0.56353759765625,0.7232666015625,5166,-1789,3293,15,-30,23
45149322,0.38104248046875,0.10015869140625,-0.5633544921875,0.7261962890625,5231,-1706,3225,15,-30,57
45159306,0.372802734375,0.09912109375,-0.5635986328125,0.73040771484375,5271,-1636,3131,15,-29,86
45169293,0.36248779296875,0.09637451171875,-0.56414794921875,0.73553466796875,5276,-1563,3023,13,-28,109
45179270,0.3504638671875,0.092041015625,-0.56494140625,0.74127197265625,5175,-1515,2911,11,-26,126
45189255,0.3372802734375,0.08642578125,-0.5660400390625,0.74725341796875,5053,-1489,2794,8,-25,138
45199243,0.3233642578125,0.0799560546875,-0.56719970703125,0.753173828125,4898,-1492,2683,5,-23,145
45209230,0.30908203125,0.07275390625,-0.56854248046875,0.7589111328125,4765,-1557,2579,2,-20,149
45219210,0.294921875,0.0650634765625,-0.56982421875,0.76422119140625,4645,-1682,2502,0,-16,148
45229190,0.281005859375,0.0570068359375,-0.57098388671875,0.76922607421875,4508,-1848,2414,-2,-12,147
45239180,0.26739501953125,0.04833984375,-0.57208251953125,0.77386474609375,4337,-2019,2326,-3,-7,147
45249161,0.2540283203125,0.03912353515625,-0.572998046875,0.7781982421875,4193,-2159,2259,-5,-1,146
45259141,0.24114990234375,0.0294189453125,-0.57366943359375,0.7822265625,4015,-2309,2173,-6,5,145
45269115,0.228515625,0.01885986328125,-0.57421875,0.78594970703125,3740,-2459,2099,-7,11,146
45279098,0.2161865234375,0.007568359375,-0.57452392578125,0.78936767578125,3433,-2611,2025,-8,17,145
45289080,0.204345703125,-0.00421142578125,-0.5745849609375,0.79248046875,3047,-2786,1949,-8,23,141
45299064,0.1932373046875,-0.01629638671875,-0.5743408203125,0.7952880859375,2579,-3004,1885,-8,28,135
45309050,0.1826171875,-0.02862548828125,-0.5738525390625,0.79779052734375,1984,-3236,1792,-7,31,130
45319029,0.17169189453125,-0.04168701171875,-0.57318115234375,0.80010986328125,1225,-3545,1655,-7,34,135
45329011,0.15911865234375,-0.05633544921875,-0.57244873046875,0.8023681640625,271,-3973,1468,-8,34,152
45338995,0.14361572265625,-0.07318115234375,-0.571533203125,0.80462646484375,-793,-4503,1264,-9,33,178
45348983,0.125,-0.092041015625,-0.5701904296875,0.80670166015625,-1842,-5045,1101,-9,30,203
45358959,0.1046142578125,-0.111572265625,-0.5682373046875,0.80853271484375,-2697,-5523,1000,-8,27,213
45368943,0.08428955078125,-0.13031005859375,-0.56585693359375,0.80975341796875,-3322,-5909,948,-7,23,205
45378927,0.06585693359375,-0.14691162109375,-0.56317138671875,0.81048583984375,-3709,-6153,952,-5,18,181
45388909,0.05023193359375,-0.1607666015625,-0.56060791015625,0.810791015625,-3881,-6313,1007,-3,15,151
45398892,0.0374755859375,-0.1719970703125,-0.55828857421875,0.81072998046875,-3826,-6375,1117,-3,12,123
45408877,0.02734375,-0.18109130859375,-0.55633544921875,0.810546875,-3576,-6367,1275,-3,12,101
45418857,0.01898193359375,-0.18878173828125,-0.55450439453125,0.81024169921875,-3289,-6297,1477,-3,12,88
45428837,0.01116943359375,-0.19610595703125,-0.5526123046875,0.8099365234375,-3223,-6254,1621,-3,13,85
45438821,0.0025634765625,-0.2042236328125,-0.55047607421875,0.80950927734375,-3436,-6275,1677,-2,13,96
45448804,-0.00823974609375,-0.2138671875,-0.547607421875,0.80889892578125,-3751,-6318,1718,-1,12,119
45458788,-0.021728515625,-0.22503662109375,-0.5439453125,0.80810546875,-3930,-6293,1772,-1,11,146
45468769,-0.03741455078125,-0.23736572265625,-0.539306640625,0.80706787109375,-3958,-6158,1833,-1,10,167
45478761,-0.05426025390625,-0.2503662109375,-0.5340576171875,0.8056640625,-3889,-5994,1892,-1,11,178
45488742,-0.07122802734375,-0.263427734375,-0.52850341796875,0.80389404296875,-3929,-5851,1947,-1,13,179
45498721,-0.0877685546875,-0.276611328125,-0.522705078125,0.8016357421875,-4271,-5797,1948,0,16,175
45508702,-0.1036376953125,-0.28985595703125,-0.516845703125,0.798828125,-4736,-5834,1935,1,19,170
45518685,-0.11871337890625,-0.3028564453125,-0.51092529296875,0.79571533203125,-5166,-5858,1915,3,21,164
45528669,-0.13275146484375,-0.31549072265625,-0.5048828125,0.79241943359375,-5554,-5811,1864,5,23,155
45538653,-0.1456298828125,-0.32757568359375,-0.49871826171875,0.7891845703125,-5859,-5725,1802,8,24,146
45548635,-0.15753173828125,-0.33935546875,-0.49249267578125,0.78582763671875,-6169,-5603,1734,10,26,141
45558617,-0.16900634765625,-0.3511962890625,-0.486083984375,0.78216552734375,-6569,-5521,1650,12,28,139
45568602,-0.180419921875,-0.3634033203125,-0.4794921875,0.77813720703125,-7016,-5505,1551,13,30,143
45578584,-0.19183349609375,-0.3759765625,-0.47247314453125,0.773681640625,-7412,-5471,1515,15,33,146
45588568,-0.202880859375,-0.38861083984375,-0.46514892578125,0.76910400390625,-7837,-5429,1474,17,35,144
45598551,-0.213134765625,-0.401123046875,-0.45751953125,0.76446533203125,-8286,-5376,1445,22,36,139
45608534,-0.222412109375,-0.41326904296875,-0.44976806640625,0.75994873046875,-8657,-5271,1389,26,36,132
45618517,-0.2308349609375,-0.4249267578125,-0.4417724609375,0.755615234375,-8944,-5091,1297,29,35,126
45628503,-0.23876953125,-0.436279296875,-0.43365478515625,0.75140380859375,-9170,-4871,1222,31,34,123
45638486,-0.24652099609375,-0.4473876953125,-0.42529296875,0.74713134765625,-9333,-4648,1169,33,33,123
45648468,-0.25433349609375,-0.45843505859375,-0.4166259765625,0.74267578125,-9420,-4437,1158,33,34,126
45658452,-0.26202392578125,-0.46942138671875,-0.40765380859375,0.73809814453125,-9416,-4197,1190,34,35,126
45668431,-0.26910400390625,-0.48016357421875,-0.39874267578125,0.7335205078125,-9314,-3943,1250,35,36,120
45678423,-0.27508544921875,-0.49029541015625,-0.39013671875,0.729248046875,-9169,-3679,1339,38,37,109
45688405,-0.2796630859375,-0.499755859375,-0.3819580078125,0.72540283203125,-9107,-3419,1403,40,37,96
45698381,-0.28326416015625,-0.50885009765625,-0.3740234375,0.7218017578125,-9245,-3157,1414,43,37,88
45708365,-0.2864990234375,-0.517822265625,-0.3660888671875,0.71820068359375,-9459,-2890,1389,43,36,87
45718350,-0.2901611328125,-0.52679443359375,-0.35772705078125,0.71441650390625,-9667,-2602,1346,43,35,93
45728343,-0.29449462890625,-0.535888671875,-0.348876953125,0.710205078125,-9776,-2291,1302,42,34,99
45738321,-0.29937744140625,-0.54486083984375,-0.33966064453125,0.70587158203125,-9775,-1987,1285,41,32,104
45748304,-0.30419921875,-0.55352783203125,-0.330322265625,0.701416015625,-9673,-1673,1260,40,31,102
45758293,-0.30859375,-0.5616455078125,-0.3214111328125,0.69720458984375,-9557,-1396,1266,40,29,94
45768267,-0.3121337890625,-0.56915283203125,-0.31298828125,0.693359375,-9532,-1136,1280,40,28,84
45778255,-0.31488037109375,-0.5760498046875,-0.30511474609375,0.68988037109375,-9589,-904,1268,40,26,75
45788240,-0.31719970703125,-0.58245849609375,-0.297607421875,0.68670654296875,-9668,-666,1241,39,24,70
45798224,-0.31951904296875,-0.5885009765625,-0.29022216796875,0.68365478515625,-9767,-435,1171,38,21,69
45808206,-0.32208251953125,-0.59429931640625,-0.28265380859375,0.6805419921875,-9833,-212,1098,37,19,71
45818188,-0.32513427734375,-0.59991455078125,-0.27484130859375,0.6773681640625,-9795,9,1026,35,16,75
45828180,-0.32867431640625,-0.6053466796875,-0.26678466796875,0.67413330078125,-9672,203,970,34,14,79
45838161,-0.3323974609375,-0.61053466796875,-0.25848388671875,0.6707763671875,-9494,379,920,33,13,80
45848140,-0.33624267578125,-0.615478515625,-0.25018310546875,0.66748046875,-9360,541,914,32,11,81
45858115,-0.34014892578125,-0.62030029296875,-0.24176025390625,0.6641845703125,-9280,710,914,32,10,82
45868098,-0.3441162109375,-0.62493896484375,-0.233154296875,0.66082763671875,-9250,893,907,33,10,83
45878081,-0.34820556640625,-0.6295166015625,-0.224365234375,0.6573486328125,-9265,1079,857,32,8,85
45888064,-0.3525390625,-0.63409423828125,-0.2152099609375,0.65374755859375,-9300,1283,745,33,7,88
45898050,-0.3570556640625,-0.638671875,-0.2056884765625,0.64990234375,-9311,1472,594,33,6,92
45908029,-0.36175537109375,-0.64312744140625,-0.19586181640625,0.6458740234375,-9262,1621,476,33,4,96
45918013,-0.366455078125,-0.6475830078125,-0.185791015625,0.64178466796875,-9153,1771,420,34,5,97
45927996,-0.371337890625,-0.65191650390625,-0.1754150390625,0.637451171875,-8971,1931,495,34,6,101
45937986,-0.37646484375,-0.65631103515625,-0.164794921875,0.6328125,-8739,2127,666,34,9,104
45947961,-0.3818359375,-0.6607666015625,-0.1541748046875,0.6275634765625,-8522,2367,887,33,14,106
45957944,-0.38720703125,-0.66534423828125,-0.14404296875,0.621826171875,-8327,2605,1197,30,22,103
45967927,-0.39208984375,-0.66986083984375,-0.1351318359375,0.6158447265625,-8137,2697,1623,27,30,93
45977910,-0.3961181640625,-0.67425537109375,-0.12823486328125,0.6099853515625,-8004,2992,2158,22,39,76
45987892,-0.3990478515625,-0.6783447265625,-0.123779296875,0.6043701171875,-8028,3290,2742,17,49,52
45997877,-0.40057373046875,-0.68212890625,-0.12255859375,0.599365234375,-8214,3535,3243,9,57,25
46007849,-0.40069580078125,-0.6854248046875,-0.12451171875,0.59515380859375,-8546,3735,3557,0,62,-1
46017827,-0.39947509765625,-0.68817138671875,-0.12945556640625,0.5916748046875,-8962,3856,3653,-8,64,-26
46027807,-0.39727783203125,-0.6903076171875,-0.1368408203125,0.58905029296875,-9388,3865,3529,-16,63,-46
46037790,-0.394287109375,-0.69171142578125,-0.14599609375,0.587158203125,-9788,3792,3237,-23,59,-60
46047769,-0.39093017578125,-0.6923828125,-0.15618896484375,0.58599853515625,-10118,3625,2827,-28,52,-67
46057762,-0.3876953125,-0.69244384765625,-0.16644287109375,0.5853271484375,-10351,3388,2387,-31,44,-68
46067744,-0.3848876953125,-0.69183349609375,-0.17620849609375,0.5849609375,-10510,3112,1931,-32,35,-62
46077722,-0.38287353515625,-0.69091796875,-0.1846923828125,0.5848388671875,-10573,2807,1496,-32,26,-51
46087705,-0.3817138671875,-0.68963623046875,-0.191650390625,0.58477783203125,-10588,2525,1085,-31,17,-37
46097687,-0.38153076171875,-0.6883544921875,-0.19683837890625,0.584716796875,-10558,2309,701,-28,8,-23
46107665,-0.38226318359375,-0.68695068359375,-0.2003173828125,0.584716796875,-10474,2118,331,-25,0,-9
46117654,-0.3836669921875,-0.68560791015625,-0.20208740234375,0.58477783203125,-10313,1982,12,-21,-8,2
46127635,-0.3856201171875,-0.6842041015625,-0.2025146484375,0.5849609375,-10085,1876,-275,-17,-14,10
