subject,Joshua Spiesman
arm,right
label,1
hz,100.17461882824998
time,5.460465

timestamp_us,q0,q1,q2,q3,ax,ay,az,gx,gy,gz
48624457,0.50689697265625,-0.75543212890625,-0.092041015625,-0.4049072265625,5636,-5627,-1271,1,-3,1
48634440,0.507080078125,-0.75543212890625,-0.09228515625,-0.40460205078125,5641,-5637,-1274,1,-3,0
48644426,0.50726318359375,-0.7554931640625,-0.092529296875,-0.40423583984375,5636,-5642,-1293,2,-4,-1
48654408,0.50738525390625,-0.75555419921875,-0.09283447265625,-0.4039306640625,5644,-5636,-1300,2,-4,-1
48664392,0.50762939453125,-0.75555419921875,-0.09320068359375,-0.403564453125,5664,-5641,-1303,2,-4,0
48674370,0.5078125,-0.75555419921875,-0.09344482421875,-0.4031982421875,5657,-5628,-1308,2,-4,0
48684352,0.50811767578125,-0.75555419921875,-0.09368896484375,-0.40277099609375,5663,-5621,-1312,3,-4,1
48694334,0.5084228515625,-0.75555419921875,-0.09393310546875,-0.40234375,5662,-5614,-1306,3,-4,1
48704318,0.5087890625,-0.7554931640625,-0.0941162109375,-0.40185546875,5659,-5612,-1309,3,-4,1
48714303,0.5091552734375,-0.7554931640625,-0.0943603515625,-0.4013671875,5647,-5632,-1315,3,-4,1
48724282,0.509521484375,-0.7554931640625,-0.0946044921875,-0.40093994140625,5649,-5646,-1337,3,-4,0
48734267,0.509765625,-0.75543212890625,-0.09503173828125,-0.40057373046875,5669,-5661,-1338,3,-4,-1
48744246,0.510009765625,-0.75537109375,-0.0955810546875,-0.4002685546875,5682,-5677,-1353,3,-4,-3
48754225,0.51019287109375,-0.75531005859375,-0.09625244140625,-0.4000244140625,5695,-5684,-1378,4,-4,-3
48764209,0.51031494140625,-0.75518798828125,-0.096923828125,-0.39984130859375,5695,-5682,-1375,4,-4,-4
48774196,0.510498046875,-0.75506591796875,-0.09765625,-0.399658203125,5687,-5674,-1377,4,-4,-4
48784180,0.51068115234375,-0.7550048828125,-0.0982666015625,-0.3994140625,5688,-5663,-1388,4,-4,-3
48794162,0.51092529296875,-0.75494384765625,-0.098876953125,-0.39910888671875,5697,-5667,-1375,4,-4,-2
48804140,0.51129150390625,-0.7548828125,-0.09930419921875,-0.398681640625,5691,-5667,-1365,4,-4,-1
48814124,0.51165771484375,-0.75482177734375,-0.0997314453125,-0.398193359375,5686,-5657,-1358,4,-5,0
48824105,0.51202392578125,-0.7547607421875,-0.10003662109375,-0.397705078125,5670,-5646,-1361,4,-4,1
48834088,0.512451171875,-0.75482177734375,-0.1002197265625,-0.39703369140625,5658,-5639,-1359,3,-5,2
48844071,0.51287841796875,-0.75482177734375,-0.1004638671875,-0.39642333984375,5653,-5637,-1369,4,-5,2
48854051,0.5133056640625,-0.75482177734375,-0.1007080078125,-0.39581298828125,5634,-5626,-1351,3,-5,1
48864035,0.513671875,-0.75482177734375,-0.10107421875,-0.39520263671875,5619,-5621,-1349,3,-5,1
48874019,0.51397705078125,-0.7548828125,-0.10150146484375,-0.3946533203125,5606,-5625,-1346,3,-5,0
48884004,0.51422119140625,-0.75494384765625,-0.1019287109375,-0.3941650390625,5601,-5614,-1351,3,-5,-1
48893981,0.514404296875,-0.75494384765625,-0.10247802734375,-0.3936767578125,5611,-5620,-1361,3,-5,-1
48903968,0.51458740234375,-0.7550048828125,-0.10302734375,-0.3931884765625,5606,-5628,-1368,3,-6,-2
48913946,0.5147705078125,-0.75506591796875,-0.1036376953125,-0.39276123046875,5618,-5650,-1388,3,-6,-2
48923929,0.514892578125,-0.755126953125,-0.104248046875,-0.39227294921875,5631,-5660,-1395,3,-6,-2
48933912,0.5150146484375,-0.755126953125,-0.10491943359375,-0.391845703125,5637,-5660,-1405,3,-6,-2
48943893,0.51519775390625,-0.75518798828125,-0.10546875,-0.39141845703125,5638,-5663,-1423,3,-5,-2
48953875,0.515380859375,-0.7552490234375,-0.10601806640625,-0.390869140625,5624,-5673,-1428,3,-6,-1
48963856,0.515625,-0.75531005859375,-0.10650634765625,-0.390380859375,5632,-5680,-1440,3,-5,-1
48973848,0.51580810546875,-0.75537109375,-0.10699462890625,-0.38983154296875,5648,-5708,-1448,3,-5,-1
48983830,0.51605224609375,-0.75537109375,-0.1075439453125,-0.38934326171875,5655,-5731,-1450,3,-5,-1
48993807,0.5162353515625,-0.75543212890625,-0.10809326171875,-0.38885498046875,5668,-5740,-1463,3,-5,-2
49003790,0.51641845703125,-0.75543212890625,-0.10870361328125,-0.388427734375,5681,-5743,-1472,3,-6,-2
49013775,0.51666259765625,-0.75537109375,-0.10931396484375,-0.38800048828125,5682,-5742,-1477,4,-5,-2
49023753,0.516845703125,-0.75537109375,-0.10986328125,-0.3875732421875,5680,-5743,-1486,3,-5,-2
49033736,0.51708984375,-0.75537109375,-0.1104736328125,-0.38720703125,5699,-5746,-1499,4,-5,-2
49043720,0.517333984375,-0.75531005859375,-0.1109619140625,-0.38677978515625,5692,-5748,-1496,4,-4,-1
49053702,0.51763916015625,-0.7552490234375,-0.1114501953125,-0.3863525390625,5707,-5755,-1490,4,-4,-1
49063687,0.5179443359375,-0.75518798828125,-0.1119384765625,-0.385986328125,5718,-5759,-1505,4,-4,-1
49073681,0.51824951171875,-0.75506591796875,-0.1123046875,-0.38555908203125,5716,-5752,-1492,4,-4,0
49083661,0.51861572265625,-0.7550048828125,-0.11260986328125,-0.3851318359375,5711,-5745,-1497,4,-3,0
49093645,0.51904296875,-0.75494384765625,-0.1129150390625,-0.38470458984375,5706,-5737,-1498,4,-3,1
49103631,0.5194091796875,-0.75482177734375,-0.11309814453125,-0.38427734375,5696,-5724,-1506,4,-3,1
49113616,0.51983642578125,-0.7547607421875,-0.11334228515625,-0.3837890625,5695,-5736,-1504,4,-3,1
49123599,0.520263671875,-0.754638671875,-0.11358642578125,-0.3834228515625,5700,-5730,-1505,4,-3,0
49133582,0.5206298828125,-0.75445556640625,-0.1138916015625,-0.3831787109375,5711,-5725,-1492,4,-2,-1
49143548,0.52093505859375,-0.7542724609375,-0.11431884765625,-0.38299560546875,5705,-5712,-1501,4,-2,-2
49153531,0.52117919921875,-0.75408935546875,-0.11480712890625,-0.3828125,5698,-5702,-1500,4,-2,-2
49163515,0.52142333984375,-0.75390625,-0.115234375,-0.38275146484375,5685,-5696,-1500,4,-2,-3
49173497,0.5216064453125,-0.75372314453125,-0.11578369140625,-0.3826904296875,5668,-5693,-1502,4,-2,-3
49183477,0.52178955078125,-0.7535400390625,-0.1162109375,-0.3826904296875,5667,-5684,-1509,3,-2,-3
49193460,0.52197265625,-0.75335693359375,-0.11669921875,-0.38262939453125,5657,-5662,-1500,3,-1,-3
49203442,0.52215576171875,-0.753173828125,-0.11712646484375,-0.382568359375,5654,-5656,-1479,3,-2,-3
49213427,0.52239990234375,-0.75299072265625,-0.1175537109375,-0.38250732421875,5633,-5650,-1464,3,-2,-2
49223416,0.5225830078125,-0.75286865234375,-0.11785888671875,-0.38238525390625,5612,-5639,-1445,2,-2,-2
49233399,0.5228271484375,-0.75274658203125,-0.11810302734375,-0.38226318359375,5616,-5632,-1429,3,-2,-1
49243374,0.52301025390625,-0.752685546875,-0.11834716796875,-0.382080078125,5628,-5628,-1425,2,-2,-1
49253361,0.523193359375,-0.75262451171875,-0.1185302734375,-0.38189697265625,5624,-5619,-1423,2,-2,0
49263343,0.52337646484375,-0.7525634765625,-0.11865234375,-0.38165283203125,5637,-5630,-1432,2,-2,0
49273326,0.52349853515625,-0.7525634765625,-0.11883544921875,-0.38153076171875,5653,-5632,-1433,2,-2,-1
49283306,0.5235595703125,-0.7525634765625,-0.1190185546875,-0.38134765625,5656,-5653,-1436,1,-2,-1
49293288,0.523681640625,-0.75250244140625,-0.11920166015625,-0.3812255859375,5656,-5661,-1443,1,-2,-1
49303270,0.523681640625,-0.75250244140625,-0.11944580078125,-0.38116455078125,5666,-5658,-1441,1,-2,-2
49313253,0.52374267578125,-0.75250244140625,-0.11968994140625,-0.38104248046875,5667,-5665,-1451,1,-1,-2
49323234,0.52374267578125,-0.75244140625,-0.11993408203125,-0.38104248046875,5689,-5663,-1453,1,-1,-2
49333216,0.52374267578125,-0.75238037109375,-0.1202392578125,-0.38104248046875,5695,-5675,-1456,1,-1,-2
49343198,0.523681640625,-0.75238037109375,-0.1204833984375,-0.38104248046875,5702,-5684,-1465,1,-1,-2
49353188,0.523681640625,-0.7523193359375,-0.12078857421875,-0.38104248046875,5714,-5695,-1454,1,-1,-2
49363171,0.52374267578125,-0.75225830078125,-0.12103271484375,-0.381103515625,5713,-5703,-1448,1,-1,-2
49373147,0.52374267578125,-0.752197265625,-0.1212158203125,-0.381103515625,5705,-5688,-1431,1,-1,-2
49383131,0.5238037109375,-0.75213623046875,-0.12139892578125,-0.381103515625,5697,-5690,-1422,1,-1,-1
49393121,0.52392578125,-0.7520751953125,-0.1214599609375,-0.3809814453125,5693,-5681,-1425,1,-1,0
49403099,0.5240478515625,-0.7520751953125,-0.1214599609375,-0.380859375,5678,-5679,-1418,1,-1,0
49413079,0.524169921875,-0.7520751953125,-0.1214599609375,-0.38067626953125,5667,-5665,-1415,1,-1,1
49423062,0.52435302734375,-0.75201416015625,-0.12139892578125,-0.38055419921875,5659,-5659,-1409,1,-1,1
49433043,0.52447509765625,-0.75201416015625,-0.12139892578125,-0.38037109375,5658,-5656,-1394,1,-1,1
49443027,0.524658203125,-0.75201416015625,-0.12139892578125,-0.38018798828125,5656,-5643,-1393,1,-1,1
49453011,0.5247802734375,-0.751953125,-0.1214599609375,-0.3800048828125,5650,-5657,-1385,1,-1,0
49462996,0.52496337890625,-0.75189208984375,-0.12152099609375,-0.37994384765625,5649,-5651,-1381,1,-1,-1
49472974,0.5250244140625,-0.7518310546875,-0.1217041015625,-0.3798828125,5640,-5643,-1381,1,-1,-1
49482956,0.52508544921875,-0.75177001953125,-0.12188720703125,-0.3798828125,5642,-5632,-1377,1,-1,-2
49492940,0.525146484375,-0.751708984375,-0.12213134765625,-0.37982177734375,5629,-5630,-1369,1,-1,-2
49502920,0.52520751953125,-0.75164794921875,-0.1224365234375,-0.37982177734375,5631,-5633,-1356,1,-1,-2
49512904,0.52532958984375,-0.75152587890625,-0.1226806640625,-0.37982177734375,5629,-5649,-1356,1,-1,-2
49522886,0.52532958984375,-0.75152587890625,-0.1229248046875,-0.3797607421875,5629,-5650,-1355,1,-2,-2
49532874,0.52545166015625,-0.75140380859375,-0.1231689453125,-0.37969970703125,5631,-5645,-1339,1,-2,-2
49542858,0.5255126953125,-0.7513427734375,-0.1234130859375,-0.37957763671875,5642,-5647,-1338,1,-2,-2
49552840,0.525634765625,-0.75128173828125,-0.1236572265625,-0.3795166015625,5648,-5652,-1334,1,-2,-2
49562822,0.52569580078125,-0.751220703125,-0.12396240234375,-0.37945556640625,5671,-5658,-1330,1,-2,-2
49572798,0.52569580078125,-0.75115966796875,-0.124267578125,-0.37945556640625,5684,-5652,-1318,1,-2,-2
49582783,0.5257568359375,-0.7510986328125,-0.1246337890625,-0.37939453125,5681,-5657,-1311,1,-2,-2
49592764,0.52581787109375,-0.75103759765625,-0.12493896484375,-0.37939453125,5687,-5655,-1303,1,-2,-2
49602747,0.52587890625,-0.7509765625,-0.125244140625,-0.37933349609375,5691,-5666,-1289,1,-2,-2
49612729,0.52593994140625,-0.7508544921875,-0.12554931640625,-0.37933349609375,5698,-5674,-1277,1,-2,-2
49622718,0.5260009765625,-0.75079345703125,-0.1258544921875,-0.37921142578125,5697,-5676,-1267,1,-2,-2
49632695,0.52606201171875,-0.75079345703125,-0.12603759765625,-0.379150390625,5708,-5678,-1269,1,-2,-1
49642682,0.52618408203125,-0.750732421875,-0.126220703125,-0.37896728515625,5713,-5677,-1266,1,-2,0
49652668,0.52630615234375,-0.750732421875,-0.12640380859375,-0.3787841796875,5718,-5675,-1259,1,-2,0
49662650,0.5264892578125,-0.75067138671875,-0.12646484375,-0.378662109375,5735,-5679,-1248,1,-2,0
49672633,0.526611328125,-0.75067138671875,-0.12652587890625,-0.37847900390625,5750,-5678,-1249,1,-2,1
49682612,0.52679443359375,-0.7506103515625,-0.1265869140625,-0.3782958984375,5745,-5666,-1254,1,-2,1
49692604,0.52703857421875,-0.75054931640625,-0.1265869140625,-0.3780517578125,5747,-5664,-1250,1,-2,1
49702586,0.5272216796875,-0.75048828125,-0.1265869140625,-0.3779296875,5749,-5651,-1242,1,-1,1
49712563,0.52740478515625,-0.75042724609375,-0.12652587890625,-0.37774658203125,5754,-5645,-1225,1,-1,1
49722540,0.52764892578125,-0.7503662109375,-0.12646484375,-0.37762451171875,5760,-5646,-1205,1,-1,1
49732528,0.52789306640625,-0.750244140625,-0.12640380859375,-0.3775634765625,5762,-5655,-1200,1,0,1
49742507,0.528076171875,-0.7501220703125,-0.1263427734375,-0.3775634765625,5769,-5662,-1193,1,0,0
49752489,0.52825927734375,-0.74993896484375,-0.1263427734375,-0.37762451171875,5794,-5655,-1169,1,0,0
49762476,0.5284423828125,-0.749755859375,-0.12628173828125,-0.37774658203125,5814,-5669,-1155,1,1,1
49772454,0.5286865234375,-0.74957275390625,-0.12603759765625,-0.37786865234375,5835,-5685,-1115,0,2,2
49782436,0.529052734375,-0.74932861328125,-0.1256103515625,-0.37799072265625,5879,-5706,-1071,0,2,3
49792421,0.52947998046875,-0.74908447265625,-0.125,-0.37811279296875,5913,-5730,-1044,0,3,5
49802406,0.52996826171875,-0.748779296875,-0.12420654296875,-0.378173828125,5954,-5782,-1019,0,4,6
49812381,0.530517578125,-0.74847412109375,-0.1231689453125,-0.37835693359375,5991,-5836,-986,0,5,7
49822364,0.53106689453125,-0.7481689453125,-0.1220703125,-0.378662109375,6053,-5882,-939,-1,7,7
49832348,0.53173828125,-0.74774169921875,-0.1207275390625,-0.37896728515625,6093,-5926,-878,0,8,9
49842330,0.5325927734375,-0.74725341796875,-0.11907958984375,-0.37921142578125,6133,-5980,-807,-1,9,12
49852310,0.53363037109375,-0.746826171875,-0.116943359375,-0.37939453125,6157,-6033,-738,-1,11,16
49862291,0.53485107421875,-0.746337890625,-0.1142578125,-0.37933349609375,6188,-6094,-691,-1,12,21
49872274,0.53631591796875,-0.74591064453125,-0.111083984375,-0.379150390625,6221,-6164,-642,-1,13,25
49882257,0.53790283203125,-0.74542236328125,-0.1075439453125,-0.3787841796875,6234,-6229,-599,-1,14,29
49892241,0.53973388671875,-0.744873046875,-0.1036376953125,-0.37841796875,6224,-6302,-526,-1,16,31
49902223,0.54156494140625,-0.7442626953125,-0.09942626953125,-0.37811279296875,6198,-6365,-459,-2,18,33
49912209,0.54345703125,-0.74359130859375,-0.09503173828125,-0.3778076171875,6155,-6432,-406,-2,19,33
49922193,0.54547119140625,-0.7427978515625,-0.09051513671875,-0.3775634765625,6115,-6501,-360,-2,20,34
49932176,0.5474853515625,-0.74200439453125,-0.0858154296875,-0.37738037109375,6052,-6572,-298,-1,22,35
49942158,0.54962158203125,-0.74102783203125,-0.0809326171875,-0.377197265625,6009,-6675,-230,-1,23,36
49952138,0.55181884765625,-0.739990234375,-0.07586669921875,-0.3770751953125,5969,-6780,-156,-1,25,36
49962125,0.5540771484375,-0.73876953125,-0.07073974609375,-0.377197265625,5934,-6906,-79,0,26,36
49972104,0.55633544921875,-0.7374267578125,-0.06561279296875,-0.37744140625,5899,-7034,-23,0,28,35
49982087,0.55859375,-0.73590087890625,-0.06060791015625,-0.3779296875,5877,-7167,16,1,29,32
49992069,0.560791015625,-0.73419189453125,-0.05572509765625,-0.37872314453125,5852,-7310,44,3,31,30
50002053,0.56304931640625,-0.73223876953125,-0.0509033203125,-0.3797607421875,5840,-7453,63,4,33,29
50012035,0.56549072265625,-0.73016357421875,-0.04583740234375,-0.380859375,5821,-7589,89,5,35,31
50022018,0.5682373046875,-0.72784423828125,-0.0404052734375,-0.38177490234375,5794,-7705,121,7,37,35
50032000,0.5712890625,-0.72540283203125,-0.034423828125,-0.3824462890625,5731,-7772,137,9,39,42
50045421,0.5748291015625,-0.7227783203125,-0.02789306640625,-0.3826904296875,5643,-7818,178,10,40,48
50051971,0.5787353515625,-0.719970703125,-0.02069091796875,-0.382568359375,5541,-7863,229,11,41,54
50061952,0.5830078125,-0.7169189453125,-0.01312255859375,-0.38214111328125,5425,-7927,273,13,42,59
50071934,0.58740234375,-0.71368408203125,-0.00531005859375,-0.381591796875,5318,-8010,333,15,43,61
50081918,0.5919189453125,-0.710205078125,0.0025634765625,-0.381103515625,5188,-8081,375,16,44,60
50091902,0.59637451171875,-0.70660400390625,0.01025390625,-0.3807373046875,5071,-8143,413,17,45,58
50101889,0.60064697265625,-0.702880859375,0.0177001953125,-0.380615234375,4964,-8215,411,18,46,55
50111874,0.6048583984375,-0.698974609375,0.0250244140625,-0.38079833984375,4848,-8282,403,20,48,53
50121859,0.60906982421875,-0.69488525390625,0.0322265625,-0.38104248046875,4717,-8346,407,21,49,52
50131842,0.61334228515625,-0.69061279296875,0.03961181640625,-0.3812255859375,4610,-8414,422,22,50,55
50141826,0.61785888671875,-0.68609619140625,0.0472412109375,-0.3812255859375,4489,-8464,461,24,51,58
50151802,0.62255859375,-0.68133544921875,0.05511474609375,-0.3809814453125,4371,-8481,498,26,51,61
50161783,0.62750244140625,-0.6763916015625,0.06317138671875,-0.3804931640625,4236,-8488,528,27,52,64
50171766,0.63250732421875,-0.6712646484375,0.0714111328125,-0.3798828125,4067,-8485,551,29,52,66
50181748,0.6375732421875,-0.66595458984375,0.07965087890625,-0.379150390625,3900,-8475,589,30,52,67
50191732,0.64263916015625,-0.660400390625,0.087890625,-0.37835693359375,3751,-8494,608,31,52,67
50201718,0.647705078125,-0.65484619140625,0.09613037109375,-0.37744140625,3597,-8515,619,32,52,67
50211697,0.65264892578125,-0.64910888671875,0.10418701171875,-0.37664794921875,3459,-8544,638,33,53,66
50221681,0.65753173828125,-0.64324951171875,0.1121826171875,-0.37591552734375,3304,-8542,657,33,53,65
50231667,0.6622314453125,-0.63739013671875,0.12005615234375,-0.37518310546875,3143,-8522,694,34,53,64
50241650,0.6669921875,-0.63134765625,0.12799072265625,-0.3743896484375,2972,-8526,730,34,53,65
50251633,0.671630859375,-0.62530517578125,0.13592529296875,-0.37335205078125,2791,-8513,758,34,52,67
50261612,0.6763916015625,-0.619140625,0.14410400390625,-0.37200927734375,2631,-8528,799,34,51,70
50271602,0.68121337890625,-0.6129150390625,0.15240478515625,-0.3702392578125,2488,-8554,820,34,51,74
50281587,0.68603515625,-0.60662841796875,0.16094970703125,-0.3680419921875,2330,-8576,837,34,50,77
50291556,0.69085693359375,-0.60028076171875,0.1695556640625,-0.36553955078125,2202,-8601,880,34,49,80
50301541,0.6956787109375,-0.5938720703125,0.17822265625,-0.36279296875,2047,-8650,922,33,48,82
50311521,0.70037841796875,-0.58740234375,0.18701171875,-0.35980224609375,1896,-8676,958,33,48,83
50321506,0.705078125,-0.58087158203125,0.19586181640625,-0.3565673828125,1751,-8701,982,33,48,85
50331487,0.70965576171875,-0.57427978515625,0.20477294921875,-0.3531494140625,1579,-8693,1009,32,47,86
50341469,0.714111328125,-0.56756591796875,0.21368408203125,-0.349609375,1404,-8646,1054,32,47,87
50351452,0.718505859375,-0.56085205078125,0.22259521484375,-0.3458251953125,1223,-8588,1100,31,46,88
50361438,0.7227783203125,-0.5540771484375,0.23138427734375,-0.342041015625,1053,-8510,1168,31,46,87
50371421,0.72686767578125,-0.54730224609375,0.24017333984375,-0.33819580078125,858,-8454,1220,30,46,87
50381409,0.73089599609375,-0.54052734375,0.24896240234375,-0.3341064453125,669,-8408,1279,30,45,88
50391384,0.73480224609375,-0.53363037109375,0.25775146484375,-0.329833984375,466,-8361,1330,29,44,90
50401367,0.73870849609375,-0.52667236328125,0.2666015625,-0.32525634765625,268,-8314,1360,29,43,92
50411351,0.7425537109375,-0.5196533203125,0.2755126953125,-0.32037353515625,87,-8258,1402,29,43,94
50421332,0.74627685546875,-0.5125732421875,0.284423828125,-0.3153076171875,-88,-8190,1467,28,42,95
50431314,0.74993896484375,-0.50543212890625,0.29315185546875,-0.31011962890625,-277,-8105,1524,27,41,95
50441296,0.75347900390625,-0.49822998046875,0.30181884765625,-0.3048095703125,-454,-8011,1583,27,40,95
50451279,0.75689697265625,-0.4910888671875,0.310302734375,-0.2994384765625,-647,-7964,1630,27,39,95
50461264,0.76019287109375,-0.48388671875,0.31866455078125,-0.29400634765625,-816,-7925,1655,27,39,94
50471244,0.76336669921875,-0.4766845703125,0.32684326171875,-0.28851318359375,-997,-7880,1695,27,38,94
50481227,0.766357421875,-0.46942138671875,0.33489990234375,-0.2830810546875,-1177,-7822,1733,27,37,93
50491209,0.769287109375,-0.462158203125,0.34271240234375,-0.2777099609375,-1357,-7712,1781,27,36,91
50501198,0.7720947265625,-0.454833984375,0.35028076171875,-0.2724609375,-1556,-7584,1843,27,35,89
50511180,0.77484130859375,-0.447509765625,0.357666015625,-0.26715087890625,-1763,-7470,1907,27,34,88
50521164,0.777587890625,-0.440185546875,0.3648681640625,-0.26171875,-1973,-7385,1959,27,33,89
50531141,0.7801513671875,-0.43292236328125,0.37188720703125,-0.25616455078125,-2179,-7320,2005,26,31,88
50541122,0.78271484375,-0.4256591796875,0.378662109375,-0.2506103515625,-2357,-7221,2056,26,30,87
50551105,0.78515625,-0.41845703125,0.3851318359375,-0.2449951171875,-2507,-7109,2111,26,28,86
50561088,0.78759765625,-0.4112548828125,0.39141845703125,-0.2393798828125,-2648,-7008,2156,26,27,86
50571070,0.78997802734375,-0.40411376953125,0.3975830078125,-0.23358154296875,-2800,-6923,2182,25,25,87
50581052,0.79229736328125,-0.3968505859375,0.40362548828125,-0.22760009765625,-2961,-6845,2210,25,24,88
50591035,0.794677734375,-0.38958740234375,0.4095458984375,-0.2213134765625,-3106,-6768,2250,25,22,90
50601018,0.7969970703125,-0.3822021484375,0.41534423828125,-0.21484375,-3254,-6659,2290,24,21,91
50611002,0.79931640625,-0.374755859375,0.42108154296875,-0.2081298828125,-3407,-6509,2341,24,20,91
50620984,0.80157470703125,-0.3673095703125,0.4266357421875,-0.2012939453125,-3546,-6365,2398,23,19,92
50630968,0.80377197265625,-0.35992431640625,0.431884765625,-0.1944580078125,-3682,-6267,2448,23,18,90
50640950,0.8057861328125,-0.35284423828125,0.4368896484375,-0.1878662109375,-3828,-6228,2464,22,17,86
50650930,0.80755615234375,-0.34619140625,0.4415283203125,-0.18182373046875,-3960,-6219,2501,22,16,80
50660913,0.80914306640625,-0.33984375,0.44580078125,-0.17626953125,-4100,-6178,2540,21,16,75
50670895,0.810546875,-0.333740234375,0.44989013671875,-0.1708984375,-4239,-6081,2572,19,15,73
50680879,0.8118896484375,-0.32763671875,0.4539794921875,-0.16534423828125,-4373,-5954,2617,18,14,74
50690858,0.8133544921875,-0.32135009765625,0.45806884765625,-0.1591796875,-4494,-5833,2663,17,13,79
50700849,0.81488037109375,-0.31475830078125,0.46221923828125,-0.15234375,-4606,-5733,2711,16,12,86
50710833,0.81646728515625,-0.30792236328125,0.466552734375,-0.14459228515625,-4724,-5662,2731,16,11,94
50720815,0.81805419921875,-0.30072021484375,0.470947265625,-0.1361083984375,-4850,-5579,2754,15,9,99
50730793,0.81964111328125,-0.29345703125,0.4752197265625,-0.1273193359375,-4960,-5514,2778,14,8,101
50740777,0.821044921875,-0.28631591796875,0.47930908203125,-0.11865234375,-5053,-5438,2786,14,8,99
50750758,0.8223876953125,-0.2794189453125,0.48309326171875,-0.11053466796875,-5149,-5358,2805,14,7,93
50760740,0.82342529296875,-0.27288818359375,0.48663330078125,-0.10308837890625,-5249,-5277,2810,14,8,85
50770724,0.8243408203125,-0.26678466796875,0.4898681640625,-0.09619140625,-5379,-5208,2820,14,8,80
50780707,0.82513427734375,-0.2607421875,0.4930419921875,-0.08953857421875,-5495,-5089,2841,14,7,79
50790689,0.82598876953125,-0.25439453125,0.49615478515625,-0.08251953125,-5613,-4930,2870,14,7,83
50800669,0.826904296875,-0.2476806640625,0.499267578125,-0.07476806640625,-5711,-4768,2899,14,5,90
50810661,0.8277587890625,-0.2406005859375,0.50238037109375,-0.06640625,-5795,-4617,2926,14,5,95
50820643,0.82861328125,-0.23345947265625,0.50543212890625,-0.057861328125,-5864,-4512,2934,14,4,96
50830631,0.82940673828125,-0.22650146484375,0.50823974609375,-0.04962158203125,-5937,-4411,2954,14,3,92
50840613,0.83001708984375,-0.2197265625,0.5108642578125,-0.041748046875,-5990,-4249,2977,14,4,88
50850599,0.83056640625,-0.2130126953125,0.51336669921875,-0.0341796875,-6063,-4034,3014,14,3,86
50860579,0.83111572265625,-0.206298828125,0.51568603515625,-0.02655029296875,-6128,-3810,3050,13,3,86
50870549,0.83154296875,-0.19952392578125,0.5179443359375,-0.01861572265625,-6183,-3588,3067,13,2,87
50880533,0.83197021484375,-0.1927490234375,0.52008056640625,-0.0106201171875,-6232,-3400,3078,12,1,88
50890508,0.832275390625,-0.18609619140625,0.5220947265625,-0.00262451171875,-6255,-3258,3094,12,0,87
50900492,0.83251953125,-0.1795654296875,0.52398681640625,0.0052490234375,-6286,-3117,3083,11,0,86
50910476,0.83270263671875,-0.1732177734375,0.52569580078125,0.01300048828125,-6304,-2974,3099,10,0,84
50920458,0.832763671875,-0.1669921875,0.52740478515625,0.02056884765625,-6300,-2816,3088,10,0,83
50930439,0.83270263671875,-0.16058349609375,0.529052734375,0.02838134765625,-6297,-2625,3104,10,0,85
50940425,0.8326416015625,-0.1539306640625,0.5306396484375,0.03668212890625,-6300,-2416,3125,9,-1,89
50950410,0.83251953125,-0.14697265625,0.53216552734375,0.0455322265625,-6333,-2222,3145,9,-1,94
50960386,0.832275390625,-0.13983154296875,0.53363037109375,0.05462646484375,-6331,-2074,3137,9,-2,96
50970370,0.8319091796875,-0.1329345703125,0.534912109375,0.06353759765625,-6339,-1916,3124,8,-3,93
50980352,0.83154296875,-0.1263427734375,0.5360107421875,0.072021484375,-6314,-1748,3124,8,-3,87
50990332,0.8311767578125,-0.1202392578125,0.53692626953125,0.0797119140625,-6265,-1586,3106,8,-3,79
51000317,0.83074951171875,-0.11480712890625,0.5377197265625,0.08648681640625,-6239,-1458,3091,7,-2,70
51010303,0.83026123046875,-0.1097412109375,0.5384521484375,0.09271240234375,-6207,-1349,3082,7,-1,66
51020281,0.8297119140625,-0.10479736328125,0.5391845703125,0.09881591796875,-6188,-1242,3057,7,-1,67
51030265,0.82904052734375,-0.09942626953125,0.53997802734375,0.10546875,-6185,-1114,3035,7,-1,72
51040252,0.82818603515625,-0.093505859375,0.5408935546875,0.11279296875,-6194,-937,3025,8,0,81
51050231,0.82708740234375,-0.08709716796875,0.54180908203125,0.1209716796875,-6188,-740,3024,7,0,87
51060216,0.82586669921875,-0.08038330078125,0.54278564453125,0.1295166015625,-6213,-552,3019,7,-1,90
51070197,0.8245849609375,-0.07379150390625,0.54364013671875,0.13787841796875,-6208,-369,2996,7,0,86
51080185,0.8232421875,-0.06768798828125,0.54443359375,0.14556884765625,-6205,-213,3001,7,1,79
51090167,0.8218994140625,-0.06219482421875,0.54522705078125,0.15252685546875,-6243,-55,3009,6,1,71
51100145,0.82061767578125,-0.05712890625,0.54595947265625,0.1588134765625,-6261,86,3025,6,2,65
51110127,0.81927490234375,-0.05242919921875,0.546630859375,0.164794921875,-6290,251,3049,5,2,63
51120110,0.81787109375,-0.04779052734375,0.54730224609375,0.17071533203125,-6314,395,3076,4,3,62
51130092,0.81640625,-0.04315185546875,0.5479736328125,0.17669677734375,-6323,552,3101,4,3,63
51140074,0.8148193359375,-0.03839111328125,0.54864501953125,0.1829833984375,-6319,719,3114,4,3,66
51150061,0.8131103515625,-0.03350830078125,0.54937744140625,0.189453125,-6294,852,3135,3,4,67
51160038,0.81121826171875,-0.02862548828125,0.550048828125,0.196044921875,-6301,978,3137,3,5,68
51170022,0.809326171875,-0.02386474609375,0.55078125,0.20245361328125,-6322,1081,3151,3,5,66
51180006,0.80731201171875,-0.01922607421875,0.551513671875,0.2088623046875,-6333,1205,3162,2,6,66
51189989,0.80523681640625,-0.0145263671875,0.55218505859375,0.21539306640625,-6325,1343,3194,2,6,67
51199972,0.80303955078125,-0.00970458984375,0.5528564453125,0.2220458984375,-6329,1496,3203,2,7,69
51209958,0.80072021484375,-0.00482177734375,0.55352783203125,0.228759765625,-6337,1647,3209,2,7,69
51219941,0.79827880859375,0.0,0.55426025390625,0.2354736328125,-6328,1756,3197,2,7,69
51229923,0.7957763671875,0.00469970703125,0.55499267578125,0.24200439453125,-6322,1872,3209,2,8,68
51239906,0.793212890625,0.00946044921875,0.55572509765625,0.24847412109375,-6313,1980,3206,3,9,67
51249889,0.79052734375,0.01416015625,0.556640625,0.2548828125,-6316,2114,3210,3,10,67
51259874,0.78765869140625,0.0189208984375,0.55755615234375,0.26123046875,-6314,2250,3209,4,11,68
51269859,0.78466796875,0.0238037109375,0.55853271484375,0.26763916015625,-6329,2390,3201,4,12,68
51279841,0.7816162109375,0.0286865234375,0.55950927734375,0.27410888671875,-6369,2542,3201,4,12,70
51289823,0.77838134765625,0.03375244140625,0.5604248046875,0.28076171875,-6397,2693,3208,4,12,72
51299801,0.77490234375,0.0390625,0.56134033203125,0.28778076171875,-6431,2862,3210,4,12,76
51309784,0.771240234375,0.04461669921875,0.5621337890625,0.29510498046875,-6428,3018,3196,4,12,79
51319768,0.7674560546875,0.05023193359375,0.5628662109375,0.302490234375,-6393,3160,3176,4,12,80
51329750,0.76361083984375,0.0557861328125,0.5635986328125,0.30987548828125,-6354,3300,3149,4,12,79
51339731,0.759765625,0.06121826171875,0.56427001953125,0.31707763671875,-6318,3449,3108,4,12,78
51349718,0.75579833984375,0.066650390625,0.56488037109375,0.32421875,-6293,3631,3079,3,12,78
51359698,0.75177001953125,0.072021484375,0.5654296875,0.3314208984375,-6275,3803,3053,3,12,78
51369681,0.7476806640625,0.0775146484375,0.5657958984375,0.3387451171875,-6233,3977,3016,2,11,80
51379668,0.74346923828125,0.0830078125,0.56610107421875,0.34613037109375,-6190,4143,2973,2,11,79
51389649,0.7393798828125,0.08831787109375,0.56622314453125,0.353271484375,-6129,4290,2949,1,10,76
51399633,0.7354736328125,0.0931396484375,0.56634521484375,0.35986328125,-6053,4412,2899,1,10,70
51409616,0.73187255859375,0.0975341796875,0.56646728515625,0.3658447265625,-5978,4548,2878,1,9,63
51419600,0.72845458984375,0.1015625,0.56658935546875,0.371337890625,-5906,4662,2840,1,9,58
51429581,0.72515869140625,0.10540771484375,0.56658935546875,0.37664794921875,-5842,4781,2793,0,8,57
51439552,0.7218017578125,0.10931396484375,0.5665283203125,0.38201904296875,-5795,4883,2749,0,7,59
51449533,0.71832275390625,0.11346435546875,0.5662841796875,0.38775634765625,-5738,4987,2725,-1,6,63
51459513,0.7147216796875,0.11785888671875,0.5657958984375,0.39373779296875,-5689,5101,2724,-1,5,66
51469498,0.71112060546875,0.12237548828125,0.56512451171875,0.39984130859375,-5634,5203,2715,-2,4,66
51479480,0.7076416015625,0.1265869140625,0.56439208984375,0.40557861328125,-5571,5287,2697,-2,3,62
51489464,0.70440673828125,0.1304931640625,0.563720703125,0.410888671875,-5506,5389,2663,-2,3,57
51499446,0.70147705078125,0.134033203125,0.5631103515625,0.41571044921875,-5439,5504,2623,-3,3,51
51509427,0.69866943359375,0.13726806640625,0.56243896484375,0.420166015625,-5362,5606,2580,-3,2,47
51519414,0.69610595703125,0.14019775390625,0.561767578125,0.4244384765625,-5270,5692,2566,-4,2,44
51529391,0.693603515625,0.14300537109375,0.56103515625,0.428466796875,-5190,5757,2554,-4,2,42
51539374,0.69122314453125,0.1455078125,0.5604248046875,0.4322509765625,-5100,5796,2535,-4,2,39
51549357,0.68914794921875,0.147705078125,0.559814453125,0.43560791015625,-5023,5830,2519,-4,3,33
51559340,0.687255859375,0.14947509765625,0.55938720703125,0.43853759765625,-4958,5865,2525,-4,3,28
51569322,0.6856689453125,0.15087890625,0.55902099609375,0.44097900390625,-4917,5905,2527,-3,3,23
51579304,0.6842041015625,0.15216064453125,0.55877685546875,0.44317626953125,-4898,5955,2525,-4,3,21
51589286,0.682861328125,0.1533203125,0.5584716796875,0.4451904296875,-4877,5975,2525,-3,2,20
51599269,0.68157958984375,0.1544189453125,0.55816650390625,0.4471435546875,-4878,5983,2531,-3,1,19
51609246,0.6805419921875,0.15545654296875,0.55780029296875,0.44879150390625,-4869,5987,2555,-3,1,16
51619230,0.6798095703125,0.15618896484375,0.55743408203125,0.4500732421875,-4863,6002,2587,-3,0,11
51629218,0.679443359375,0.1566162109375,0.55718994140625,0.45074462890625,-4836,6009,2613,-2,-1,4
51639191,0.67950439453125,0.15673828125,0.5570068359375,0.450927734375,-4790,6009,2625,-1,-2,-2
51649174,0.67987060546875,0.15655517578125,0.55694580078125,0.4505615234375,-4738,6012,2627,-1,-2,-7
51659157,0.68048095703125,0.1561279296875,0.556884765625,0.4498291015625,-4686,6017,2622,-1,-3,-11
51669136,0.6812744140625,0.1556396484375,0.55682373046875,0.4488525390625,-4629,6007,2613,0,-3,-13
51679123,0.68212890625,0.15509033203125,0.55682373046875,0.44781494140625,-4586,5982,2597,0,-3,-14
51689100,0.6829833984375,0.1544189453125,0.55682373046875,0.44671630859375,-4577,5961,2591,-1,-3,-15
51699085,0.68389892578125,0.1536865234375,0.556884765625,0.4454345703125,-4567,5935,2616,0,-2,-17
51709065,0.68487548828125,0.1527099609375,0.55706787109375,0.44403076171875,-4559,5912,2642,0,-2,-19
51719053,0.6859130859375,0.151611328125,0.557373046875,0.44244384765625,-4561,5870,2664,1,0,-20
51729033,0.6868896484375,0.150390625,0.557861328125,0.44073486328125,-4564,5841,2673,1,1,-22
51739016,0.6878662109375,0.1490478515625,0.55841064453125,0.43896484375,-4552,5829,2679,1,2,-23
51748998,0.68878173828125,0.147705078125,0.55908203125,0.4371337890625,-4531,5835,2675,2,3,-24
51758980,0.6898193359375,0.14617919921875,0.559814453125,0.43505859375,-4519,5789,2670,2,3,-27
51768968,0.69097900390625,0.14422607421875,0.56085205078125,0.4324951171875,-4514,5718,2678,3,5,-33
51778944,0.6925048828125,0.1417236328125,0.56207275390625,0.42938232421875,-4513,5639,2681,3,6,-40
51788928,0.6942138671875,0.13873291015625,0.56353759765625,0.42559814453125,-4534,5569,2684,3,7,-47
51798910,0.69610595703125,0.13543701171875,0.56512451171875,0.42144775390625,-4557,5517,2687,4,8,-51
51808896,0.69793701171875,0.13201904296875,0.56683349609375,0.4171142578125,-4585,5476,2693,4,9,-52
51818881,0.69976806640625,0.1285400390625,0.56866455078125,0.41265869140625,-4620,5446,2678,5,10,-53
51828862,0.70166015625,0.12493896484375,0.57049560546875,0.4080810546875,-4639,5408,2670,5,10,-55
51838853,0.70361328125,0.12115478515625,0.57232666015625,0.40325927734375,-4699,5358,2664,4,10,-58
51848838,0.7056884765625,0.1170654296875,0.57415771484375,0.398193359375,-4760,5310,2663,4,10,-61
51858820,0.7078857421875,0.11260986328125,0.5760498046875,0.39276123046875,-4835,5244,2661,4,11,-65
51868799,0.710205078125,0.10791015625,0.57794189453125,0.38702392578125,-4924,5168,2666,3,11,-68
51878780,0.712646484375,0.10302734375,0.57977294921875,0.38116455078125,-5009,5084,2668,3,11,-70
51888764,0.715087890625,0.09796142578125,0.58154296875,0.37518310546875,-5107,4993,2653,2,10,-72
51898745,0.71771240234375,0.09259033203125,0.58319091796875,0.36895751953125,-5193,4890,2645,1,9,-75
51908727,0.7203369140625,0.08697509765625,0.5848388671875,0.36248779296875,-5284,4774,2636,1,10,-77
51918710,0.72308349609375,0.08111572265625,0.58636474609375,0.3558349609375,-5359,4632,2630,0,10,-79
51928694,0.725830078125,0.07501220703125,0.587890625,0.3489990234375,-5429,4469,2609,-1,11,-81
51938670,0.7283935546875,0.06890869140625,0.5894775390625,0.34222412109375,-5485,4301,2569,-1,11,-80
51948662,0.7308349609375,0.0628662109375,0.59100341796875,0.33544921875,-5552,4136,2524,-1,12,-78
51958644,0.73309326171875,0.05682373046875,0.592529296875,0.328857421875,-5615,3952,2487,-1,12,-77
51968631,0.73516845703125,0.05084228515625,0.5941162109375,0.32220458984375,-5670,3774,2461,-1,13,-77
51978619,0.73724365234375,0.04461669921875,0.59576416015625,0.3154296875,-5725,3603,2440,0,15,-78
51988599,0.7391357421875,0.038330078125,0.5975341796875,0.30841064453125,-5771,3442,2426,0,16,-80
51998583,0.7408447265625,0.031982421875,0.59930419921875,0.30133056640625,-5826,3297,2396,1,17,-80
52008552,0.742431640625,0.02569580078125,0.60125732421875,0.29425048828125,-5865,3133,2354,1,19,-79
52018536,0.7437744140625,0.019287109375,0.603271484375,0.2869873046875,-5933,2947,2295,2,20,-79
52028519,0.7449951171875,0.0128173828125,0.6053466796875,0.2796630859375,-5989,2749,2234,2,22,-80
52038500,0.74615478515625,0.00616455078125,0.6075439453125,0.2720947265625,-6065,2560,2180,2,22,-81
52048482,0.74713134765625,-0.00054931640625,0.6097412109375,0.26434326171875,-6135,2419,2123,3,24,-84
52058467,0.74810791015625,-0.00750732421875,0.6119384765625,0.25628662109375,-6202,2286,2079,2,24,-87
52068447,0.7490234375,-0.0146484375,0.61407470703125,0.248046875,-6275,2157,2043,3,25,-89
52078429,0.7498779296875,-0.02203369140625,0.61627197265625,0.2393798828125,-6343,2011,1975,2,25,-93
52088420,0.750732421875,-0.02978515625,0.61834716796875,0.2303466796875,-6418,1855,1915,2,25,-97
52098402,0.7515869140625,-0.03790283203125,0.6202392578125,0.22100830078125,-6509,1718,1854,1,25,-100
52108379,0.75244140625,-0.046142578125,0.6219482421875,0.2115478515625,-6639,1625,1832,0,24,-101
52118360,0.75323486328125,-0.05438232421875,0.6234130859375,0.202392578125,-6741,1555,1817,-2,22,-99
52128341,0.7540283203125,-0.0625,0.62451171875,0.19354248046875,-6812,1430,1771,-4,20,-97
52138325,0.7547607421875,-0.07073974609375,0.6253662109375,0.184814453125,-6852,1245,1685,-5,18,-98
52148307,0.75555419921875,-0.07928466796875,0.6259765625,0.17596435546875,-6864,1031,1592,-7,17,-100
52158288,0.75640869140625,-0.08819580078125,0.626220703125,0.1668701171875,-6889,803,1494,-8,15,-103
52168272,0.75726318359375,-0.09747314453125,0.62615966796875,0.15753173828125,-6942,602,1416,-9,13,-106
52178256,0.75823974609375,-0.1068115234375,0.625732421875,0.1483154296875,-7009,449,1402,-11,10,-107
52188237,0.75927734375,-0.1160888671875,0.6248779296875,0.13934326171875,-7062,288,1390,-12,7,-105
52198220,0.7603759765625,-0.1253662109375,0.6236572265625,0.13055419921875,-7065,49,1352,-14,4,-104
52208199,0.76153564453125,-0.134765625,0.62213134765625,0.1217041015625,-7029,-271,1259,-14,2,-105
52218185,0.7626953125,-0.14453125,0.6202392578125,0.11236572265625,-6944,-626,1170,-14,0,-110
52228167,0.76385498046875,-0.1546630859375,0.61810302734375,0.10247802734375,-6842,-946,1092,-13,0,-114
52238145,0.764892578125,-0.164794921875,0.61572265625,0.09228515625,-6788,-1188,1054,-12,-1,-116
52248125,0.7659912109375,-0.17462158203125,0.6131591796875,0.082275390625,-6770,-1386,1057,-11,-2,-113
52258107,0.7669677734375,-0.18402099609375,0.6103515625,0.072509765625,-6772,-1658,1055,-10,-4,-109
52268089,0.76788330078125,-0.1932373046875,0.60748291015625,0.06292724609375,-6764,-1986,1015,-9,-5,-107
52278072,0.7686767578125,-0.20257568359375,0.60430908203125,0.05291748046875,-6725,-2333,979,-8,-5,-110
52288061,0.7694091796875,-0.2120361328125,0.60101318359375,0.0423583984375,-6655,-2601,963,-6,-5,-116
52298038,0.77001953125,-0.2215576171875,0.597412109375,0.03125,-6575,-2754,980,-4,-5,-120
52308021,0.77056884765625,-0.23101806640625,0.5936279296875,0.01995849609375,-6534,-2870,1020,-3,-5,-122
52318002,0.77093505859375,-0.240234375,0.5897216796875,0.00872802734375,-6498,-3038,1057,-3,-5,-120
52327985,0.7711181640625,-0.24951171875,0.585693359375,-0.0025634765625,-6451,-3273,1068,-3,-5,-120
52337968,0.7711181640625,-0.25872802734375,0.58154296875,-0.01385498046875,-6372,-3532,1075,-3,-4,-120
52347952,0.7708740234375,-0.26800537109375,0.5772705078125,-0.0252685546875,-6242,-3732,1097,-3,-4,-121
52357935,0.77044677734375,-0.2769775390625,0.57293701171875,-0.03656005859375,-6089,-3857,1161,-3,-3,-119
52367916,0.7698974609375,-0.28558349609375,0.568603515625,-0.047607421875,-5941,-4000,1208,-2,-2,-116
52377897,0.76910400390625,-0.2940673828125,0.5643310546875,-0.05853271484375,-5815,-4188,1214,-2,-1,-115
52387885,0.76812744140625,-0.3026123046875,0.5599365234375,-0.06964111328125,-5699,-4458,1208,-2,0,-117
52397862,0.76678466796875,-0.31134033203125,0.55548095703125,-0.0810546875,-5610,-4735,1185,-2,1,-120
52407856,0.76513671875,-0.320068359375,0.5509033203125,-0.0926513671875,-5541,-4915,1212,-3,2,-121
52417838,0.763427734375,-0.32843017578125,0.54638671875,-0.103759765625,-5446,-4968,1285,-3,2,-116
52427818,0.76171875,-0.33599853515625,0.54205322265625,-0.114013671875,-5331,-5055,1350,-3,2,-106
52437796,0.760009765625,-0.34295654296875,0.5379638671875,-0.12353515625,-5206,-5279,1348,-2,2,-99
52447776,0.758056640625,-0.35003662109375,0.53387451171875,-0.13323974609375,-5081,-5628,1279,-1,3,-102
52457760,0.755615234375,-0.35772705078125,0.5294189453125,-0.14398193359375,-4987,-5977,1212,-1,5,-113
52467744,0.75274658203125,-0.365966796875,0.5245361328125,-0.15576171875,-4937,-6148,1168,-1,6,-124
52477726,0.74951171875,-0.37445068359375,0.51934814453125,-0.16802978515625,-4939,-6139,1206,-2,7,-130
52487708,0.746337890625,-0.38250732421875,0.51416015625,-0.17962646484375,-4972,-6062,1274,-4,5,-124
52497691,0.74334716796875,-0.38995361328125,0.50921630859375,-0.18988037109375,-4977,-6177,1319,-6,3,-112
52507669,0.74029541015625,-0.39727783203125,0.50439453125,-0.19915771484375,-4956,-6591,1251,-8,0,-105
52517662,0.73699951171875,-0.40496826171875,0.4993896484375,-0.208251953125,-4912,-7015,1155,-10,-2,-107
52527645,0.7333984375,-0.4132080078125,0.49395751953125,-0.21771240234375,-4828,-7262,1118,-12,-3,-114
52537631,0.7296142578125,-0.4215087890625,0.48828125,-0.2269287109375,-4740,-7218,1133,-14,-4,-114
52547616,0.72613525390625,-0.4293212890625,0.4827880859375,-0.23516845703125,-4619,-7104,1204,-17,-7,-105
52557599,0.72296142578125,-0.43658447265625,0.4776611328125,-0.241943359375,-4466,-7169,1212,-18,-9,-91
52567578,0.7198486328125,-0.4437255859375,0.47271728515625,-0.24786376953125,-4289,-7503,1141,-20,-11,-85
52577548,0.71636962890625,-0.4512939453125,0.46759033203125,-0.25396728515625,-4075,-7946,1015,-21,-12,-90
52587533,0.71246337890625,-0.45953369140625,0.4617919921875,-0.26080322265625,-3847,-8320,897,-21,-12,-101
52597515,0.70806884765625,-0.4681396484375,0.4554443359375,-0.26837158203125,-3631,-8451,848,-22,-12,-108
52607497,0.70367431640625,-0.4765625,0.44903564453125,-0.27593994140625,-3419,-8381,878,-22,-11,-107
52617480,0.69952392578125,-0.48431396484375,0.44293212890625,-0.28265380859375,-3195,-8339,907,-22,-12,-97
52627463,0.695556640625,-0.4915771484375,0.43731689453125,-0.28851318359375,-2952,-8533,871,-22,-12,-87
52637445,0.691650390625,-0.49859619140625,0.43182373046875,-0.29412841796875,-2709,-8874,815,-20,-12,-85
52647427,0.68756103515625,-0.505615234375,0.42608642578125,-0.30010986328125,-2488,-9188,757,-19,-11,-90
52657417,0.68316650390625,-0.51263427734375,0.4200439453125,-0.306640625,-2308,-9357,724,-18,-10,-95
52667400,0.6787109375,-0.51953125,0.41375732421875,-0.3133544921875,-2182,-9325,767,-17,-9,-97
52677376,0.674560546875,-0.52593994140625,0.40771484375,-0.319580078125,-2079,-9116,866,-17,-10,-91
52687358,0.67083740234375,-0.53167724609375,0.40203857421875,-0.32501220703125,-1974,-8889,957,-16,-11,-81
52697341,0.6676025390625,-0.536865234375,0.39691162109375,-0.32952880859375,-1840,-8770,1014,-15,-13,-71
52707325,0.66455078125,-0.541748046875,0.3919677734375,-0.33349609375,-1661,-8828,991,-14,-13,-67
52717308,0.66131591796875,-0.54681396484375,0.3868408203125,-0.337646484375,-1461,-9019,898,-13,-13,-72
52727291,0.6575927734375,-0.55218505859375,0.38092041015625,-0.34283447265625,-1221,-9208,805,-12,-12,-83
52737274,0.65325927734375,-0.55792236328125,0.37420654296875,-0.34912109375,-1004,-9262,741,-10,-11,-95
52747256,0.648681640625,-0.56365966796875,0.3670654296875,-0.35601806640625,-837,-9137,709,-9,-9,-100
52757239,0.64410400390625,-0.569091796875,0.35980224609375,-0.36297607421875,-715,-8958,710,-8,-9,-99
52767220,0.63983154296875,-0.5740966796875,0.3529052734375,-0.36944580078125,-576,-8854,698,-7,-9,-92
52777200,0.63568115234375,-0.578857421875,0.34625244140625,-0.37542724609375,-441,-8906,662,-7,-10,-88
52787194,0.63153076171875,-0.58355712890625,0.33953857421875,-0.38128662109375,-267,-9051,601,-6,-10,-89
52797177,0.6270751953125,-0.58831787109375,0.33258056640625,-0.38739013671875,-89,-9201,526,-5,-10,-94
52807159,0.622314453125,-0.5931396484375,0.3251953125,-0.393798828125,88,-9242,470,-5,-10,-98
52817135,0.61749267578125,-0.597900390625,0.3177490234375,-0.4002685546875,246,-9154,433,-5,-9,-98
52827118,0.61285400390625,-0.60235595703125,0.31060791015625,-0.4063720703125,368,-8973,427,-5,-9,-92
52837101,0.60858154296875,-0.60638427734375,0.303955078125,-0.4117431640625,471,-8796,432,-5,-10,-84
52847083,0.60467529296875,-0.61016845703125,0.29779052734375,-0.4163818359375,547,-8688,423,-6,-11,-77
52857066,0.600830078125,-0.6138916015625,0.29180908203125,-0.4207763671875,622,-8619,444,-6,-12,-77
52867047,0.59686279296875,-0.61761474609375,0.28564453125,-0.425048828125,720,-8571,430,-7,-13,-79
52877031,0.59259033203125,-0.62158203125,0.27911376953125,-0.42962646484375,822,-8528,416,-7,-13,-84
52887013,0.587890625,-0.62579345703125,0.27215576171875,-0.43438720703125,956,-8449,382,-8,-14,-89
52896996,0.5830078125,-0.63006591796875,0.26483154296875,-0.4393310546875,1108,-8339,366,-8,-15,-91
52906978,0.5780029296875,-0.63433837890625,0.2574462890625,-0.4442138671875,1275,-8262,331,-9,-15,-91
52916960,0.572998046875,-0.6385498046875,0.2501220703125,-0.44879150390625,1442,-8261,305,-9,-16,-90
52926943,0.56793212890625,-0.64276123046875,0.24267578125,-0.4532470703125,1616,-8324,299,-9,-17,-90
52936926,0.56280517578125,-0.64697265625,0.235107421875,-0.45758056640625,1797,-8424,283,-10,-18,-91
52946908,0.55743408203125,-0.6512451171875,0.22735595703125,-0.4620361328125,1989,-8490,258,-10,-18,-93
52956891,0.55194091796875,-0.65545654296875,0.219482421875,-0.46649169921875,2191,-8491,212,-10,-18,-94
52966874,0.54644775390625,-0.6595458984375,0.211669921875,-0.470703125,2373,-8432,164,-10,-19,-92
52976863,0.54119873046875,-0.6634521484375,0.20416259765625,-0.474609375,2573,-8361,121,-9,-18,-86
52986844,0.5362548828125,-0.6671142578125,0.197021484375,-0.47808837890625,2778,-8333,48,-9,-19,-80
52996827,0.531494140625,-0.67059326171875,0.19024658203125,-0.48126220703125,2953,-8370,2,-8,-19,-77
53006807,0.52679443359375,-0.6739501953125,0.18353271484375,-0.484375,3100,-8405,-13,-8,-18,-78
53016790,0.52203369140625,-0.67718505859375,0.17669677734375,-0.487548828125,3236,-8384,-39,-8,-18,-79
53026775,0.51708984375,-0.680419921875,0.169677734375,-0.49078369140625,3363,-8298,-58,-8,-17,-81
53036753,0.51202392578125,-0.68359375,0.16253662109375,-0.494140625,3470,-8176,-59,-8,-18,-82
53046737,0.50701904296875,-0.68658447265625,0.15545654296875,-0.49737548828125,3593,-8099,-68,-7,-18,-81
53056718,0.5020751953125,-0.68951416015625,0.14837646484375,-0.50048828125,3733,-8061,-72,-7,-18,-80
53066701,0.497314453125,-0.69232177734375,0.1414794921875,-0.50341796875,3866,-8059,-73,-6,-18,-78
53076683,0.49267578125,-0.69488525390625,0.13470458984375,-0.50628662109375,4014,-8029,-65,-6,-17,-76
53086666,0.48822021484375,-0.69732666015625,0.12811279296875,-0.5089111328125,4135,-7960,-67,-5,-17,-72
53096657,0.4840087890625,-0.69964599609375,0.12188720703125,-0.51129150390625,4236,-7854,-67,-5,-17,-68
53106640,0.48016357421875,-0.70172119140625,0.11602783203125,-0.513427734375,4319,-7723,-45,-4,-16,-63
53116619,0.4765625,-0.70367431640625,0.11053466796875,-0.51531982421875,4421,-7579,8,-5,-17,-58
53126610,0.47320556640625,-0.7054443359375,0.1053466796875,-0.51702880859375,4551,-7541,54,-4,-16,-55
53136599,0.47003173828125,-0.7071533203125,0.100341796875,-0.51861572265625,4697,-7559,95,-4,-16,-54
53146570,0.46685791015625,-0.708740234375,0.09539794921875,-0.520263671875,4837,-7578,124,-4,-15,-54
53156546,0.46368408203125,-0.71026611328125,0.09051513671875,-0.52191162109375,4959,-7560,150,-4,-14,-54
53166529,0.460693359375,-0.71160888671875,0.0858154296875,-0.52349853515625,5074,-7500,158,-4,-13,-50
53176511,0.4578857421875,-0.712890625,0.08154296875,-0.52490234375,5164,-7396,164,-3,-13,-46
53186492,0.4554443359375,-0.7139892578125,0.0777587890625,-0.52606201171875,5242,-7259,187,-3,-12,-40
53196477,0.45343017578125,-0.7149658203125,0.074462890625,-0.5269775390625,5304,-7089,223,-3,-12,-33
53206457,0.4517822265625,-0.7158203125,0.0716552734375,-0.52764892578125,5336,-6927,237,-3,-11,-28
53216441,0.4503173828125,-0.7166748046875,0.0692138671875,-0.528076171875,5352,-6771,270,-3,-11,-25
53226424,0.44903564453125,-0.71746826171875,0.06689453125,-0.52838134765625,5370,-6643,303,-3,-11,-23
53236411,0.44769287109375,-0.71820068359375,0.06463623046875,-0.52874755859375,5392,-6553,345,-3,-12,-24
53246388,0.44622802734375,-0.718994140625,0.06219482421875,-0.52923583984375,5415,-6498,342,-3,-12,-26
53256372,0.444580078125,-0.7198486328125,0.0595703125,-0.52978515625,5421,-6452,314,-3,-11,-29
53266353,0.44281005859375,-0.720703125,0.05670166015625,-0.53045654296875,5429,-6407,282,-3,-11,-31
53276336,0.44091796875,-0.7215576171875,0.0538330078125,-0.5311279296875,5449,-6344,246,-3,-11,-31
53286319,0.43914794921875,-0.722412109375,0.05096435546875,-0.53173828125,5476,-6267,202,-3,-12,-30
53296303,0.4375,-0.7232666015625,0.04827880859375,-0.5321044921875,5512,-6212,171,-3,-12,-27
53306283,0.43603515625,-0.72418212890625,0.0457763671875,-0.5323486328125,5564,-6175,133,-3,-13,-24
53316267,0.434814453125,-0.72509765625,0.04351806640625,-0.53228759765625,5616,-6161,98,-2,-14,-21
53326249,0.4337158203125,-0.72601318359375,0.0413818359375,-0.53216552734375,5659,-6165,63,-2,-14,-20
53336231,0.4326171875,-0.72698974609375,0.039306640625,-0.53179931640625,5710,-6187,4,-2,-15,-20
53346210,0.43157958984375,-0.72796630859375,0.037109375,-0.531494140625,5760,-6191,-31,-2,-15,-19
53356194,0.43060302734375,-0.72900390625,0.0350341796875,-0.53106689453125,5817,-6195,-86,-2,-16,-19
53366182,0.4296875,-0.72998046875,0.03302001953125,-0.530517578125,5882,-6199,-135,-2,-16,-17
53376165,0.428955078125,-0.73095703125,0.03125,-0.5299072265625,5959,-6206,-174,-1,-16,-14
53386142,0.428466796875,-0.73187255859375,0.0296630859375,-0.529052734375,6032,-6197,-222,-1,-15,-11
53396129,0.42822265625,-0.7327880859375,0.0284423828125,-0.528076171875,6089,-6176,-275,0,-15,-7
53406108,0.42828369140625,-0.733642578125,0.02752685546875,-0.52691650390625,6138,-6132,-312,0,-15,-3
53416092,0.4285888671875,-0.73443603515625,0.02691650390625,-0.52557373046875,6170,-6102,-351,0,-15,1
53426070,0.4290771484375,-0.7352294921875,0.02655029296875,-0.524169921875,6181,-6069,-365,0,-15,3
53436053,0.4296875,-0.73590087890625,0.02630615234375,-0.52264404296875,6193,-6025,-395,1,-14,5
53446035,0.43035888671875,-0.73651123046875,0.02606201171875,-0.521240234375,6211,-5993,-411,1,-13,5
53456017,0.43096923828125,-0.73712158203125,0.02581787109375,-0.5198974609375,6221,-5958,-439,1,-13,4
53466000,0.4315185546875,-0.73760986328125,0.02545166015625,-0.51873779296875,6231,-5917,-468,2,-12,3
53475981,0.43206787109375,-0.73809814453125,0.02490234375,-0.5177001953125,6236,-5891,-490,3,-11,1
53485969,0.4324951171875,-0.7384033203125,0.02423095703125,-0.516845703125,6256,-5875,-519,3,-10,-1
53495948,0.432861328125,-0.73870849609375,0.0234375,-0.51617431640625,6239,-5834,-541,4,-9,-2
53505929,0.4332275390625,-0.7388916015625,0.022705078125,-0.51568603515625,6231,-5788,-538,4,-8,-2
53515912,0.43365478515625,-0.73895263671875,0.02191162109375,-0.51519775390625,6218,-5744,-527,4,-7,-2
53525894,0.43414306640625,-0.739013671875,0.021240234375,-0.5147705078125,6214,-5704,-538,5,-7,-1
53535876,0.43463134765625,-0.73895263671875,0.02056884765625,-0.514404296875,6216,-5667,-549,5,-5,-1
53545863,0.4351806640625,-0.7388916015625,0.02001953125,-0.51409912109375,6222,-5632,-576,5,-5,0
53555852,0.43572998046875,-0.73876953125,0.0194091796875,-0.51385498046875,6258,-5626,-599,5,-4,-1
53565829,0.436279296875,-0.73858642578125,0.01885986328125,-0.513671875,6271,-5623,-617,6,-3,-1
53575818,0.43682861328125,-0.73828125,0.01837158203125,-0.51361083984375,6266,-5593,-605,5,-2,0
53585789,0.4375,-0.73797607421875,0.01806640625,-0.51348876953125,6239,-5553,-589,5,-2,1
53595775,0.438232421875,-0.7376708984375,0.01788330078125,-0.51336669921875,6198,-5518,-578,5,-1,3
53605753,0.43902587890625,-0.7373046875,0.01788330078125,-0.51318359375,6173,-5485,-564,5,-1,4
53615736,0.43988037109375,-0.73699951171875,0.01806640625,-0.512939453125,6149,-5442,-558,5,-1,5
53625720,0.440673828125,-0.73663330078125,0.01824951171875,-0.5126953125,6123,-5420,-562,5,-1,5
53635705,0.44140625,-0.736328125,0.01837158203125,-0.51251220703125,6105,-5393,-562,4,0,4
53645687,0.44195556640625,-0.73602294921875,0.0184326171875,-0.51251220703125,6097,-5366,-567,3,0,3
53655667,0.44244384765625,-0.7357177734375,0.0184326171875,-0.51251220703125,6094,-5360,-574,3,0,2
53665659,0.4427490234375,-0.7354736328125,0.01837158203125,-0.51263427734375,6096,-5343,-570,3,1,1
53675643,0.4429931640625,-0.7352294921875,0.018310546875,-0.51275634765625,6084,-5308,-564,2,1,0
53685621,0.44317626953125,-0.7349853515625,0.01824951171875,-0.512939453125,6052,-5282,-540,1,1,0
53695613,0.44342041015625,-0.73480224609375,0.018310546875,-0.5130615234375,6021,-5253,-526,1,1,1
53705599,0.44354248046875,-0.734619140625,0.0184326171875,-0.51312255859375,5989,-5234,-524,0,1,1
53715579,0.443603515625,-0.7344970703125,0.01861572265625,-0.51324462890625,5979,-5217,-504,-1,1,1
53725547,0.44366455078125,-0.734375,0.018798828125,-0.51336669921875,5982,-5214,-502,-1,1,1
53735529,0.44366455078125,-0.73431396484375,0.01898193359375,-0.51348876953125,5961,-5233,-509,-1,1,0
53745514,0.4434814453125,-0.7342529296875,0.01910400390625,-0.513671875,5964,-5250,-539,-2,1,-1
53755492,0.4432373046875,-0.7342529296875,0.01910400390625,-0.51385498046875,5951,-5256,-555,-2,1,-2
53765476,0.44293212890625,-0.73431396484375,0.0191650390625,-0.51409912109375,5953,-5262,-564,-3,1,-2
53775458,0.44256591796875,-0.73431396484375,0.01922607421875,-0.51434326171875,5961,-5283,-565,-3,1,-2
53785441,0.44219970703125,-0.734375,0.019287109375,-0.51458740234375,5967,-5315,-577,-3,1,-3
53795425,0.4417724609375,-0.73443603515625,0.0194091796875,-0.51483154296875,5990,-5347,-596,-4,1,-2
53805412,0.44140625,-0.7344970703125,0.01947021484375,-0.51513671875,6005,-5385,-612,-4,1,-3
53815388,0.44097900390625,-0.73455810546875,0.01959228515625,-0.515380859375,6012,-5412,-622,-3,2,-3
53825372,0.44061279296875,-0.734619140625,0.019775390625,-0.515625,6013,-5445,-637,-3,2,-2
53835354,0.44024658203125,-0.734619140625,0.01995849609375,-0.51593017578125,6022,-5476,-637,-4,2,-2
53845336,0.43988037109375,-0.73468017578125,0.0201416015625,-0.51617431640625,6015,-5487,-640,-3,2,-2
53855319,0.43963623046875,-0.734619140625,0.02044677734375,-0.51641845703125,6010,-5494,-638,-3,2,-1
53865303,0.4393310546875,-0.73468017578125,0.020751953125,-0.5166015625,6007,-5513,-637,-3,2,-1
53875290,0.4390869140625,-0.734619140625,0.02105712890625,-0.51678466796875,5998,-5522,-649,-3,2,0
53885268,0.43896484375,-0.734619140625,0.02142333984375,-0.51702880859375,5997,-5528,-651,-3,2,0
53895250,0.43878173828125,-0.73455810546875,0.02178955078125,-0.51715087890625,6012,-5541,-661,-3,2,0
53905234,0.43865966796875,-0.7344970703125,0.022216796875,-0.517333984375,6015,-5560,-674,-2,2,0
53915215,0.4385986328125,-0.734375,0.02264404296875,-0.51751708984375,6006,-5583,-677,-2,3,1
53925194,0.4385986328125,-0.73431396484375,0.0230712890625,-0.51763916015625,6002,-5582,-684,-2,3,1
53935187,0.4385986328125,-0.73419189453125,0.0235595703125,-0.517822265625,5991,-5583,-683,-2,3,1
53945168,0.4385986328125,-0.7340087890625,0.0240478515625,-0.51800537109375,5966,-5566,-673,-2,3,1
53955146,0.43865966796875,-0.73382568359375,0.0245361328125,-0.5181884765625,5953,-5563,-672,-1,3,1
53965128,0.438720703125,-0.73370361328125,0.0250244140625,-0.518310546875,5936,-5553,-670,-1,3,2
53975111,0.4388427734375,-0.7335205078125,0.0255126953125,-0.5184326171875,5906,-5542,-664,-1,3,2
53985095,0.43896484375,-0.73333740234375,0.02606201171875,-0.5185546875,5887,-5540,-664,-1,3,2
53995076,0.43914794921875,-0.733154296875,0.02655029296875,-0.5186767578125,5874,-5535,-676,-1,3,2
54005061,0.43927001953125,-0.73297119140625,0.02703857421875,-0.518798828125,5862,-5538,-678,-1,3,2
54015042,0.43939208984375,-0.73272705078125,0.0274658203125,-0.51898193359375,5843,-5523,-677,-1,3,2
54025030,0.43951416015625,-0.7325439453125,0.02789306640625,-0.5191650390625,5822,-5527,-679,-1,3,1
54035011,0.4395751953125,-0.7322998046875,0.02813720703125,-0.51934814453125,5818,-5534,-675,0,3,0
54048421,0.4395751953125,-0.73211669921875,0.02838134765625,-0.5196533203125,5799,-5528,-670,0,3,-1
54054972,0.43963623046875,-0.73187255859375,0.02850341796875,-0.51995849609375,5791,-5521,-667,0,3,-1
54064956,0.439697265625,-0.73162841796875,0.0286865234375,-0.52020263671875,5787,-5534,-672,0,3,-1
54074944,0.43975830078125,-0.7314453125,0.02886962890625,-0.52044677734375,5783,-5542,-681,0,3,0
54084922,0.4398193359375,-0.73126220703125,0.029052734375,-0.5206298828125,5787,-5535,-682,0,2,0
