subject,Joshua Spiesman
arm,left
label,3
hz,100.17548040468814
time,5.769875

timestamp_us,q0,q1,q2,q3,ax,ay,az,gx,gy,gz
169808878,0.704345703125,-0.66619873046875,0.216796875,0.11407470703125,-3566,-7393,-100,0,-2,-1
169818864,0.704345703125,-0.666259765625,0.21673583984375,0.11407470703125,-3573,-7361,-106,0,-1,0
169828841,0.70428466796875,-0.666259765625,0.21673583984375,0.11407470703125,-3553,-7331,-100,0,-1,0
169838829,0.70428466796875,-0.66632080078125,0.21673583984375,0.114013671875,-3543,-7297,-109,0,0,0
169848814,0.7042236328125,-0.6663818359375,0.216796875,0.1138916015625,-3532,-7249,-103,0,0,-1
169858789,0.7042236328125,-0.66650390625,0.21673583984375,0.11358642578125,-3500,-7231,-98,0,1,-2
169868768,0.70416259765625,-0.6666259765625,0.2166748046875,0.1131591796875,-3490,-7201,-110,0,1,-3
169878760,0.7041015625,-0.66680908203125,0.21661376953125,0.1126708984375,-3495,-7205,-118,0,2,-3
169888742,0.7039794921875,-0.6669921875,0.21661376953125,0.11212158203125,-3505,-7205,-132,0,2,-3
169898718,0.70391845703125,-0.66717529296875,0.2166748046875,0.111572265625,-3519,-7225,-139,0,3,-3
169908702,0.70379638671875,-0.66729736328125,0.2169189453125,0.11102294921875,-3532,-7220,-144,0,4,-2
169918684,0.70367431640625,-0.66741943359375,0.21728515625,0.11053466796875,-3558,-7231,-155,0,5,-1
169928672,0.7034912109375,-0.66754150390625,0.21771240234375,0.1099853515625,-3571,-7224,-156,0,5,0
169938648,0.70330810546875,-0.66766357421875,0.21826171875,0.1094970703125,-3592,-7241,-142,0,5,0
169948636,0.70306396484375,-0.66778564453125,0.21881103515625,0.10894775390625,-3618,-7275,-154,0,6,-1
169958612,0.70294189453125,-0.6678466796875,0.21929931640625,0.1083984375,-3673,-7315,-155,0,6,-1
169968595,0.70269775390625,-0.66802978515625,0.21978759765625,0.10772705078125,-3725,-7331,-174,0,6,-2
169978575,0.70245361328125,-0.66827392578125,0.22015380859375,0.10693359375,-3761,-7312,-204,0,6,-4
169988559,0.7022705078125,-0.6685791015625,0.22027587890625,0.10595703125,-3781,-7300,-230,0,6,-7
169998542,0.7021484375,-0.66900634765625,0.2200927734375,0.104736328125,-3779,-7263,-220,0,5,-11
170008524,0.70208740234375,-0.66943359375,0.2196044921875,0.1031494140625,-3742,-7229,-197,0,5,-14
170018506,0.7021484375,-0.66998291015625,0.21881103515625,0.10137939453125,-3691,-7195,-181,0,5,-17
170028487,0.7021484375,-0.6705322265625,0.21783447265625,0.09942626953125,-3629,-7161,-132,-1,5,-18
170038473,0.70220947265625,-0.67108154296875,0.2169189453125,0.09759521484375,-3574,-7152,-92,0,4,-17
170048453,0.7022705078125,-0.67144775390625,0.21612548828125,0.09600830078125,-3549,-7198,-23,-1,4,-14
170058434,0.70233154296875,-0.6717529296875,0.21563720703125,0.09478759765625,-3550,-7314,53,0,4,-10
170068426,0.702392578125,-0.67193603515625,0.21533203125,0.093994140625,-3536,-7541,108,-1,2,-5
170078409,0.702392578125,-0.6719970703125,0.215087890625,0.09344482421875,-3501,-7819,126,-1,1,-3
170088392,0.70245361328125,-0.67218017578125,0.214599609375,0.09295654296875,-3456,-8080,117,-1,-1,-5
170098365,0.70269775390625,-0.67242431640625,0.21343994140625,0.0919189453125,-3406,-8295,150,0,-2,-13
170108350,0.7032470703125,-0.67291259765625,0.2110595703125,0.08978271484375,-3373,-8561,224,1,-3,-28
170118329,0.70404052734375,-0.67376708984375,0.2071533203125,0.08624267578125,-3379,-8920,350,1,-4,-45
170128312,0.70513916015625,-0.6749267578125,0.2015380859375,0.0810546875,-3396,-9355,484,1,-4,-65
170138295,0.70648193359375,-0.67645263671875,0.1943359375,0.07427978515625,-3372,-9803,570,2,-5,-83
170148277,0.70794677734375,-0.67822265625,0.185546875,0.0660400390625,-3290,-10210,657,3,-6,-101
170158261,0.70953369140625,-0.68023681640625,0.1751708984375,0.05633544921875,-3191,-10558,683,4,-8,-119
170168243,0.71112060546875,-0.682373046875,0.16314697265625,0.04522705078125,-3098,-10837,654,5,-9,-137
170178235,0.712646484375,-0.68463134765625,0.14959716796875,0.0328369140625,-2907,-11015,615,6,-11,-154
170188217,0.71405029296875,-0.686767578125,0.13446044921875,0.01904296875,-2565,-11068,609,7,-13,-170
170198206,0.71533203125,-0.688720703125,0.1180419921875,0.0042724609375,-2039,-11015,654,8,-14,-180
170208188,0.7164306640625,-0.69024658203125,0.10089111328125,-0.0111083984375,-1428,-10855,717,9,-15,-183
170218174,0.71722412109375,-0.6912841796875,0.08380126953125,-0.0263671875,-816,-10718,830,10,-15,-180
170228146,0.71783447265625,-0.6917724609375,0.06732177734375,-0.04071044921875,-251,-10658,926,10,-16,-168
170238123,0.71820068359375,-0.6917724609375,0.0521240234375,-0.05364990234375,289,-10572,1017,10,-17,-151
170248107,0.71844482421875,-0.6915283203125,0.03839111328125,-0.06475830078125,785,-10414,1076,10,-18,-132
170258088,0.71856689453125,-0.69097900390625,0.0260009765625,-0.0743408203125,1214,-10231,1115,9,-19,-116
170268072,0.71856689453125,-0.69036865234375,0.01446533203125,-0.0828857421875,1559,-10026,1133,9,-20,-108
170278053,0.7183837890625,-0.68963623046875,0.0032958984375,-0.0909423828125,1854,-9874,1139,9,-20,-105
170288037,0.7181396484375,-0.68878173828125,-0.00787353515625,-0.09912109375,2077,-9718,1151,9,-19,-108
170298018,0.7176513671875,-0.687744140625,-0.01953125,-0.10784912109375,2273,-9583,1127,9,-19,-115
170307999,0.7169189453125,-0.68646240234375,-0.03173828125,-0.11749267578125,2441,-9472,1091,10,-17,-125
170317990,0.71588134765625,-0.6849365234375,-0.04461669921875,-0.12786865234375,2586,-9410,1023,12,-16,-134
170327966,0.7147216796875,-0.68304443359375,-0.0579833984375,-0.13897705078125,2709,-9418,969,13,-15,-142
170337951,0.71337890625,-0.68072509765625,-0.0714111328125,-0.15032958984375,2844,-9501,890,15,-13,-144
170347932,0.71197509765625,-0.6781005859375,-0.08465576171875,-0.16162109375,2971,-9664,805,18,-12,-144
170357916,0.71063232421875,-0.67510986328125,-0.09735107421875,-0.1724853515625,3096,-9933,683,21,-11,-139
170367897,0.70941162109375,-0.67181396484375,-0.1094970703125,-0.18280029296875,3216,-10150,568,23,-10,-134
170377881,0.70831298828125,-0.66827392578125,-0.12103271484375,-0.1925048828125,3314,-10263,431,26,-9,-129
170387863,0.70733642578125,-0.6644287109375,-0.13232421875,-0.20196533203125,3398,-10256,313,29,-8,-128
170397847,0.70623779296875,-0.66015625,-0.143798828125,-0.21160888671875,3491,-10077,222,30,-7,-132
170407829,0.7049560546875,-0.65545654296875,-0.15570068359375,-0.2218017578125,3600,-9824,154,32,-6,-139
170417811,0.703369140625,-0.65032958984375,-0.16802978515625,-0.2327880859375,3743,-9583,113,33,-4,-147
170427792,0.70147705078125,-0.64471435546875,-0.18072509765625,-0.2442626953125,3925,-9424,104,34,-2,-152
170437784,0.69940185546875,-0.63873291015625,-0.1932373046875,-0.25592041015625,4122,-9355,101,34,0,-153
170447766,0.69732666015625,-0.63262939453125,-0.20526123046875,-0.26727294921875,4332,-9260,149,34,2,-148
170457749,0.6951904296875,-0.62640380859375,-0.2166748046875,-0.2781982421875,4487,-9100,187,34,3,-143
170467735,0.6929931640625,-0.6201171875,-0.2275390625,-0.2889404296875,4643,-8848,235,32,5,-140
170477710,0.69049072265625,-0.61376953125,-0.23809814453125,-0.29974365234375,4812,-8564,269,31,7,-140
170487693,0.687744140625,-0.60723876953125,-0.24847412109375,-0.3106689453125,4935,-8240,302,29,9,-141
170497675,0.68463134765625,-0.6005859375,-0.25872802734375,-0.322021484375,5020,-7925,324,27,11,-145
170507659,0.6810302734375,-0.59368896484375,-0.26904296875,-0.333740234375,5102,-7606,388,25,12,-149
170517639,0.67706298828125,-0.58660888671875,-0.27923583984375,-0.345703125,5182,-7356,433,23,13,-151
170527622,0.67279052734375,-0.57965087890625,-0.2890625,-0.3575439453125,5255,-7174,470,20,14,-149
170537603,0.6683349609375,-0.5728759765625,-0.29833984375,-0.36895751953125,5373,-7045,511,19,14,-144
170547587,0.6639404296875,-0.56634521484375,-0.3070068359375,-0.37982177734375,5475,-6874,562,17,13,-138
170557570,0.65936279296875,-0.5599365234375,-0.31536865234375,-0.39031982421875,5517,-6631,591,15,13,-136
170567552,0.65435791015625,-0.55340576171875,-0.32366943359375,-0.4010009765625,5528,-6328,607,13,13,-139
170577536,0.6488037109375,-0.54656982421875,-0.33233642578125,-0.4122314453125,5501,-5941,643,11,13,-147
170587517,0.6424560546875,-0.53924560546875,-0.34149169921875,-0.42413330078125,5461,-5598,667,10,13,-156
170597501,0.63543701171875,-0.53155517578125,-0.3509521484375,-0.4365234375,5476,-5309,705,9,13,-163
170607483,0.6279296875,-0.523681640625,-0.3604736328125,-0.448974609375,5512,-5046,730,8,12,-165
170617467,0.62017822265625,-0.51593017578125,-0.36968994140625,-0.4610595703125,5589,-4872,737,7,11,-161
170627449,0.61248779296875,-0.50848388671875,-0.37841796875,-0.47247314453125,5640,-4635,766,5,9,-155
170637430,0.60467529296875,-0.50115966796875,-0.3868408203125,-0.48333740234375,5631,-4282,785,4,8,-151
170647421,0.59649658203125,-0.4937744140625,-0.395263671875,-0.494140625,5593,-3893,790,3,6,-151
170657402,0.58795166015625,-0.48614501953125,-0.40380859375,-0.50494384765625,5552,-3536,815,3,5,-154
170667379,0.57891845703125,-0.4783935546875,-0.41241455078125,-0.51568603515625,5537,-3285,817,2,4,-156
170677362,0.56976318359375,-0.4708251953125,-0.42071533203125,-0.52606201171875,5564,-3187,801,2,3,-154
170687350,0.560791015625,-0.463623046875,-0.4285888671875,-0.53558349609375,5592,-3089,799,1,1,-147
170697328,0.55206298828125,-0.456787109375,-0.43609619140625,-0.54449462890625,5555,-2877,800,1,-1,-140
170707310,0.5430908203125,-0.449951171875,-0.44354248046875,-0.55303955078125,5491,-2586,786,1,-3,-139
170717286,0.53387451171875,-0.4429931640625,-0.4510498046875,-0.5615234375,5447,-2335,782,1,-4,-140
170727267,0.52435302734375,-0.43609619140625,-0.45843505859375,-0.56988525390625,5449,-2179,770,0,-5,-141
170737256,0.51483154296875,-0.4293212890625,-0.4656982421875,-0.57781982421875,5428,-2057,736,0,-6,-139
170747241,0.505126953125,-0.42266845703125,-0.47271728515625,-0.58544921875,5420,-1933,711,-1,-8,-137
170757222,0.4952392578125,-0.41595458984375,-0.479736328125,-0.59295654296875,5387,-1753,728,-1,-9,-138
170767206,0.4849853515625,-0.40899658203125,-0.48681640625,-0.6004638671875,5298,-1493,772,-1,-10,-141
170777192,0.47412109375,-0.401611328125,-0.4940185546875,-0.608154296875,5149,-1143,815,-2,-11,-145
170787175,0.46258544921875,-0.39373779296875,-0.50146484375,-0.6160888671875,4989,-708,894,-2,-11,-150
170797158,0.450439453125,-0.38525390625,-0.50909423828125,-0.62420654296875,4812,-218,974,-2,-11,-155
170807127,0.43768310546875,-0.37615966796875,-0.5167236328125,-0.6324462890625,4627,323,1053,-2,-11,-158
170817108,0.424560546875,-0.36669921875,-0.52435302734375,-0.640625,4372,874,1123,-2,-11,-160
170827091,0.41119384765625,-0.3568115234375,-0.5318603515625,-0.64874267578125,4056,1406,1191,-1,-10,-159
170837078,0.39794921875,-0.34686279296875,-0.5390625,-0.6563720703125,3675,1904,1249,0,-10,-153
170847058,0.38543701171875,-0.33740234375,-0.54571533203125,-0.6632080078125,3262,2375,1318,1,-11,-140
170857043,0.37420654296875,-0.3287353515625,-0.5517578125,-0.66900634765625,2813,2802,1379,3,-11,-121
170867025,0.36456298828125,-0.32135009765625,-0.55706787109375,-0.67352294921875,2354,3194,1425,6,-12,-98
170877006,0.35662841796875,-0.315185546875,-0.5616455078125,-0.67681884765625,1926,3616,1503,8,-13,-76
170886996,0.35009765625,-0.3101806640625,-0.5657958984375,-0.67913818359375,1570,4072,1586,11,-14,-58
170896984,0.3446044921875,-0.305908203125,-0.56964111328125,-0.6806640625,1314,4518,1659,13,-15,-46
170906958,0.33984375,-0.30218505859375,-0.5733642578125,-0.68157958984375,1147,4928,1701,16,-15,-38
170916940,0.3358154296875,-0.29864501953125,-0.5770263671875,-0.68206787109375,1041,5332,1746,18,-14,-30
170926922,0.33270263671875,-0.29559326171875,-0.5804443359375,-0.6820068359375,982,5737,1779,20,-13,-19
170936905,0.3306884765625,-0.29315185546875,-0.58349609375,-0.681396484375,960,6169,1804,22,-12,-5
170946886,0.3299560546875,-0.29193115234375,-0.5859375,-0.68017578125,980,6555,1810,20,-12,12
170956867,0.330810546875,-0.29217529296875,-0.5875244140625,-0.67828369140625,1030,6815,1785,18,-12,33
170966850,0.33343505859375,-0.29437255859375,-0.58807373046875,-0.675537109375,1115,6951,1726,15,-13,57
170976832,0.33795166015625,-0.298583984375,-0.5875244140625,-0.67193603515625,1219,6953,1645,12,-13,81
170986817,0.34442138671875,-0.3048095703125,-0.58575439453125,-0.6673583984375,1326,6838,1530,9,-14,107
170996801,0.35284423828125,-0.313232421875,-0.582763671875,-0.66168212890625,1423,6589,1394,6,-15,132
171006784,0.363037109375,-0.323486328125,-0.5784912109375,-0.65496826171875,1526,6217,1269,4,-15,155
171016769,0.37481689453125,-0.33544921875,-0.5728759765625,-0.64715576171875,1678,5769,1145,1,-15,175
171026752,0.38787841796875,-0.34893798828125,-0.5660400390625,-0.6383056640625,1854,5266,1045,-2,-16,192
171036725,0.40185546875,-0.36334228515625,-0.55810546875,-0.6285400390625,2037,4738,958,-4,-15,204
171046709,0.416259765625,-0.378173828125,-0.54913330078125,-0.61822509765625,2228,4236,885,-7,-13,211
171056692,0.43060302734375,-0.39300537109375,-0.539306640625,-0.60772705078125,2424,3751,838,-9,-11,210
171066674,0.444580078125,-0.40728759765625,-0.5289306640625,-0.5972900390625,2606,3261,819,-13,-8,206
171076657,0.4580078125,-0.4210205078125,-0.51806640625,-0.58709716796875,2786,2713,800,-15,-5,199
171086638,0.47100830078125,-0.434326171875,-0.50665283203125,-0.57696533203125,2959,2082,756,-18,-2,196
171096624,0.48394775390625,-0.4476318359375,-0.4945068359375,-0.5665283203125,3099,1369,666,-20,0,198
171106601,0.4970703125,-0.461181640625,-0.4815673828125,-0.55535888671875,3220,691,568,-20,1,204
171116585,0.51025390625,-0.47454833984375,-0.468017578125,-0.5435791015625,3320,143,520,-20,2,206
171126567,0.5230712890625,-0.4871826171875,-0.45428466796875,-0.53179931640625,3441,-310,487,-19,5,200
171136549,0.53515625,-0.49884033203125,-0.4405517578125,-0.52032470703125,3605,-910,454,-18,8,191
171146531,0.547119140625,-0.51007080078125,-0.42645263671875,-0.50860595703125,3849,-1893,387,-18,10,189
171156513,0.55963134765625,-0.52178955078125,-0.4111328125,-0.49554443359375,4134,-3068,264,-16,11,202
171166496,0.57342529296875,-0.534423828125,-0.39404296875,-0.47998046875,4295,-4130,111,-12,9,228
171176480,0.58843994140625,-0.5477294921875,-0.37518310546875,-0.4615478515625,4370,-4852,27,-7,6,256
171186461,0.603759765625,-0.56072998046875,-0.35546875,-0.44134521484375,4384,-5155,42,-3,4,268
171196449,0.61822509765625,-0.57232666015625,-0.33612060546875,-0.42108154296875,4369,-5326,90,1,4,258
171206433,0.63134765625,-0.58221435546875,-0.31781005859375,-0.4017333984375,4419,-5854,110,4,5,237
171216416,0.643310546875,-0.59100341796875,-0.30029296875,-0.383056640625,4601,-6841,62,6,5,221
171226398,0.654541015625,-0.59906005859375,-0.282958984375,-0.3642578125,4753,-7875,-7,9,5,215
171236376,0.665283203125,-0.6064453125,-0.26568603515625,-0.34515380859375,4787,-8599,-51,12,4,215
171246359,0.6754150390625,-0.61297607421875,-0.24871826171875,-0.32598876953125,4735,-8860,-22,14,2,212
171256341,0.68475341796875,-0.618408203125,-0.232666015625,-0.30755615234375,4698,-8719,86,15,2,202
171266325,0.69293212890625,-0.6226806640625,-0.21807861328125,-0.29083251953125,4623,-8386,263,14,3,183
171276306,0.7000732421875,-0.62591552734375,-0.2047119140625,-0.27606201171875,4540,-8338,418,13,6,164
171286293,0.7064208984375,-0.62884521484375,-0.19171142578125,-0.2623291015625,4553,-8679,560,10,9,155
171296270,0.71234130859375,-0.6318359375,-0.1778564453125,-0.24835205078125,4522,-9259,687,6,11,163
171306256,0.71820068359375,-0.63519287109375,-0.16253662109375,-0.23309326171875,4426,-9778,753,3,12,179
171316242,0.7237548828125,-0.63885498046875,-0.1456298828125,-0.2164306640625,4258,-10009,810,-1,13,197
171326222,0.72906494140625,-0.64239501953125,-0.12762451171875,-0.19873046875,4013,-9963,843,-3,14,207
171336206,0.733642578125,-0.64569091796875,-0.10955810546875,-0.1812744140625,3717,-9757,904,-6,16,204
171346192,0.7374267578125,-0.64849853515625,-0.092041015625,-0.16497802734375,3365,-9776,965,-8,19,190
171356175,0.7403564453125,-0.6510009765625,-0.0750732421875,-0.14990234375,3054,-10130,986,-10,21,178
171366158,0.7425537109375,-0.65325927734375,-0.05859375,-0.13568115234375,2763,-10541,1026,-12,23,171
171376129,0.74420166015625,-0.65533447265625,-0.04241943359375,-0.1220703125,2442,-10823,1064,-14,24,166
171386111,0.74530029296875,-0.6572265625,-0.02667236328125,-0.109130859375,2123,-10946,1071,-16,25,159
171396093,0.745849609375,-0.65887451171875,-0.01165771484375,-0.09722900390625,1841,-10869,1094,-17,26,149
171406077,0.74603271484375,-0.6602783203125,0.00244140625,-0.08648681640625,1562,-10658,1143,-18,27,137
171416057,0.74578857421875,-0.6614990234375,0.01568603515625,-0.0770263671875,1274,-10508,1167,-19,29,125
171426041,0.74530029296875,-0.66265869140625,0.0284423828125,-0.068359375,1016,-10483,1177,-19,30,119
171436023,0.7445068359375,-0.66363525390625,0.04107666015625,-0.05975341796875,761,-10550,1174,-19,30,120
171446003,0.74365234375,-0.6644287109375,0.05413818359375,-0.05072021484375,512,-10730,1151,-19,30,126
171455993,0.74261474609375,-0.66497802734375,0.06781005859375,-0.040771484375,259,-10928,1109,-18,29,137
171465975,0.7415771484375,-0.6651611328125,0.0821533203125,-0.02978515625,-9,-11124,1067,-17,27,147
171475951,0.74041748046875,-0.66485595703125,0.096923828125,-0.01800537109375,-311,-11317,1020,-15,26,154
171485936,0.7392578125,-0.66400146484375,0.11175537109375,-0.005859375,-611,-11474,988,-12,24,156
171495917,0.73809814453125,-0.6627197265625,0.12615966796875,0.00604248046875,-871,-11528,978,-9,23,153
171505904,0.7369384765625,-0.66107177734375,0.139892578125,0.01739501953125,-1136,-11534,964,-7,22,145
171515884,0.73577880859375,-0.65924072265625,0.1524658203125,0.02777099609375,-1360,-11520,961,-4,20,134
171525867,0.7347412109375,-0.65716552734375,0.1639404296875,0.03717041015625,-1549,-11462,963,-2,19,123
171535851,0.7337646484375,-0.655029296875,0.17437744140625,0.045654296875,-1706,-11355,964,-1,17,113
171545837,0.73291015625,-0.65283203125,0.1837158203125,0.05328369140625,-1810,-11255,961,1,16,103
171555815,0.732177734375,-0.650634765625,0.19219970703125,0.06011962890625,-1884,-11198,991,2,14,95
171565799,0.73162841796875,-0.64837646484375,0.1998291015625,0.06634521484375,-1905,-11177,1010,4,12,88
171575784,0.731201171875,-0.64617919921875,0.20654296875,0.07183837890625,-1916,-11194,1059,5,11,80
171585770,0.73089599609375,-0.64404296875,0.21234130859375,0.07666015625,-1882,-11166,1101,6,9,72
171595752,0.7308349609375,-0.64208984375,0.217041015625,0.08056640625,-1837,-11128,1096,6,7,60
171605734,0.73089599609375,-0.64044189453125,0.22052001953125,0.083251953125,-1795,-10967,1063,7,6,45
171615711,0.731201171875,-0.6392822265625,0.22247314453125,0.08447265625,-1725,-10736,1041,7,4,26
171625693,0.73175048828125,-0.63861083984375,0.2227783203125,0.08404541015625,-1611,-10507,1052,7,3,6
171635673,0.73260498046875,-0.6383056640625,0.2215576171875,0.08203125,-1477,-10297,1099,7,2,-11
171645652,0.73358154296875,-0.63848876953125,0.218994140625,0.07861328125,-1330,-10167,1163,7,2,-26
171655636,0.73468017578125,-0.63897705078125,0.2154541015625,0.07421875,-1181,-10129,1249,6,2,-36
171665618,0.73577880859375,-0.63970947265625,0.2113037109375,0.0692138671875,-1064,-10218,1311,6,1,-42
171675598,0.73681640625,-0.64044189453125,0.20684814453125,0.0640869140625,-984,-10371,1381,5,0,-43
171685580,0.73779296875,-0.6412353515625,0.20245361328125,0.05902099609375,-931,-10510,1412,5,0,-43
171695563,0.7386474609375,-0.64208984375,0.19793701171875,0.05401611328125,-913,-10642,1438,4,-1,-44
171705544,0.739501953125,-0.64300537109375,0.1929931640625,0.0487060546875,-933,-10779,1477,3,-1,-50
171715526,0.7403564453125,-0.64410400390625,0.18743896484375,0.04278564453125,-964,-10881,1531,3,-3,-60
171725510,0.7412109375,-0.6453857421875,0.18084716796875,0.035888671875,-983,-11037,1591,3,-3,-72
171735492,0.7420654296875,-0.64691162109375,0.17327880859375,0.02777099609375,-1029,-11258,1680,3,-3,-86
171745474,0.74298095703125,-0.6484375,0.16473388671875,0.01873779296875,-1086,-11512,1765,3,-4,-97
171755458,0.74383544921875,-0.64996337890625,0.1553955078125,0.0087890625,-1130,-11779,1817,5,-4,-107
171765438,0.74468994140625,-0.65142822265625,0.14532470703125,-0.00177001953125,-1161,-12036,1823,6,-6,-116
171775430,0.74542236328125,-0.65277099609375,0.1343994140625,-0.0130615234375,-1148,-12275,1786,8,-7,-126
171785412,0.74609375,-0.65399169921875,0.12261962890625,-0.025146484375,-1085,-12521,1748,10,-8,-137
171795395,0.74664306640625,-0.65496826171875,0.10992431640625,-0.03802490234375,-1021,-12802,1726,12,-10,-147
171805373,0.7470703125,-0.6556396484375,0.09661865234375,-0.051513671875,-925,-13068,1747,14,-10,-155
171815356,0.7474365234375,-0.6558837890625,0.082763671875,-0.0655517578125,-797,-13317,1805,17,-10,-161
171825339,0.74761962890625,-0.65570068359375,0.06866455078125,-0.07989501953125,-649,-13477,1812,19,-10,-165
171835321,0.74761962890625,-0.65509033203125,0.05438232421875,-0.094482421875,-471,-13560,1793,21,-10,-168
171845303,0.74737548828125,-0.6541748046875,0.0399169921875,-0.10919189453125,-274,-13588,1734,23,-10,-172
171855287,0.74676513671875,-0.65289306640625,0.025146484375,-0.124267578125,-53,-13520,1656,24,-9,-177
171865268,0.7457275390625,-0.65130615234375,0.00994873046875,-0.139892578125,198,-13376,1617,25,-8,-185
171875256,0.7442626953125,-0.64935302734375,-0.00567626953125,-0.15625,479,-13231,1608,25,-7,-192
171885238,0.74224853515625,-0.64697265625,-0.0216064453125,-0.1732177734375,756,-13112,1599,25,-4,-200
171895222,0.73974609375,-0.644287109375,-0.03753662109375,-0.1904296875,1008,-13025,1570,25,-3,-202
171905207,0.73687744140625,-0.6412353515625,-0.05322265625,-0.20751953125,1262,-12929,1535,25,-1,-201
171915192,0.73358154296875,-0.63775634765625,-0.068603515625,-0.2244873046875,1493,-12767,1472,26,0,-201
171925180,0.72998046875,-0.63397216796875,-0.083740234375,-0.2413330078125,1711,-12578,1383,26,1,-202
171935163,0.725830078125,-0.62982177734375,-0.098876953125,-0.25823974609375,1933,-12288,1283,26,3,-204
171945142,0.72113037109375,-0.62530517578125,-0.11419677734375,-0.27557373046875,2144,-11879,1223,25,4,-211
171955119,0.71575927734375,-0.6202392578125,-0.12982177734375,-0.29351806640625,2329,-11370,1189,25,5,-218
171965100,0.70965576171875,-0.6146240234375,-0.1458740234375,-0.31207275390625,2494,-10849,1134,24,7,-226
171975083,0.7027587890625,-0.6085205078125,-0.162109375,-0.3310546875,2660,-10381,1113,24,8,-231
171985065,0.69537353515625,-0.6019287109375,-0.1781005859375,-0.349853515625,2836,-9950,1100,23,10,-231
171995051,0.68768310546875,-0.594970703125,-0.19354248046875,-0.3682861328125,2976,-9496,1074,23,11,-227
172005031,0.67974853515625,-0.5877685546875,-0.20849609375,-0.3861083984375,3086,-8976,1078,22,12,-222
172015013,0.67144775390625,-0.5802001953125,-0.22296142578125,-0.40350341796875,3164,-8450,1095,21,12,-219
172024996,0.662841796875,-0.57232666015625,-0.23712158203125,-0.42059326171875,3205,-7910,1111,21,13,-218
172034983,0.65386962890625,-0.56402587890625,-0.25103759765625,-0.4375,3233,-7372,1126,21,14,-217
172044958,0.64447021484375,-0.55517578125,-0.26483154296875,-0.4542236328125,3220,-6889,1126,21,15,-218
172054943,0.63470458984375,-0.54608154296875,-0.2783203125,-0.47064208984375,3220,-6505,1116,21,15,-217
172064924,0.62481689453125,-0.536865234375,-0.2913818359375,-0.486328125,3210,-6163,1079,21,14,-211
172074907,0.614990234375,-0.52777099609375,-0.3038330078125,-0.5009765625,3181,-5777,1043,21,13,-202
172084893,0.605224609375,-0.51873779296875,-0.315673828125,-0.5147705078125,3119,-5346,1032,20,11,-194
172094878,0.59539794921875,-0.50970458984375,-0.32720947265625,-0.52789306640625,3044,-4824,1021,19,10,-189
172104857,0.585205078125,-0.50054931640625,-0.33856201171875,-0.540771484375,2960,-4328,1028,18,9,-189
172114839,0.5745849609375,-0.49114990234375,-0.34991455078125,-0.55340576171875,2970,-3911,1008,18,9,-189
172124823,0.56365966796875,-0.481689453125,-0.36102294921875,-0.565673828125,3015,-3584,982,17,8,-188
172137995,0.5526123046875,-0.47235107421875,-0.37176513671875,-0.57733154296875,3063,-3328,945,17,7,-182
172144789,0.54193115234375,-0.4635009765625,-0.38177490234375,-0.58807373046875,3138,-3108,923,15,5,-171
172154767,0.53179931640625,-0.4552001953125,-0.3909912109375,-0.59765625,3225,-2919,911,15,3,-158
172164760,0.52227783203125,-0.447509765625,-0.39947509765625,-0.60614013671875,3267,-2671,910,14,1,-146
172174740,0.5130615234375,-0.4400634765625,-0.4075927734375,-0.614013671875,3242,-2365,897,14,0,-141
172184716,0.5035400390625,-0.4324951171875,-0.41583251953125,-0.6217041015625,3246,-2087,869,14,-1,-142
172194696,0.49359130859375,-0.42462158203125,-0.4241943359375,-0.62945556640625,3226,-1815,858,15,-1,-147
172204680,0.48297119140625,-0.4161376953125,-0.43292236328125,-0.6373291015625,3178,-1486,850,16,-1,-153
172214661,0.47161865234375,-0.406982421875,-0.4420166015625,-0.64544677734375,3117,-1066,872,17,-1,-161
172224646,0.4595947265625,-0.3970947265625,-0.451416015625,-0.65374755859375,3030,-566,957,18,-1,-165
172234636,0.44720458984375,-0.38665771484375,-0.4608154296875,-0.6619873046875,2920,-4,1031,19,0,-165
172244609,0.4349365234375,-0.37591552734375,-0.469970703125,-0.66986083984375,2782,580,1139,19,1,-160
172254593,0.4232177734375,-0.36529541015625,-0.4786376953125,-0.67706298828125,2598,1161,1242,20,1,-150
172264577,0.41241455078125,-0.35504150390625,-0.48663330078125,-0.6834716796875,2391,1772,1363,21,2,-135
172274557,0.40277099609375,-0.34539794921875,-0.49383544921875,-0.68896484375,2163,2368,1482,21,3,-117
172284542,0.394775390625,-0.3367919921875,-0.5001220703125,-0.693359375,1919,2949,1571,22,3,-95
172294523,0.38848876953125,-0.32928466796875,-0.5054931640625,-0.696533203125,1652,3525,1658,22,2,-72
172304506,0.38385009765625,-0.32305908203125,-0.5101318359375,-0.69866943359375,1411,4145,1756,22,1,-50
172314488,0.38055419921875,-0.31787109375,-0.5140380859375,-0.699951171875,1198,4768,1865,22,0,-32
172324469,0.3782958984375,-0.3135986328125,-0.51739501953125,-0.70062255859375,1048,5403,2003,20,-1,-18
172334451,0.376708984375,-0.30987548828125,-0.520263671875,-0.7010498046875,903,5996,2115,18,-1,-9
172344437,0.37554931640625,-0.30670166015625,-0.522705078125,-0.70123291015625,804,6519,2187,15,-1,-2
172354422,0.3748779296875,-0.30389404296875,-0.52471923828125,-0.70135498046875,718,6958,2276,13,-1,5
172364404,0.37493896484375,-0.30194091796875,-0.52606201171875,-0.70111083984375,646,7282,2341,11,-1,17
172374378,0.37628173828125,-0.30120849609375,-0.526611328125,-0.7003173828125,608,7506,2367,8,-2,35
172384362,0.3792724609375,-0.30206298828125,-0.5262451171875,-0.6986083984375,621,7594,2359,5,-3,57
172394350,0.384033203125,-0.3048095703125,-0.5247802734375,-0.69586181640625,689,7569,2327,2,-5,79
172404322,0.3905029296875,-0.30926513671875,-0.5223388671875,-0.69219970703125,801,7427,2264,0,-6,100
172414304,0.3984375,-0.31536865234375,-0.5189208984375,-0.68743896484375,948,7180,2185,-3,-8,119
172424285,0.40765380859375,-0.32281494140625,-0.51458740234375,-0.68182373046875,1078,6841,2098,-5,-9,135
172434271,0.41802978515625,-0.3314208984375,-0.5093994140625,-0.67529296875,1197,6416,2008,-6,-10,149
172444256,0.42919921875,-0.341064453125,-0.50347900390625,-0.6678466796875,1283,5915,1901,-8,-11,161
172454242,0.44110107421875,-0.3515625,-0.49676513671875,-0.65960693359375,1376,5378,1807,-9,-12,170
172464222,0.453369140625,-0.362548828125,-0.48956298828125,-0.65069580078125,1492,4865,1731,-10,-14,176
172474207,0.46563720703125,-0.37384033203125,-0.4818115234375,-0.641357421875,1619,4336,1671,-11,-14,178
172484187,0.4779052734375,-0.38525390625,-0.4736328125,-0.63165283203125,1735,3802,1610,-13,-14,179
172494177,0.489990234375,-0.39666748046875,-0.4649658203125,-0.62164306640625,1854,3269,1574,-14,-14,179
172504160,0.501953125,-0.40826416015625,-0.45574951171875,-0.611328125,2006,2684,1515,-16,-13,181
172514131,0.51397705078125,-0.42010498046875,-0.44586181640625,-0.60052490234375,2176,1975,1464,-19,-12,184
172524114,0.52630615234375,-0.43243408203125,-0.4349365234375,-0.5889892578125,2370,1139,1400,-21,-12,191
172534095,0.53900146484375,-0.44549560546875,-0.4228515625,-0.576416015625,2574,270,1307,-24,-12,200
172544077,0.55181884765625,-0.45892333984375,-0.409912109375,-0.56292724609375,2772,-448,1217,-26,-12,206
172554059,0.56427001953125,-0.47210693359375,-0.396484375,-0.54913330078125,2956,-991,1184,-27,-11,205
172564041,0.5758056640625,-0.48468017578125,-0.383056640625,-0.53564453125,3106,-1584,1117,-28,-10,196
172574024,0.5865478515625,-0.49664306640625,-0.36944580078125,-0.5223388671875,3268,-2366,1003,-30,-8,187
172584007,0.5968017578125,-0.50848388671875,-0.35552978515625,-0.50885009765625,3461,-3261,855,-30,-7,185
172593996,0.60699462890625,-0.52044677734375,-0.3409423828125,-0.4945068359375,3639,-4115,702,-30,-7,192
172603978,0.6173095703125,-0.53240966796875,-0.3255615234375,-0.47906494140625,3731,-4746,609,-30,-7,201
172613954,0.62750244140625,-0.544189453125,-0.30963134765625,-0.462890625,3743,-5103,562,-30,-7,207
172623937,0.63739013671875,-0.5552978515625,-0.29345703125,-0.44647216796875,3706,-5418,554,-29,-6,206
172633919,0.646728515625,-0.5657958984375,-0.2772216796875,-0.42987060546875,3627,-6129,443,-27,-5,201
172643902,0.65582275390625,-0.57611083984375,-0.260498046875,-0.41253662109375,3610,-7182,257,-23,-5,203
172653884,0.6651611328125,-0.586181640625,-0.242919921875,-0.3936767578125,3561,-8297,76,-20,-6,214
172663866,0.67474365234375,-0.595947265625,-0.2244873046875,-0.37310791015625,3478,-9159,-73,-16,-8,227
172673850,0.68408203125,-0.60516357421875,-0.2056884765625,-0.3514404296875,3339,-9567,-133,-13,-11,233
172683833,0.6927490234375,-0.6134033203125,-0.18743896484375,-0.32977294921875,3228,-9556,-102,-12,-13,229
172693814,0.7001953125,-0.62042236328125,-0.1705322265625,-0.30938720703125,3153,-9258,32,-11,-13,212
172703796,0.706298828125,-0.6263427734375,-0.15533447265625,-0.29107666015625,2991,-9139,170,-13,-12,188
172713784,0.71112060546875,-0.63153076171875,-0.1414794921875,-0.27471923828125,2857,-9476,197,-13,-9,164
172723768,0.71502685546875,-0.63629150390625,-0.12835693359375,-0.2596435546875,2841,-9967,223,-14,-7,154
172733751,0.718505859375,-0.64068603515625,-0.1153564453125,-0.24493408203125,2823,-10412,247,-14,-5,153
172743734,0.72174072265625,-0.64471435546875,-0.10211181640625,-0.230224609375,2782,-10602,266,-14,-3,155
172753709,0.72479248046875,-0.64837646484375,-0.0887451171875,-0.21563720703125,2743,-10499,337,-14,-1,156
172763698,0.72747802734375,-0.65142822265625,-0.0755615234375,-0.2017822265625,2682,-10170,443,-15,2,152
172773677,0.729736328125,-0.654052734375,-0.062744140625,-0.18902587890625,2565,-9900,555,-15,6,144
172783660,0.73162841796875,-0.65643310546875,-0.0499267578125,-0.17694091796875,2400,-9881,638,-17,10,140
172793642,0.7332763671875,-0.65863037109375,-0.0364990234375,-0.164794921875,2227,-10115,679,-18,13,145
172803625,0.73480224609375,-0.6607666015625,-0.0216064453125,-0.151611328125,1983,-10483,673,-19,16,161
172813607,0.7362060546875,-0.66278076171875,-0.0050048828125,-0.13677978515625,1681,-10754,639,-20,17,180
172823591,0.73748779296875,-0.6644287109375,0.01312255859375,-0.12042236328125,1340,-10907,637,-20,18,196
172833573,0.7384033203125,-0.6656494140625,0.03216552734375,-0.1031494140625,957,-10934,611,-21,19,206
172843555,0.73895263671875,-0.66632080078125,0.05126953125,-0.0859375,553,-10880,603,-20,21,203
172853542,0.73895263671875,-0.66650390625,0.0699462890625,-0.06951904296875,125,-10911,578,-19,23,195
172863518,0.73846435546875,-0.6663818359375,0.08782958984375,-0.0540771484375,-288,-11001,562,-19,24,184
172873501,0.737548828125,-0.66595458984375,0.10491943359375,-0.03973388671875,-691,-11147,569,-19,25,174
172883484,0.7362060546875,-0.665283203125,0.12139892578125,-0.02618408203125,-1095,-11367,580,-19,26,168
172893467,0.73455810546875,-0.66436767578125,0.137451171875,-0.0130615234375,-1464,-11599,571,-18,27,165
172903450,0.732666015625,-0.66314697265625,0.1531982421875,-0.000244140625,-1803,-11799,560,-18,26,163
172913438,0.73052978515625,-0.66162109375,0.16864013671875,0.01239013671875,-2142,-11932,515,-17,26,161
172923421,0.72821044921875,-0.65985107421875,0.18359375,0.02447509765625,-2461,-12009,463,-15,26,156
172933404,0.72576904296875,-0.6578369140625,0.19781494140625,0.035888671875,-2722,-12062,418,-14,25,148
172943382,0.72332763671875,-0.65582275390625,0.21099853515625,0.04638671875,-2891,-12095,422,-13,24,139
172953366,0.72100830078125,-0.65362548828125,0.22308349609375,0.05584716796875,-2958,-12108,473,-11,23,129
172963350,0.71875,-0.6514892578125,0.2340087890625,0.06427001953125,-2927,-12076,526,-10,22,119
172973331,0.7166748046875,-0.64947509765625,0.24371337890625,0.07159423828125,-2843,-11996,600,-9,21,107
172983312,0.71484375,-0.64752197265625,0.252197265625,0.07781982421875,-2745,-11889,680,-7,20,94
172993294,0.71331787109375,-0.6458740234375,0.2591552734375,0.0826416015625,-2659,-11761,761,-6,18,78
173003277,0.712158203125,-0.64459228515625,0.2645263671875,0.0858154296875,-2524,-11622,840,-4,17,58
173013259,0.71136474609375,-0.643798828125,0.26806640625,0.08721923828125,-2308,-11458,928,-3,15,39
173023237,0.71099853515625,-0.6434326171875,0.26983642578125,0.08697509765625,-2009,-11269,1063,-1,14,20
173033233,0.71112060546875,-0.64349365234375,0.27001953125,0.0853271484375,-1651,-11041,1249,0,12,4
173043209,0.711669921875,-0.6436767578125,0.26898193359375,0.08258056640625,-1330,-10865,1443,1,10,-7
173053194,0.71246337890625,-0.6439208984375,0.26727294921875,0.07940673828125,-1096,-10756,1627,2,8,-12
173063176,0.71331787109375,-0.64410400390625,0.265380859375,0.0762939453125,-985,-10749,1742,3,7,-11
173073160,0.714111328125,-0.64422607421875,0.263671875,0.07366943359375,-901,-10789,1805,2,5,-7
173083139,0.71490478515625,-0.6441650390625,0.2623291015625,0.071533203125,-846,-10848,1837,2,4,-1
173093120,0.715576171875,-0.64410400390625,0.26123046875,0.06982421875,-786,-10933,1822,2,4,2
173103098,0.71624755859375,-0.6439208984375,0.26007080078125,0.0679931640625,-736,-11062,1790,3,4,1
173113079,0.71710205078125,-0.64385986328125,0.2586669921875,0.06585693359375,-786,-11252,1733,4,3,-4
173123059,0.71795654296875,-0.64385986328125,0.25677490234375,0.063232421875,-897,-11434,1623,6,2,-11
173133042,0.71905517578125,-0.64404296875,0.25421142578125,0.0599365234375,-1072,-11598,1542,7,2,-21
173143022,0.72027587890625,-0.6444091796875,0.2506103515625,0.05560302734375,-1298,-11730,1495,9,1,-36
173153005,0.72174072265625,-0.6451416015625,0.2457275390625,0.0499267578125,-1527,-11870,1471,10,0,-54
173162995,0.723388671875,-0.64617919921875,0.2393798828125,0.04266357421875,-1773,-12061,1446,12,-1,-73
173172975,0.7252197265625,-0.6474609375,0.2315673828125,0.0340576171875,-1997,-12250,1388,14,-3,-90
173182951,0.72723388671875,-0.64886474609375,0.22247314453125,0.0244140625,-2186,-12428,1283,17,-6,-104
173192935,0.72930908203125,-0.6502685546875,0.21221923828125,0.01397705078125,-2331,-12584,1148,20,-10,-115
173202918,0.7314453125,-0.65155029296875,0.2010498046875,0.00299072265625,-2431,-12698,1052,23,-13,-125
173212903,0.73370361328125,-0.65264892578125,0.18896484375,-0.008544921875,-2498,-12781,1030,25,-15,-133
173222884,0.7359619140625,-0.65338134765625,0.17608642578125,-0.0205078125,-2514,-12833,1073,27,-18,-142
173232868,0.73822021484375,-0.65380859375,0.1624755859375,-0.0330810546875,-2481,-12855,1132,29,-19,-149
173242849,0.74041748046875,-0.65399169921875,0.14825439453125,-0.04595947265625,-2410,-12842,1156,32,-21,-155
173252832,0.742431640625,-0.65380859375,0.1336669921875,-0.0589599609375,-2305,-12803,1155,34,-22,-158
173262815,0.7442626953125,-0.65325927734375,0.11883544921875,-0.0718994140625,-2174,-12764,1156,35,-24,-160
173272797,0.74591064453125,-0.6524658203125,0.10394287109375,-0.0845947265625,-2022,-12703,1170,36,-25,-159
173282784,0.747314453125,-0.6512451171875,0.08905029296875,-0.09710693359375,-1832,-12626,1212,37,-26,-158
173292769,0.74853515625,-0.6497802734375,0.0740966796875,-0.10943603515625,-1647,-12522,1267,37,-27,-159
173302751,0.7493896484375,-0.64813232421875,0.05902099609375,-0.121826171875,-1453,-12411,1318,37,-27,-162
173312736,0.7498779296875,-0.64630126953125,0.04376220703125,-0.1343994140625,-1258,-12310,1368,37,-26,-165
173322710,0.75006103515625,-0.64422607421875,0.0284423828125,-0.1470947265625,-1044,-12200,1416,36,-26,-168
173332692,0.749755859375,-0.6419677734375,0.01300048828125,-0.15997314453125,-805,-12060,1437,35,-26,-170
173342679,0.74896240234375,-0.63958740234375,-0.00262451171875,-0.1732177734375,-545,-11912,1471,34,-25,-175
173352659,0.74761962890625,-0.63702392578125,-0.0185546875,-0.1868896484375,-259,-11753,1495,33,-24,-181
173362643,0.74566650390625,-0.63427734375,-0.03466796875,-0.20123291015625,55,-11598,1510,31,-21,-187
173372625,0.74298095703125,-0.63134765625,-0.05096435546875,-0.2161865234375,353,-11457,1507,28,-19,-194
173382609,0.7396240234375,-0.62823486328125,-0.06744384765625,-0.23187255859375,637,-11260,1500,27,-17,-201
173392591,0.73553466796875,-0.62481689453125,-0.08416748046875,-0.248046875,904,-11000,1480,25,-14,-207
173402572,0.7308349609375,-0.62103271484375,-0.10089111328125,-0.26470947265625,1165,-10762,1446,24,-12,-211
173412554,0.7254638671875,-0.616943359375,-0.117431640625,-0.281494140625,1436,-10530,1407,23,-10,-214
173422542,0.7197265625,-0.61260986328125,-0.1336669921875,-0.2982177734375,1702,-10327,1368,21,-8,-212
173432519,0.71356201171875,-0.60791015625,-0.1494140625,-0.3145751953125,1935,-10112,1305,21,-6,-209
173442503,0.7071533203125,-0.60302734375,-0.16455078125,-0.33056640625,2143,-9893,1229,20,-5,-206
173452486,0.70050048828125,-0.59783935546875,-0.17913818359375,-0.3460693359375,2325,-9635,1155,20,-3,-202
173462468,0.69366455078125,-0.5924072265625,-0.19329833984375,-0.36126708984375,2488,-9354,1077,20,-2,-199
173472455,0.68658447265625,-0.586669921875,-0.2071533203125,-0.376220703125,2640,-9012,1020,20,0,-198
173482430,0.67919921875,-0.58038330078125,-0.220947265625,-0.39117431640625,2764,-8663,978,21,1,-200
173492423,0.6715087890625,-0.57373046875,-0.23468017578125,-0.4061279296875,2894,-8310,927,22,2,-201
173502405,0.6634521484375,-0.5665283203125,-0.248291015625,-0.4210205078125,3030,-7917,906,22,4,-202
173512382,0.65496826171875,-0.55889892578125,-0.2618408203125,-0.43597412109375,3160,-7485,881,23,5,-204
173522365,0.6461181640625,-0.55078125,-0.27532958984375,-0.4510498046875,3282,-7012,862,22,7,-206
173532350,0.63677978515625,-0.54205322265625,-0.28875732421875,-0.4661865234375,3385,-6503,865,23,9,-208
173542331,0.6270751953125,-0.532958984375,-0.30194091796875,-0.48126220703125,3454,-6002,854,22,11,-208
173552312,0.6171875,-0.5234375,-0.31475830078125,-0.49609375,3508,-5531,841,22,12,-205
173562295,0.607177734375,-0.51373291015625,-0.32696533203125,-0.5103759765625,3573,-5186,830,21,14,-200
173572279,0.59747314453125,-0.504150390625,-0.33831787109375,-0.52386474609375,3665,-4860,827,21,15,-190
173582261,0.588134765625,-0.49468994140625,-0.34881591796875,-0.53643798828125,3724,-4514,835,20,16,-180
173592242,0.57916259765625,-0.48541259765625,-0.3585205078125,-0.54815673828125,3727,-4095,847,20,17,-170
173602233,0.57037353515625,-0.47601318359375,-0.36767578125,-0.559326171875,3679,-3595,901,20,17,-163
173612215,0.5615234375,-0.4664306640625,-0.3765869140625,-0.5704345703125,3607,-3092,941,19,18,-163
173622192,0.55230712890625,-0.45660400390625,-0.3853759765625,-0.58135986328125,3525,-2611,994,18,18,-162
173632186,0.54290771484375,-0.446533203125,-0.39398193359375,-0.59222412109375,3453,-2219,1034,17,19,-163
173642174,0.53338623046875,-0.4365234375,-0.4022216796875,-0.60272216796875,3403,-1927,1063,16,19,-159
173652153,0.5240478515625,-0.42681884765625,-0.409912109375,-0.612548828125,3367,-1679,1090,15,18,-151
173662121,0.51531982421875,-0.417724609375,-0.41680908203125,-0.62152099609375,3374,-1523,1126,14,16,-140
173672106,0.5074462890625,-0.409423828125,-0.42291259765625,-0.62933349609375,3411,-1356,1186,13,15,-124
173682086,0.50048828125,-0.4019775390625,-0.42822265625,-0.6361083984375,3428,-1210,1242,13,14,-109
173692069,0.49432373046875,-0.3951416015625,-0.43292236328125,-0.6419677734375,3420,-1044,1275,13,12,-99
173702052,0.4884033203125,-0.388671875,-0.4375,-0.6473388671875,3380,-850,1297,13,10,-95
173712037,0.482177734375,-0.38214111328125,-0.4422607421875,-0.65264892578125,3354,-646,1316,13,8,-97
173722019,0.475341796875,-0.37542724609375,-0.4473876953125,-0.65802001953125,3321,-398,1358,14,6,-103
173732000,0.46759033203125,-0.36822509765625,-0.4530029296875,-0.66375732421875,3276,-93,1428,14,4,-112
173741989,0.45892333984375,-0.36041259765625,-0.45916748046875,-0.66986083984375,3228,290,1523,15,2,-121
173751966,0.44921875,-0.351806640625,-0.4659423828125,-0.67633056640625,3182,722,1616,16,1,-131
173761948,0.4385986328125,-0.342529296875,-0.4730224609375,-0.68304443359375,3128,1168,1727,17,0,-138
173771932,0.42755126953125,-0.33294677734375,-0.4803466796875,-0.689697265625,3086,1596,1819,18,-1,-139
173781911,0.41644287109375,-0.3233642578125,-0.487548828125,-0.69598388671875,3047,2003,1916,18,-2,-137
173791894,0.4056396484375,-0.31396484375,-0.49444580078125,-0.7017822265625,3005,2426,2025,19,-2,-130
173801878,0.39544677734375,-0.30499267578125,-0.5009765625,-0.70684814453125,2951,2870,2128,20,-3,-119
173811858,0.385986328125,-0.29656982421875,-0.50714111328125,-0.7113037109375,2857,3335,2218,20,-4,-108
173821839,0.3773193359375,-0.2886962890625,-0.512939453125,-0.71502685546875,2733,3813,2294,20,-5,-97
173831822,0.3692626953125,-0.28125,-0.5184326171875,-0.71820068359375,2599,4315,2387,21,-5,-88
173841805,0.361572265625,-0.27398681640625,-0.5238037109375,-0.7210693359375,2428,4884,2460,22,-6,-82
173851788,0.35394287109375,-0.26678466796875,-0.529052734375,-0.72369384765625,2260,5484,2532,21,-6,-79
173861770,0.34625244140625,-0.25946044921875,-0.5341796875,-0.72625732421875,2109,6080,2596,21,-6,-78
173871762,0.3387451171875,-0.25238037109375,-0.53912353515625,-0.72869873046875,1951,6653,2653,20,-6,-73
173881744,0.33160400390625,-0.24560546875,-0.543701171875,-0.7308349609375,1814,7151,2693,18,-6,-66
173891720,0.32550048828125,-0.239501953125,-0.54779052734375,-0.73260498046875,1674,7537,2722,18,-5,-54
173901701,0.32086181640625,-0.234619140625,-0.55120849609375,-0.733642578125,1542,7816,2725,16,-5,-33
173911683,0.3184814453125,-0.23138427734375,-0.55377197265625,-0.73382568359375,1407,8011,2709,15,-4,-7
173921664,0.31866455078125,-0.2303466796875,-0.5552978515625,-0.73284912109375,1315,8113,2667,13,-5,24
173931646,0.32171630859375,-0.23175048828125,-0.55572509765625,-0.73077392578125,1286,8098,2636,11,-6,56
173941636,0.327392578125,-0.2354736328125,-0.55511474609375,-0.7275390625,1295,8000,2573,9,-8,86
173951612,0.33526611328125,-0.2413330078125,-0.553466796875,-0.72320556640625,1357,7842,2527,6,-9,111
173961594,0.344970703125,-0.248779296875,-0.55096435546875,-0.71807861328125,1445,7600,2450,4,-9,131
173971577,0.35601806640625,-0.2574462890625,-0.54766845703125,-0.71209716796875,1544,7294,2364,3,-10,146
173981555,0.367919921875,-0.26708984375,-0.54364013671875,-0.70556640625,1656,6969,2280,1,-9,157
173991542,0.38043212890625,-0.27734375,-0.5390625,-0.69842529296875,1757,6592,2182,-1,-10,164
174001520,0.393310546875,-0.2880859375,-0.533935546875,-0.69085693359375,1858,6195,2096,-3,-10,170
174011502,0.40667724609375,-0.29937744140625,-0.52813720703125,-0.6827392578125,1960,5781,2020,-5,-10,177
174021483,0.42041015625,-0.31109619140625,-0.52166748046875,-0.674072265625,2078,5372,1954,-6,-10,184
174031466,0.43450927734375,-0.32318115234375,-0.5145263671875,-0.6649169921875,2188,4971,1903,-8,-9,190
174041449,0.4488525390625,-0.3355712890625,-0.506591796875,-0.6552734375,2298,4556,1852,-11,-8,195
174051437,0.4632568359375,-0.34808349609375,-0.4979248046875,-0.64520263671875,2408,4121,1808,-13,-6,198
174061421,0.477783203125,-0.36077880859375,-0.488525390625,-0.63482666015625,2493,3651,1758,-16,-5,202
174071402,0.4921875,-0.3736572265625,-0.47833251953125,-0.6240234375,2583,3157,1702,-19,-4,204
174081379,0.506591796875,-0.38665771484375,-0.46734619140625,-0.61285400390625,2694,2616,1624,-22,-3,207
174091362,0.52081298828125,-0.39984130859375,-0.45550537109375,-0.6011962890625,2812,2046,1518,-26,-1,209
174101350,0.53485107421875,-0.4130859375,-0.44293212890625,-0.58917236328125,2927,1428,1418,-28,0,210
174111329,0.54864501953125,-0.4263916015625,-0.42962646484375,-0.5767822265625,3038,724,1312,-31,2,211
174121310,0.5621337890625,-0.43951416015625,-0.4156494140625,-0.56396484375,3129,-14,1200,-32,3,210
174131293,0.5753173828125,-0.4525146484375,-0.40118408203125,-0.55078125,3225,-826,1063,-32,4,209
174141275,0.58831787109375,-0.46551513671875,-0.385986328125,-0.53692626953125,3366,-1744,917,-33,5,211
174151259,0.60113525390625,-0.4786376953125,-0.37005615234375,-0.52215576171875,3519,-2608,811,-34,5,216
174161237,0.61383056640625,-0.49163818359375,-0.35345458984375,-0.506591796875,3678,-3331,748,-33,6,220
174171228,0.62615966796875,-0.504150390625,-0.33642578125,-0.49053955078125,3812,-3948,702,-33,7,221
174181210,0.637939453125,-0.5159912109375,-0.31927490234375,-0.47418212890625,3910,-4564,642,-30,8,217
174191190,0.649169921875,-0.52703857421875,-0.30206298828125,-0.45782470703125,3972,-5246,549,-28,10,213
174201181,0.65997314453125,-0.53741455078125,-0.28466796875,-0.441162109375,3982,-6062,451,-25,12,210
174211163,0.6705322265625,-0.54730224609375,-0.266845703125,-0.42388916015625,3950,-6811,364,-23,12,213
174221143,0.68084716796875,-0.5567626953125,-0.24853515625,-0.40582275390625,3885,-7369,354,-21,12,218
174231120,0.6907958984375,-0.56573486328125,-0.22991943359375,-0.38720703125,3815,-7648,390,-22,11,222
174241099,0.699951171875,-0.573974609375,-0.21142578125,-0.36865234375,3711,-7643,483,-23,11,219
174251082,0.7080078125,-0.5814208984375,-0.1934814453125,-0.35107421875,3584,-7480,602,-24,12,207
174261064,0.71484375,-0.587890625,-0.1766357421875,-0.33502197265625,3378,-7369,672,-25,14,188
174271051,0.72052001953125,-0.59356689453125,-0.16070556640625,-0.32049560546875,3105,-7637,670,-24,17,170
174281032,0.7254638671875,-0.59881591796875,-0.14501953125,-0.3067626953125,2877,-8244,632,-23,19,160
174291013,0.7301025390625,-0.603759765625,-0.129150390625,-0.29278564453125,2653,-8870,618,-22,20,164
174300996,0.73480224609375,-0.6085205078125,-0.11236572265625,-0.27777099609375,2425,-9326,620,-22,19,176
174310986,0.739501953125,-0.61309814453125,-0.09466552734375,-0.26141357421875,2209,-9461,663,-23,18,191
174320962,0.74395751953125,-0.61737060546875,-0.076416015625,-0.24407958984375,2008,-9275,741,-25,17,200
174330946,0.7479248046875,-0.6212158203125,-0.05804443359375,-0.22662353515625,1792,-8904,827,-26,18,200
174340927,0.7510986328125,-0.62469482421875,-0.0399169921875,-0.209716796875,1519,-8664,918,-29,19,194
174350908,0.7535400390625,-0.62786865234375,-0.02203369140625,-0.19354248046875,1194,-8786,966,-30,22,186
174360891,0.75531005859375,-0.63079833984375,-0.00421142578125,-0.17779541015625,886,-9196,972,-31,24,182
174370878,0.75653076171875,-0.63348388671875,0.013916015625,-0.16192626953125,547,-9716,974,-32,25,185
174380859,0.75738525390625,-0.6357421875,0.0325927734375,-0.1453857421875,179,-10153,944,-32,25,192
174390843,0.7578125,-0.63763427734375,0.05169677734375,-0.1282958984375,-177,-10340,912,-32,25,198
174400825,0.7578125,-0.6390380859375,0.0706787109375,-0.111083984375,-492,-10324,902,-32,25,197
174410805,0.75726318359375,-0.6400146484375,0.08917236328125,-0.09442138671875,-814,-10264,905,-33,25,190
174420786,0.7562255859375,-0.64068603515625,0.10693359375,-0.07867431640625,-1184,-10372,886,-32,26,181
174430767,0.754638671875,-0.64117431640625,0.1239013671875,-0.06378173828125,-1562,-10616,837,-32,27,171
174440759,0.752685546875,-0.641357421875,0.14019775390625,-0.04962158203125,-1920,-10914,774,-31,27,165
174450742,0.75042724609375,-0.64129638671875,0.156005859375,-0.0360107421875,-2255,-11203,698,-30,27,161
174460717,0.74786376953125,-0.64093017578125,0.17132568359375,-0.022705078125,-2550,-11436,618,-29,26,158
174470701,0.74517822265625,-0.6402587890625,0.18621826171875,-0.0096435546875,-2820,-11572,541,-27,25,156
174480685,0.74237060546875,-0.63922119140625,0.20062255859375,0.0030517578125,-3072,-11628,503,-25,24,153
174490665,0.73956298828125,-0.63775634765625,0.214599609375,0.0152587890625,-3356,-11615,513,-23,24,148
174500648,0.7366943359375,-0.6361083984375,0.2279052734375,0.02685546875,-3631,-11612,532,-21,24,141
174510629,0.73382568359375,-0.63421630859375,0.24053955078125,0.0377197265625,-3896,-11633,546,-19,23,134
174520612,0.73095703125,-0.63214111328125,0.25250244140625,0.04791259765625,-4152,-11723,549,-17,23,129
174530596,0.7281494140625,-0.6298828125,0.26397705078125,0.0577392578125,-4347,-11826,533,-15,21,127
174540579,0.72540283203125,-0.62738037109375,0.2750244140625,0.0673828125,-4475,-11852,493,-13,20,126
174550561,0.72265625,-0.62469482421875,0.28564453125,0.0767822265625,-4569,-11768,447,-12,18,123
174560544,0.719970703125,-0.6219482421875,0.29559326171875,0.08575439453125,-4646,-11538,428,-11,16,116
174570527,0.717529296875,-0.61932373046875,0.3045654296875,0.0938720703125,-4685,-11224,459,-9,15,105
174580508,0.71533203125,-0.61688232421875,0.312255859375,0.100830078125,-4707,-10871,536,-9,14,90
174590492,0.7135009765625,-0.61492919921875,0.31854248046875,0.1063232421875,-4701,-10495,657,-8,13,73
174600474,0.7119140625,-0.6134033203125,0.32354736328125,0.1104736328125,-4707,-10130,804,-8,12,57
174610454,0.71063232421875,-0.61236572265625,0.32733154296875,0.1134033203125,-4681,-9784,939,-8,12,43
174620435,0.70953369140625,-0.61175537109375,0.3302001953125,0.11529541015625,-4634,-9454,1028,-8,11,31
174630427,0.70855712890625,-0.61151123046875,0.33233642578125,0.116455078125,-4549,-9155,1072,-8,11,23
174640408,0.7076416015625,-0.6114501953125,0.333984375,0.1171875,-4459,-8854,1092,-8,10,19
174650382,0.706787109375,-0.611572265625,0.33538818359375,0.1177978515625,-4368,-8584,1088,-8,9,17
174660364,0.70599365234375,-0.6116943359375,0.33673095703125,0.11846923828125,-4305,-8364,1115,-8,8,17
174670350,0.70513916015625,-0.61163330078125,0.33819580078125,0.1195068359375,-4278,-8191,1170,-9,7,21
174680332,0.70428466796875,-0.611328125,0.33990478515625,0.12115478515625,-4312,-8065,1215,-10,6,27
174690314,0.70330810546875,-0.61083984375,0.34197998046875,0.12359619140625,-4389,-7950,1278,-11,4,33
174700297,0.7021484375,-0.61016845703125,0.3443603515625,0.12689208984375,-4483,-7854,1309,-13,2,39
174710277,0.70086669921875,-0.60943603515625,0.34674072265625,0.1307373046875,-4597,-7759,1325,-16,0,42
174720258,0.699462890625,-0.60888671875,0.34893798828125,0.13494873046875,-4689,-7660,1358,-18,-3,41
174730245,0.6981201171875,-0.60858154296875,0.35052490234375,0.1390380859375,-4769,-7559,1390,-20,-5,36
174740228,0.69677734375,-0.6087646484375,0.35137939453125,0.142822265625,-4843,-7492,1388,-23,-8,28
174750211,0.69549560546875,-0.609619140625,0.3511962890625,0.14593505859375,-4878,-7440,1362,-25,-10,17
174760190,0.6943359375,-0.611083984375,0.3499755859375,0.14825439453125,-4879,-7432,1302,-26,-11,6
174770181,0.69329833984375,-0.6131591796875,0.3477783203125,0.149658203125,-4851,-7456,1229,-27,-12,-5
174780158,0.6923828125,-0.61566162109375,0.3448486328125,0.15032958984375,-4779,-7511,1126,-27,-12,-13
174790130,0.6915283203125,-0.6185302734375,0.34149169921875,0.150390625,-4729,-7570,1008,-27,-12,-19
174800110,0.69073486328125,-0.6214599609375,0.33782958984375,0.15008544921875,-4681,-7624,879,-26,-12,-23
174810092,0.69000244140625,-0.62445068359375,0.3341064453125,0.14935302734375,-4638,-7677,725,-25,-11,-25
174820076,0.68927001953125,-0.62744140625,0.3304443359375,0.1483154296875,-4588,-7681,580,-23,-9,-27
174830059,0.68865966796875,-0.63031005859375,0.32684326171875,0.14697265625,-4510,-7649,440,-20,-8,-28
174840042,0.68817138671875,-0.63299560546875,0.32342529296875,0.145263671875,-4395,-7579,330,-18,-6,-29
174850025,0.68780517578125,-0.635498046875,0.3201904296875,0.1431884765625,-4284,-7504,198,-14,-4,-29
174860005,0.68756103515625,-0.63775634765625,0.3172607421875,0.14093017578125,-4193,-7431,65,-11,-2,-28
174869996,0.68731689453125,-0.6397705078125,0.31475830078125,0.1385498046875,-4128,-7355,-78,-8,1,-26
174879979,0.68719482421875,-0.641357421875,0.31280517578125,0.13623046875,-4129,-7308,-205,-5,2,-22
174889956,0.68707275390625,-0.64263916015625,0.31146240234375,0.134033203125,-4151,-7255,-305,-2,4,-17
174899941,0.68695068359375,-0.6434326171875,0.31072998046875,0.1322021484375,-4217,-7199,-399,1,5,-12
174909920,0.68695068359375,-0.64385986328125,0.31060791015625,0.1307373046875,-4305,-7154,-468,3,6,-7
174919901,0.68695068359375,-0.6439208984375,0.31097412109375,0.1295166015625,-4416,-7109,-534,4,7,-3
174929891,0.68695068359375,-0.643798828125,0.3116455078125,0.1285400390625,-4533,-7053,-581,5,7,0
174939869,0.68695068359375,-0.6434326171875,0.3126220703125,0.12774658203125,-4628,-6977,-612,7,7,2
174949851,0.68707275390625,-0.6429443359375,0.3135986328125,0.1270751953125,-4712,-6890,-633,7,7,2
174959835,0.68719482421875,-0.6424560546875,0.3145751953125,0.12646484375,-4790,-6791,-642,7,6,2
174969817,0.68743896484375,-0.64190673828125,0.31549072265625,0.12579345703125,-4836,-6690,-629,7,6,1
174979797,0.6876220703125,-0.64141845703125,0.31622314453125,0.1251220703125,-4869,-6571,-603,7,5,0
174989784,0.6878662109375,-0.6409912109375,0.31689453125,0.12445068359375,-4887,-6479,-569,6,5,-1
174999768,0.6881103515625,-0.64068603515625,0.3173828125,0.123779296875,-4892,-6389,-516,6,4,-2
175009749,0.68829345703125,-0.640380859375,0.3177490234375,0.12322998046875,-4881,-6300,-462,4,4,-2
175019735,0.68841552734375,-0.64019775390625,0.318115234375,0.12274169921875,-4876,-6225,-392,3,3,-2
175029713,0.68841552734375,-0.6400146484375,0.31842041015625,0.12237548828125,-4880,-6211,-330,2,3,-2
175039695,0.6883544921875,-0.6400146484375,0.3187255859375,0.12213134765625,-4898,-6218,-266,0,3,-1
175049677,0.688232421875,-0.64007568359375,0.3189697265625,0.12200927734375,-4886,-6219,-216,-1,2,-1
175059659,0.68804931640625,-0.64019775390625,0.31915283203125,0.121826171875,-4867,-6227,-168,-2,2,-2
175069641,0.6878662109375,-0.64044189453125,0.3192138671875,0.12158203125,-4834,-6253,-117,-3,2,-2
175079622,0.6876220703125,-0.6407470703125,0.3192138671875,0.12127685546875,-4806,-6271,-72,-4,3,-4
175089601,0.6873779296875,-0.64117431640625,0.319091796875,0.120849609375,-4761,-6296,-29,-4,3,-5
175099583,0.6871337890625,-0.6416015625,0.3189697265625,0.12030029296875,-4735,-6337,22,-4,4,-5
175109568,0.6868896484375,-0.6419677734375,0.31890869140625,0.11968994140625,-4739,-6396,63,-4,4,-5
175119551,0.6866455078125,-0.642333984375,0.31890869140625,0.11907958984375,-4743,-6461,92,-3,5,-4
175129531,0.68646240234375,-0.64263916015625,0.31903076171875,0.1185302734375,-4730,-6519,121,-3,5,-3
175139514,0.68621826171875,-0.642822265625,0.3193359375,0.11798095703125,-4747,-6586,131,-2,6,-1
175149504,0.68603515625,-0.64288330078125,0.31976318359375,0.117431640625,-4761,-6647,134,-1,6,0
175159486,0.6859130859375,-0.64288330078125,0.32025146484375,0.11700439453125,-4794,-6673,149,0,6,0
175169466,0.68585205078125,-0.64276123046875,0.32080078125,0.116455078125,-4842,-6705,140,0,6,0
175179449,0.685791015625,-0.64263916015625,0.3212890625,0.115966796875,-4884,-6709,114,1,6,-1
175189435,0.68585205078125,-0.6424560546875,0.32171630859375,0.1153564453125,-4925,-6710,56,2,5,-2
175199417,0.6859130859375,-0.64227294921875,0.3221435546875,0.1148681640625,-4970,-6688,21,2,4,-2
175209403,0.68603515625,-0.64208984375,0.322509765625,0.1143798828125,-5008,-6680,-47,3,3,-1
175219389,0.6861572265625,-0.641845703125,0.32281494140625,0.11407470703125,-5024,-6646,-92,3,3,-1
175229364,0.686279296875,-0.6416015625,0.32318115234375,0.11376953125,-5037,-6601,-130,3,2,-1
175239350,0.6864013671875,-0.641357421875,0.32342529296875,0.11358642578125,-5030,-6570,-168,2,1,-1
175249328,0.6865234375,-0.64111328125,0.32366943359375,0.1134033203125,-5016,-6527,-199,2,1,-1
175259309,0.68658447265625,-0.6409912109375,0.32379150390625,0.11322021484375,-5006,-6486,-229,2,0,-1
175269293,0.6866455078125,-0.640869140625,0.323974609375,0.1131591796875,-5004,-6446,-272,1,0,-1
175279274,0.68670654296875,-0.64080810546875,0.32403564453125,0.11309814453125,-5001,-6404,-303,1,0,-2
175289258,0.6866455078125,-0.64080810546875,0.3240966796875,0.11309814453125,-4985,-6363,-345,0,-1,-1
175299244,0.68658447265625,-0.640869140625,0.32415771484375,0.1131591796875,-4971,-6344,-380,-1,-1,-1
175309225,0.6864013671875,-0.6409912109375,0.32415771484375,0.11328125,-4956,-6333,-423,-2,-2,-1
175319215,0.68621826171875,-0.64117431640625,0.32415771484375,0.113525390625,-4957,-6341,-460,-2,-1,0
175329191,0.68597412109375,-0.641357421875,0.32415771484375,0.11376953125,-4951,-6349,-477,-3,-2,0
175339181,0.68572998046875,-0.6416015625,0.32415771484375,0.114013671875,-4950,-6348,-508,-3,-2,0
175349167,0.6854248046875,-0.64190673828125,0.32415771484375,0.1142578125,-4949,-6359,-515,-4,-2,-1
175359129,0.68511962890625,-0.64227294921875,0.32403564453125,0.114501953125,-4934,-6358,-512,-4,-2,-1
175369113,0.684814453125,-0.64263916015625,0.3238525390625,0.11468505859375,-4931,-6375,-501,-4,-2,-2
175379094,0.68450927734375,-0.64300537109375,0.32373046875,0.11480712890625,-4931,-6394,-505,-4,-1,-2
175389077,0.6842041015625,-0.64337158203125,0.3236083984375,0.11492919921875,-4921,-6426,-503,-4,-1,-2
175399061,0.68389892578125,-0.6436767578125,0.323486328125,0.1151123046875,-4928,-6446,-499,-4,-2,-1
175409051,0.68365478515625,-0.6439208984375,0.32342529296875,0.11541748046875,-4943,-6467,-487,-4,-2,0
175419029,0.683349609375,-0.6441650390625,0.32342529296875,0.11572265625,-4964,-6486,-488,-3,-2,0
175429010,0.68310546875,-0.6444091796875,0.32342529296875,0.115966796875,-4972,-6481,-474,-3,-2,0
175438995,0.68292236328125,-0.64459228515625,0.32330322265625,0.1162109375,-4969,-6477,-458,-3,-2,-1
175448979,0.6827392578125,-0.6448974609375,0.32318115234375,0.1163330078125,-4959,-6471,-446,-3,-2,-2
175458954,0.68255615234375,-0.6451416015625,0.32293701171875,0.116455078125,-4941,-6461,-440,-3,-2,-2
175468938,0.682373046875,-0.6453857421875,0.32275390625,0.1165771484375,-4943,-6459,-433,-3,-2,-2
175478920,0.68218994140625,-0.6456298828125,0.3226318359375,0.11676025390625,-4943,-6463,-420,-3,-2,-1
175488904,0.6820068359375,-0.6458740234375,0.32244873046875,0.116943359375,-4930,-6469,-407,-3,-2,-1
175498885,0.68182373046875,-0.6461181640625,0.32232666015625,0.1171875,-4912,-6456,-399,-3,-2,-1
175508868,0.681640625,-0.6463623046875,0.3221435546875,0.11737060546875,-4891,-6431,-388,-3,-2,-1
175518850,0.68145751953125,-0.6466064453125,0.322021484375,0.11749267578125,-4868,-6407,-374,-4,-2,-1
175528832,0.6812744140625,-0.6468505859375,0.32183837890625,0.11773681640625,-4864,-6399,-370,-4,-2,-1
175538815,0.68096923828125,-0.64715576171875,0.32171630859375,0.11798095703125,-4856,-6393,-384,-4,-2,-1
175548801,0.68072509765625,-0.64739990234375,0.3216552734375,0.1182861328125,-4844,-6405,-395,-4,-2,0
175558784,0.680419921875,-0.64764404296875,0.32159423828125,0.11865234375,-4835,-6417,-387,-4,-2,1
175568769,0.68017578125,-0.64788818359375,0.3216552734375,0.1190185546875,-4832,-6438,-410,-4,-1,2
175578753,0.67987060546875,-0.6480712890625,0.32171630859375,0.11944580078125,-4846,-6468,-422,-4,-1,2
