subject,Joshua Spiesman
arm,left
label,1
hz,100.17559287584577
time,4.552007

timestamp_us,q0,q1,q2,q3,ax,ay,az,gx,gy,gz
187707452,0.72601318359375,-0.55859375,0.4002685546875,0.024658203125,-5206,-6014,594,13,0,-12
187717433,0.7271728515625,-0.5577392578125,0.3994140625,0.0230712890625,-5219,-5992,633,14,-3,-14
187727421,0.72857666015625,-0.55694580078125,0.39813232421875,0.02154541015625,-5207,-5970,644,15,-6,-15
187737405,0.7301025390625,-0.5560302734375,0.39666748046875,0.0201416015625,-5161,-5935,653,16,-9,-15
187747379,0.73175048828125,-0.55511474609375,0.3948974609375,0.0189208984375,-5098,-5890,671,16,-11,-15
187757362,0.7335205078125,-0.55419921875,0.39300537109375,0.0179443359375,-5044,-5852,704,15,-13,-14
187767350,0.7353515625,-0.55322265625,0.3909912109375,0.01708984375,-4977,-5826,722,15,-15,-13
187777330,0.73712158203125,-0.5523681640625,0.38897705078125,0.01654052734375,-4918,-5814,778,13,-16,-12
187787314,0.73870849609375,-0.5516357421875,0.38690185546875,0.016357421875,-4842,-5766,840,10,-17,-10
187797295,0.7401123046875,-0.55108642578125,0.38494873046875,0.0164794921875,-4718,-5689,916,6,-17,-8
187807275,0.7412109375,-0.55096435546875,0.383056640625,0.01702880859375,-4586,-5560,976,0,-16,-6
187817257,0.74176025390625,-0.55133056640625,0.38134765625,0.017822265625,-4449,-5398,1036,-6,-15,-6
187827244,0.74188232421875,-0.55230712890625,0.3797607421875,0.0189208984375,-4325,-5255,1034,-13,-14,-6
187837226,0.7413330078125,-0.5540771484375,0.378173828125,0.0201416015625,-4214,-5158,999,-20,-13,-7
187847208,0.74017333984375,-0.55657958984375,0.37664794921875,0.021484375,-4131,-5168,919,-28,-11,-8
187857187,0.7384033203125,-0.5599365234375,0.3751220703125,0.0228271484375,-4073,-5295,816,-35,-10,-10
187867179,0.73614501953125,-0.5638427734375,0.37359619140625,0.024169921875,-4051,-5498,666,-39,-8,-10
187877162,0.73345947265625,-0.5682373046875,0.37213134765625,0.0255126953125,-4064,-5765,492,-43,-7,-12
187887139,0.73040771484375,-0.572998046875,0.37060546875,0.02655029296875,-4084,-6060,313,-45,-6,-14
187897115,0.727294921875,-0.5780029296875,0.3690185546875,0.02740478515625,-4089,-6339,162,-46,-4,-16
187907098,0.7239990234375,-0.58319091796875,0.36724853515625,0.02783203125,-4089,-6628,20,-46,-3,-19
187917080,0.72076416015625,-0.58831787109375,0.36541748046875,0.0279541015625,-4108,-6914,-89,-44,-3,-20
187927062,0.71771240234375,-0.59320068359375,0.36358642578125,0.02789306640625,-4123,-7194,-191,-41,-2,-20
187937044,0.71478271484375,-0.5977783203125,0.36181640625,0.0277099609375,-4171,-7442,-293,-38,-2,-20
187947027,0.71209716796875,-0.60198974609375,0.36016845703125,0.0274658203125,-4244,-7663,-388,-34,-2,-18
187957010,0.70965576171875,-0.60577392578125,0.35870361328125,0.02728271484375,-4320,-7842,-486,-30,-2,-16
187966996,0.70751953125,-0.60906982421875,0.35736083984375,0.027099609375,-4379,-7968,-561,-26,-3,-14
187976981,0.70574951171875,-0.61187744140625,0.3560791015625,0.02703857421875,-4414,-8019,-635,-22,-3,-12
187986956,0.7042236328125,-0.61431884765625,0.35491943359375,0.02703857421875,-4420,-8032,-686,-19,-4,-10
187996939,0.70294189453125,-0.61639404296875,0.35382080078125,0.027099609375,-4432,-8020,-740,-16,-5,-8
188006923,0.701904296875,-0.6180419921875,0.35296630859375,0.02728271484375,-4463,-7973,-773,-13,-5,-7
188016908,0.7010498046875,-0.61944580078125,0.35223388671875,0.02764892578125,-4473,-7862,-773,-11,-5,-5
188026889,0.7003173828125,-0.62054443359375,0.35162353515625,0.02813720703125,-4467,-7722,-752,-9,-6,-3
188036878,0.69976806640625,-0.6214599609375,0.35113525390625,0.02862548828125,-4455,-7580,-714,-9,-5,-2
188046854,0.69915771484375,-0.622314453125,0.3507080078125,0.02923583984375,-4461,-7427,-663,-9,-5,-2
188056837,0.6986083984375,-0.62310791015625,0.350341796875,0.0299072265625,-4450,-7287,-629,-9,-5,-1
188066823,0.697998046875,-0.6239013671875,0.35009765625,0.03070068359375,-4451,-7178,-604,-9,-5,0
188076803,0.69732666015625,-0.62469482421875,0.34991455078125,0.0316162109375,-4431,-7079,-566,-10,-5,1
188086786,0.6966552734375,-0.62554931640625,0.34967041015625,0.0325927734375,-4401,-6981,-490,-11,-5,1
188096773,0.6959228515625,-0.62652587890625,0.349365234375,0.0335693359375,-4336,-6900,-412,-13,-5,1
188106758,0.69512939453125,-0.6275634765625,0.34893798828125,0.0345458984375,-4295,-6844,-329,-14,-6,0
188116740,0.69427490234375,-0.62872314453125,0.348388671875,0.03558349609375,-4261,-6831,-244,-15,-6,0
188126714,0.69342041015625,-0.62994384765625,0.34783935546875,0.0367431640625,-4262,-6874,-184,-16,-6,0
188136697,0.6925048828125,-0.63116455078125,0.34722900390625,0.03802490234375,-4286,-6958,-130,-17,-7,1
188149995,0.6915283203125,-0.6324462890625,0.3466796875,0.03948974609375,-4309,-7074,-100,-18,-8,2
188156663,0.69061279296875,-0.63372802734375,0.3460693359375,0.04107666015625,-4328,-7188,-91,-19,-9,3
188166645,0.68963623046875,-0.63507080078125,0.34527587890625,0.0426025390625,-4351,-7347,-81,-19,-9,2
188176627,0.68878173828125,-0.636474609375,0.34423828125,0.04412841796875,-4363,-7529,-78,-19,-11,0
188186609,0.68804931640625,-0.63800048828125,0.3427734375,0.0452880859375,-4386,-7736,-105,-18,-12,-4
188196590,0.6873779296875,-0.6396484375,0.34088134765625,0.04608154296875,-4414,-7954,-139,-16,-13,-9
188206573,0.68695068359375,-0.64141845703125,0.33831787109375,0.04632568359375,-4439,-8200,-189,-15,-14,-16
188216562,0.686767578125,-0.643310546875,0.335205078125,0.04608154296875,-4467,-8498,-251,-13,-15,-21
188226543,0.68670654296875,-0.645263671875,0.3316650390625,0.0452880859375,-4469,-8847,-320,-10,-16,-26
188236526,0.6868896484375,-0.64715576171875,0.3277587890625,0.0440673828125,-4463,-9218,-408,-8,-16,-29
188246510,0.68731689453125,-0.6490478515625,0.3233642578125,0.042236328125,-4397,-9560,-500,-5,-17,-35
188256490,0.68792724609375,-0.6510009765625,0.318359375,0.0396728515625,-4244,-9745,-621,-2,-17,-43
188266478,0.68878173828125,-0.65325927734375,0.31231689453125,0.03582763671875,-4013,-9802,-671,2,-17,-58
188276457,0.69000244140625,-0.65576171875,0.304931640625,0.0303955078125,-3761,-9794,-670,5,-16,-75
188286437,0.69146728515625,-0.65838623046875,0.29638671875,0.02337646484375,-3494,-9786,-603,9,-14,-90
188296429,0.69317626953125,-0.66107177734375,0.286865234375,0.0150146484375,-3249,-9808,-510,13,-12,-101
188306410,0.6949462890625,-0.66351318359375,0.2769775390625,0.00579833984375,-3008,-9840,-400,16,-10,-106
188316392,0.69683837890625,-0.66558837890625,0.26715087890625,-0.00360107421875,-2780,-9852,-296,19,-9,-105
188326369,0.69879150390625,-0.6671142578125,0.2578125,-0.0128173828125,-2582,-9833,-253,22,-8,-100
188336352,0.7008056640625,-0.66815185546875,0.24908447265625,-0.02154541015625,-2375,-9771,-249,25,-7,-92
188346334,0.70281982421875,-0.66864013671875,0.24102783203125,-0.02960205078125,-2163,-9676,-261,27,-7,-85
188356317,0.7049560546875,-0.66864013671875,0.2335205078125,-0.037109375,-1954,-9603,-238,29,-7,-77
188366299,0.707275390625,-0.66815185546875,0.2266845703125,-0.0439453125,-1790,-9578,-187,32,-7,-69
188376282,0.7098388671875,-0.6671142578125,0.220458984375,-0.04998779296875,-1675,-9594,-91,34,-8,-60
188386264,0.71270751953125,-0.66546630859375,0.21484375,-0.0552978515625,-1601,-9659,43,37,-8,-52
188396242,0.7156982421875,-0.66339111328125,0.20977783203125,-0.06011962890625,-1533,-9716,147,39,-8,-46
188406235,0.71893310546875,-0.66107177734375,0.20489501953125,-0.0645751953125,-1494,-9754,259,41,-9,-44
188416216,0.72216796875,-0.6585693359375,0.20001220703125,-0.06915283203125,-1456,-9794,320,42,-9,-47
188426206,0.725341796875,-0.65606689453125,0.19464111328125,-0.07415771484375,-1433,-9852,388,43,-9,-53
188436188,0.728515625,-0.6536865234375,0.18865966796875,-0.07977294921875,-1420,-9933,445,44,-9,-61
188446174,0.7314453125,-0.6514892578125,0.18206787109375,-0.08624267578125,-1413,-10033,537,43,-9,-70
188456146,0.734130859375,-0.64947509765625,0.1746826171875,-0.09344482421875,-1378,-10101,631,42,-8,-80
188466125,0.73651123046875,-0.64764404296875,0.1666259765625,-0.10162353515625,-1336,-10165,738,41,-8,-91
188476108,0.738525390625,-0.64605712890625,0.15777587890625,-0.11065673828125,-1280,-10203,827,39,-7,-101
188486093,0.74005126953125,-0.64483642578125,0.148193359375,-0.12060546875,-1172,-10252,911,37,-6,-112
188496075,0.74114990234375,-0.64373779296875,0.13812255859375,-0.13140869140625,-1047,-10315,1003,35,-5,-120
188506057,0.74176025390625,-0.64276123046875,0.127685546875,-0.142578125,-914,-10380,1087,33,-4,-124
188516041,0.74200439453125,-0.641845703125,0.11712646484375,-0.15411376953125,-777,-10447,1163,31,-3,-127
188526023,0.741943359375,-0.640869140625,0.106689453125,-0.16552734375,-653,-10507,1225,30,-3,-127
188536005,0.74169921875,-0.63983154296875,0.096435546875,-0.17669677734375,-538,-10539,1277,29,-3,-125
188545995,0.7412109375,-0.638671875,0.0863037109375,-0.18768310546875,-425,-10568,1311,29,-3,-125
188555978,0.7406005859375,-0.63739013671875,0.07611083984375,-0.1986083984375,-291,-10563,1363,29,-4,-126
188565952,0.73968505859375,-0.63604736328125,0.06561279296875,-0.2095947265625,-118,-10495,1407,29,-4,-129
188575935,0.73858642578125,-0.63458251953125,0.0548095703125,-0.22088623046875,75,-10417,1447,29,-5,-133
188585918,0.7371826171875,-0.63287353515625,0.04364013671875,-0.23260498046875,290,-10286,1492,30,-4,-138
188595899,0.73553466796875,-0.63092041015625,0.0321044921875,-0.2447509765625,518,-10129,1535,31,-3,-143
188605883,0.7335205078125,-0.62872314453125,0.020263671875,-0.25726318359375,741,-10000,1555,31,-3,-147
188615865,0.7313232421875,-0.6263427734375,0.00836181640625,-0.26983642578125,938,-9874,1573,32,-3,-149
188625848,0.72894287109375,-0.6236572265625,-0.0035400390625,-0.28228759765625,1139,-9761,1592,33,-3,-148
188635831,0.72637939453125,-0.62078857421875,-0.01531982421875,-0.2945556640625,1353,-9600,1616,33,-2,-146
188645811,0.72369384765625,-0.61767578125,-0.02691650390625,-0.30670166015625,1557,-9398,1653,33,-2,-146
188655792,0.72076416015625,-0.61431884765625,-0.03857421875,-0.31884765625,1780,-9148,1673,33,-1,-147
188665784,0.717529296875,-0.6107177734375,-0.05023193359375,-0.3311767578125,1995,-8911,1711,33,1,-149
188675766,0.7139892578125,-0.60687255859375,-0.0618896484375,-0.34368896484375,2210,-8707,1742,33,2,-151
188685747,0.710205078125,-0.602783203125,-0.073486328125,-0.35614013671875,2402,-8547,1777,33,3,-151
188695731,0.706298828125,-0.59857177734375,-0.084716796875,-0.36834716796875,2596,-8437,1803,33,4,-148
188705708,0.70233154296875,-0.59423828125,-0.095458984375,-0.380126953125,2802,-8274,1835,32,5,-143
188715691,0.6983642578125,-0.58978271484375,-0.10589599609375,-0.39154052734375,2999,-8069,1851,32,5,-140
188725673,0.6942138671875,-0.58514404296875,-0.1160888671875,-0.4027099609375,3192,-7830,1868,31,6,-139
188735654,0.68988037109375,-0.58038330078125,-0.1260986328125,-0.41387939453125,3363,-7615,1869,31,8,-139
188745636,0.68536376953125,-0.57537841796875,-0.1361083984375,-0.4251708984375,3556,-7432,1881,31,9,-140
188755623,0.6805419921875,-0.5701904296875,-0.14593505859375,-0.4364013671875,3721,-7283,1894,31,10,-141
188765605,0.67559814453125,-0.5648193359375,-0.1556396484375,-0.44757080078125,3863,-7105,1912,31,11,-141
188775587,0.67041015625,-0.559326171875,-0.16534423828125,-0.45867919921875,3989,-6884,1912,31,11,-141
188785569,0.6650390625,-0.5535888671875,-0.1749267578125,-0.4697265625,4112,-6627,1919,31,12,-141
188795551,0.659423828125,-0.547607421875,-0.18463134765625,-0.4808349609375,4236,-6335,1932,31,12,-143
188805535,0.6534423828125,-0.5413818359375,-0.1944580078125,-0.49212646484375,4324,-6046,1955,31,13,-146
188815516,0.647216796875,-0.53485107421875,-0.2042236328125,-0.50341796875,4413,-5790,1964,31,14,-147
188825499,0.64080810546875,-0.5281982421875,-0.21380615234375,-0.51446533203125,4502,-5576,1986,31,13,-146
188835480,0.63446044921875,-0.52154541015625,-0.22308349609375,-0.52508544921875,4575,-5378,2010,31,13,-141
188845464,0.62835693359375,-0.5150146484375,-0.23187255859375,-0.53497314453125,4642,-5204,2038,30,13,-134
188855449,0.6224365234375,-0.5086669921875,-0.24029541015625,-0.544189453125,4738,-5028,2058,30,12,-128
188865435,0.61669921875,-0.50238037109375,-0.24835205078125,-0.55291748046875,4858,-4846,2089,30,11,-123
188875417,0.61090087890625,-0.49615478515625,-0.2562255859375,-0.56121826171875,4989,-4621,2117,29,11,-121
188885400,0.60491943359375,-0.4898681640625,-0.26416015625,-0.569580078125,5102,-4322,2152,28,10,-123
188895376,0.59832763671875,-0.4832763671875,-0.2723388671875,-0.57818603515625,5143,-3938,2192,27,10,-128
188905358,0.5909423828125,-0.47637939453125,-0.28094482421875,-0.58734130859375,5138,-3518,2230,26,10,-136
188915339,0.58270263671875,-0.4691162109375,-0.28985595703125,-0.5970458984375,5125,-3154,2271,24,9,-144
188925323,0.57391357421875,-0.46185302734375,-0.298828125,-0.606689453125,5162,-2920,2299,23,7,-146
188935306,0.56500244140625,-0.454833984375,-0.3074951171875,-0.61590576171875,5241,-2764,2345,21,6,-142
188945293,0.55633544921875,-0.44818115234375,-0.315673828125,-0.62451171875,5316,-2600,2378,19,5,-135
188955273,0.54791259765625,-0.44195556640625,-0.32342529296875,-0.63238525390625,5366,-2357,2396,18,3,-127
188965256,0.53948974609375,-0.43585205078125,-0.33099365234375,-0.63995361328125,5370,-2040,2416,17,1,-125
188975241,0.5306396484375,-0.4296875,-0.338623046875,-0.6474609375,5346,-1684,2425,16,0,-127
188985226,0.52117919921875,-0.4232177734375,-0.34649658203125,-0.6551513671875,5284,-1283,2426,15,0,-133
188995210,0.510986328125,-0.4163818359375,-0.35455322265625,-0.6632080078125,5208,-908,2436,14,-1,-140
189005187,0.49993896484375,-0.40924072265625,-0.3629150390625,-0.6715087890625,5137,-564,2425,13,-1,-146
189015177,0.48828125,-0.40179443359375,-0.371337890625,-0.679931640625,5119,-283,2439,12,-1,-150
189025161,0.47637939453125,-0.39447021484375,-0.37945556640625,-0.6881103515625,5128,-75,2458,11,-2,-149
189035130,0.46478271484375,-0.38739013671875,-0.38714599609375,-0.69573974609375,5158,138,2463,10,-3,-142
189045113,0.45367431640625,-0.38067626953125,-0.39422607421875,-0.70281982421875,5186,364,2479,8,-3,-134
189055093,0.4429931640625,-0.374267578125,-0.40087890625,-0.70928955078125,5161,617,2473,7,-3,-126
189065076,0.4326171875,-0.3680419921875,-0.4071044921875,-0.71533203125,5106,863,2466,7,-3,-121
189075060,0.42254638671875,-0.3619384765625,-0.4130859375,-0.72100830078125,5028,1108,2461,7,-3,-117
189085043,0.4124755859375,-0.35577392578125,-0.41888427734375,-0.7265625,4951,1317,2477,6,-3,-117
189095025,0.40240478515625,-0.34967041015625,-0.42449951171875,-0.73193359375,4851,1506,2497,6,-4,-115
189105008,0.3924560546875,-0.34356689453125,-0.42999267578125,-0.73699951171875,4748,1678,2508,7,-4,-112
189114995,0.38275146484375,-0.337646484375,-0.43524169921875,-0.74169921875,4615,1862,2514,7,-4,-108
189124978,0.37322998046875,-0.33184814453125,-0.4404296875,-0.74609375,4479,2073,2527,8,-5,-105
189134954,0.3638916015625,-0.32598876953125,-0.445556640625,-0.750244140625,4330,2314,2569,8,-6,-102
189144938,0.3546142578125,-0.3201904296875,-0.45062255859375,-0.754150390625,4201,2550,2594,9,-6,-100
189154919,0.345458984375,-0.31451416015625,-0.45556640625,-0.7578125,4081,2771,2623,9,-7,-98
189164902,0.33642578125,-0.30889892578125,-0.46044921875,-0.76123046875,3969,3009,2655,9,-7,-95
189174885,0.32763671875,-0.30352783203125,-0.46514892578125,-0.76434326171875,3851,3257,2672,9,-8,-90
189184867,0.3192138671875,-0.29840087890625,-0.4696044921875,-0.7672119140625,3705,3506,2690,9,-9,-85
189194849,0.31121826171875,-0.29364013671875,-0.473876953125,-0.76971435546875,3567,3725,2705,9,-10,-79
189204832,0.30377197265625,-0.289306640625,-0.47796630859375,-0.77178955078125,3435,3974,2724,10,-11,-72
189214816,0.29669189453125,-0.28521728515625,-0.4818115234375,-0.773681640625,3329,4253,2745,9,-12,-67
189224798,0.28973388671875,-0.28143310546875,-0.48553466796875,-0.77532958984375,3230,4562,2767,8,-13,-63
189234784,0.28277587890625,-0.27777099609375,-0.4892578125,-0.77691650390625,3116,4885,2787,8,-14,-62
189244769,0.27581787109375,-0.27423095703125,-0.49285888671875,-0.77838134765625,3028,5176,2788,7,-15,-61
189254750,0.26898193359375,-0.2708740234375,-0.496337890625,-0.77972412109375,2929,5466,2780,6,-16,-58
189264733,0.262451171875,-0.26776123046875,-0.49969482421875,-0.7808837890625,2827,5752,2774,6,-16,-53
189274707,0.2564697265625,-0.26519775390625,-0.50274658203125,-0.78179931640625,2702,6023,2775,5,-17,-44
189284691,0.25146484375,-0.2633056640625,-0.50537109375,-0.7823486328125,2580,6288,2777,5,-17,-32
189294673,0.24774169921875,-0.2623291015625,-0.5074462890625,-0.78253173828125,2476,6511,2788,4,-19,-17
189304658,0.24542236328125,-0.262451171875,-0.50897216796875,-0.7822265625,2394,6706,2807,3,-19,0
189314636,0.24462890625,-0.263671875,-0.509765625,-0.78155517578125,2334,6876,2832,1,-20,16
189324614,0.2451171875,-0.265869140625,-0.50994873046875,-0.780517578125,2294,7026,2837,-1,-20,30
189334596,0.24676513671875,-0.26898193359375,-0.50958251953125,-0.77923583984375,2291,7114,2849,-3,-20,43
189344578,0.24945068359375,-0.27288818359375,-0.508544921875,-0.77764892578125,2309,7128,2845,-5,-20,54
189354565,0.253173828125,-0.2774658203125,-0.5069580078125,-0.77587890625,2324,7075,2827,-7,-19,65
189364546,0.25787353515625,-0.28277587890625,-0.50469970703125,-0.77386474609375,2348,6984,2803,-9,-19,76
189374529,0.2635498046875,-0.28863525390625,-0.50189208984375,-0.7716064453125,2377,6850,2787,-10,-18,86
189384511,0.27008056640625,-0.29522705078125,-0.49853515625,-0.76904296875,2403,6678,2764,-12,-18,96
189394494,0.27752685546875,-0.30230712890625,-0.49456787109375,-0.76617431640625,2419,6473,2727,-13,-18,105
189404478,0.2857666015625,-0.30999755859375,-0.4901123046875,-0.76300048828125,2459,6222,2695,-14,-17,114
189414461,0.2947998046875,-0.3182373046875,-0.48504638671875,-0.75933837890625,2490,5925,2645,-15,-18,124
189424449,0.3046875,-0.32708740234375,-0.47943115234375,-0.7552490234375,2522,5560,2594,-16,-17,132
189434432,0.3154296875,-0.33648681640625,-0.4732666015625,-0.7506103515625,2594,5179,2530,-16,-18,142
189444414,0.3270263671875,-0.3465576171875,-0.46649169921875,-0.74530029296875,2673,4770,2480,-16,-19,152
189454398,0.33935546875,-0.3570556640625,-0.459228515625,-0.7392578125,2765,4366,2419,-15,-19,159
189464375,0.35205078125,-0.36798095703125,-0.4515380859375,-0.732666015625,2873,3947,2339,-15,-20,164
189474356,0.36474609375,-0.37896728515625,-0.44366455078125,-0.72564697265625,2994,3522,2258,-15,-21,164
189484338,0.37713623046875,-0.3897705078125,-0.435791015625,-0.71832275390625,3131,3082,2173,-14,-22,161
189494321,0.38897705078125,-0.4002685546875,-0.42803955078125,-0.71087646484375,3293,2614,2111,-14,-22,154
189504304,0.400390625,-0.41046142578125,-0.4202880859375,-0.70330810546875,3475,2131,2045,-13,-22,149
189514285,0.41143798828125,-0.42059326171875,-0.41253662109375,-0.69549560546875,3653,1646,1960,-13,-23,149
189524269,0.422607421875,-0.4307861328125,-0.404541015625,-0.68719482421875,3832,1195,1890,-13,-24,151
189534256,0.433837890625,-0.4412841796875,-0.39617919921875,-0.6783447265625,4001,807,1826,-13,-26,156
189544240,0.4451904296875,-0.4517822265625,-0.38763427734375,-0.6689453125,4191,411,1747,-12,-27,157
189554222,0.45648193359375,-0.4622802734375,-0.37884521484375,-0.65911865234375,4413,-80,1693,-12,-27,158
189564206,0.4678955078125,-0.47283935546875,-0.36962890625,-0.6488037109375,4689,-720,1601,-12,-27,160
189574191,0.4796142578125,-0.483642578125,-0.35980224609375,-0.63775634765625,4976,-1372,1519,-12,-26,165
189584174,0.49163818359375,-0.49444580078125,-0.34930419921875,-0.6259765625,5229,-1913,1451,-12,-26,172
189594157,0.5037841796875,-0.5052490234375,-0.33831787109375,-0.6136474609375,5408,-2302,1407,-12,-25,177
189604128,0.5157470703125,-0.5157470703125,-0.3270263671875,-0.6009521484375,5513,-2588,1368,-13,-25,179
189614110,0.52734375,-0.52587890625,-0.31549072265625,-0.58807373046875,5603,-2927,1304,-14,-24,177
189624092,0.53851318359375,-0.53570556640625,-0.3038330078125,-0.57513427734375,5690,-3369,1232,-14,-22,173
189634075,0.54925537109375,-0.54510498046875,-0.29193115234375,-0.5621337890625,5809,-3999,1120,-15,-20,170
189644058,0.55987548828125,-0.55426025390625,-0.2796630859375,-0.548828125,5941,-4744,1002,-14,-18,170
189654040,0.57049560546875,-0.56304931640625,-0.26690673828125,-0.5350341796875,6020,-5391,885,-13,-16,172
189664022,0.5810546875,-0.57147216796875,-0.25384521484375,-0.52099609375,6010,-5836,809,-12,-15,174
189674004,0.59112548828125,-0.57916259765625,-0.24090576171875,-0.50701904296875,5913,-6102,754,-11,-13,171
189683992,0.6007080078125,-0.58624267578125,-0.228271484375,-0.49334716796875,5822,-6342,714,-10,-12,165
189693976,0.60968017578125,-0.5927734375,-0.2158203125,-0.47998046875,5756,-6639,680,-9,-10,159
189703951,0.6182861328125,-0.59869384765625,-0.20361328125,-0.466796875,5751,-7046,657,-8,-8,155
189713935,0.626708984375,-0.6041259765625,-0.191162109375,-0.45361328125,5769,-7529,637,-6,-5,154
189723919,0.63507080078125,-0.6090087890625,-0.178466796875,-0.4404296875,5805,-7924,632,-4,-2,156
189733902,0.6434326171875,-0.61322021484375,-0.1656494140625,-0.42730712890625,5798,-8128,651,-3,1,156
189743886,0.6514892578125,-0.61669921875,-0.15283203125,-0.41461181640625,5705,-8159,666,0,5,153
189753865,0.6593017578125,-0.61944580078125,-0.14031982421875,-0.40240478515625,5545,-8140,698,1,8,149
189763848,0.66680908203125,-0.62158203125,-0.1279296875,-0.39068603515625,5319,-8181,738,3,11,145
189773831,0.67413330078125,-0.62335205078125,-0.1153564453125,-0.3790283203125,5074,-8279,752,3,12,145
189783813,0.681396484375,-0.6248779296875,-0.10247802734375,-0.3670654296875,4830,-8363,806,4,13,148
189793796,0.68865966796875,-0.62603759765625,-0.08929443359375,-0.35479736328125,4621,-8372,883,4,14,153
189803784,0.69573974609375,-0.62689208984375,-0.07586669921875,-0.3424072265625,4422,-8257,993,4,15,155
189813766,0.70245361328125,-0.62738037109375,-0.0626220703125,-0.33026123046875,4215,-8080,1112,3,16,152
189823747,0.7086181640625,-0.62762451171875,-0.04962158203125,-0.31866455078125,4019,-7970,1227,1,18,146
189833725,0.71417236328125,-0.627685546875,-0.0367431640625,-0.30755615234375,3802,-7984,1320,-1,19,141
189843707,0.71923828125,-0.6278076171875,-0.02386474609375,-0.296630859375,3547,-8118,1354,-4,20,139
189853688,0.723876953125,-0.62799072265625,-0.0106201171875,-0.2855224609375,3275,-8242,1398,-6,21,141
189863670,0.72821044921875,-0.62811279296875,0.0028076171875,-0.274169921875,3020,-8256,1449,-9,21,143
189873655,0.73211669921875,-0.62823486328125,0.016357421875,-0.26275634765625,2788,-8186,1505,-12,21,144
189883636,0.73553466796875,-0.6282958984375,0.02978515625,-0.25164794921875,2546,-8201,1571,-14,22,140
189893618,0.7384033203125,-0.62847900390625,0.04315185546875,-0.24078369140625,2287,-8346,1634,-17,23,136
189903599,0.74072265625,-0.62860107421875,0.05633544921875,-0.230224609375,2029,-8576,1685,-19,24,133
189913582,0.74267578125,-0.62872314453125,0.06951904296875,-0.21978759765625,1746,-8798,1735,-21,24,130
189923566,0.744140625,-0.62890625,0.08251953125,-0.20965576171875,1457,-8983,1761,-23,25,128
189933550,0.7452392578125,-0.6290283203125,0.09521484375,-0.19976806640625,1139,-9106,1795,-24,25,122
189943530,0.74591064453125,-0.62908935546875,0.10760498046875,-0.19036865234375,834,-9197,1801,-25,25,117
189953515,0.74627685546875,-0.62921142578125,0.11944580078125,-0.181396484375,543,-9248,1790,-26,25,112
189963497,0.746337890625,-0.6292724609375,0.130859375,-0.1728515625,258,-9296,1768,-27,25,107
189973477,0.74603271484375,-0.62939453125,0.1419677734375,-0.16455078125,-27,-9349,1740,-27,24,103
189983461,0.74566650390625,-0.62945556640625,0.15283203125,-0.1563720703125,-317,-9439,1733,-27,24,101
189993440,0.7451171875,-0.62933349609375,0.16351318359375,-0.148193359375,-605,-9563,1746,-27,23,101
190003432,0.74462890625,-0.6290283203125,0.17425537109375,-0.13970947265625,-903,-9657,1754,-26,22,103
190013415,0.744140625,-0.62841796875,0.18505859375,-0.1309814453125,-1208,-9709,1731,-25,21,106
190023398,0.74359130859375,-0.62750244140625,0.196044921875,-0.12188720703125,-1512,-9709,1658,-23,20,109
190033374,0.74310302734375,-0.6263427734375,0.20703125,-0.11248779296875,-1809,-9678,1556,-22,19,111
190043360,0.74261474609375,-0.62481689453125,0.21795654296875,-0.10296630859375,-2068,-9623,1467,-20,18,112
190053342,0.74212646484375,-0.623046875,0.22882080078125,-0.09326171875,-2294,-9539,1367,-18,18,114
190063324,0.74163818359375,-0.6209716796875,0.2396240234375,-0.0833740234375,-2497,-9469,1297,-17,17,116
190073307,0.7410888671875,-0.61859130859375,0.25048828125,-0.07330322265625,-2674,-9412,1262,-16,16,119
190083293,0.740478515625,-0.615966796875,0.26129150390625,-0.06298828125,-2830,-9359,1236,-15,16,121
190093273,0.73980712890625,-0.613037109375,0.272216796875,-0.05242919921875,-2984,-9295,1218,-15,15,124
190103256,0.739013671875,-0.60986328125,0.2830810546875,-0.04180908203125,-3122,-9225,1192,-14,15,126
190113243,0.73809814453125,-0.60650634765625,0.2939453125,-0.03118896484375,-3261,-9141,1122,-14,16,126
190123224,0.73687744140625,-0.60308837890625,0.30462646484375,-0.02069091796875,-3403,-9069,1052,-14,16,125
190133208,0.73553466796875,-0.599609375,0.315185546875,-0.010498046875,-3562,-9005,960,-13,17,122
190143187,0.73394775390625,-0.59613037109375,0.325439453125,-0.000732421875,-3720,-8941,862,-13,18,119
190153179,0.732177734375,-0.5927734375,0.3353271484375,0.008544921875,-3861,-8875,753,-13,18,114
190163160,0.730224609375,-0.5894775390625,0.3448486328125,0.0172119140625,-3980,-8804,653,-12,19,108
190173131,0.7281494140625,-0.58636474609375,0.35394287109375,0.0252685546875,-4096,-8733,538,-12,20,103
190183113,0.72589111328125,-0.58343505859375,0.36273193359375,0.03277587890625,-4194,-8674,411,-12,22,98
190193097,0.72357177734375,-0.58056640625,0.37127685546875,0.03973388671875,-4284,-8591,310,-11,23,94
190203078,0.7210693359375,-0.57781982421875,0.37945556640625,0.04620361328125,-4378,-8490,243,-12,23,90
190213062,0.71856689453125,-0.57513427734375,0.387451171875,0.05224609375,-4473,-8393,164,-11,24,86
190223044,0.71588134765625,-0.57269287109375,0.39520263671875,0.057861328125,-4566,-8304,61,-12,26,82
190233026,0.71307373046875,-0.57037353515625,0.4027099609375,0.06298828125,-4652,-8208,-29,-12,26,78
190243008,0.710205078125,-0.56829833984375,0.409912109375,0.06781005859375,-4723,-8099,-146,-11,27,74
190252995,0.707275390625,-0.5662841796875,0.41693115234375,0.07220458984375,-4785,-7986,-238,-12,27,71
190262980,0.70428466796875,-0.56439208984375,0.4237060546875,0.0762939453125,-4824,-7881,-324,-11,27,68
190272959,0.7012939453125,-0.56268310546875,0.43023681640625,0.08001708984375,-4857,-7766,-379,-12,28,65
190282941,0.69830322265625,-0.56109619140625,0.4365234375,0.08349609375,-4896,-7652,-420,-12,28,61
190292922,0.6953125,-0.55963134765625,0.4425048828125,0.0865478515625,-4935,-7548,-462,-12,28,57
190302904,0.69232177734375,-0.55841064453125,0.4481201171875,0.0892333984375,-4956,-7446,-491,-12,28,52
190312889,0.689453125,-0.55743408203125,0.453369140625,0.09130859375,-4986,-7354,-506,-11,29,46
190322869,0.68658447265625,-0.5567626953125,0.45819091796875,0.0928955078125,-5003,-7259,-538,-11,29,40
190332850,0.68389892578125,-0.556396484375,0.4625244140625,0.09375,-5039,-7173,-562,-10,29,33
190342834,0.6812744140625,-0.5562744140625,0.4664306640625,0.0941162109375,-5098,-7096,-591,-9,29,26
190352816,0.67877197265625,-0.556396484375,0.46990966796875,0.09393310546875,-5140,-7048,-621,-9,29,21
190362798,0.6763916015625,-0.55670166015625,0.47308349609375,0.0933837890625,-5182,-6997,-652,-8,28,16
190372784,0.67413330078125,-0.55718994140625,0.4759521484375,0.0924072265625,-5206,-6953,-689,-7,28,13
190382770,0.6719970703125,-0.5577392578125,0.478515625,0.0911865234375,-5239,-6918,-736,-6,27,9
190392751,0.6700439453125,-0.55841064453125,0.4808349609375,0.089599609375,-5251,-6895,-786,-5,27,6
190402735,0.66827392578125,-0.5589599609375,0.48291015625,0.08782958984375,-5262,-6885,-808,-3,26,4
190412711,0.6666259765625,-0.55950927734375,0.48492431640625,0.08587646484375,-5258,-6886,-823,-1,26,3
190422695,0.66510009765625,-0.55987548828125,0.48687744140625,0.08380126953125,-5262,-6852,-806,0,25,3
190432675,0.66375732421875,-0.5601806640625,0.48876953125,0.0816650390625,-5277,-6805,-779,1,25,2
190442652,0.66253662109375,-0.560302734375,0.4906005859375,0.0794677734375,-5313,-6740,-762,3,24,1
190452639,0.6614990234375,-0.56036376953125,0.4923095703125,0.07708740234375,-5365,-6689,-732,4,24,-1
190462616,0.66064453125,-0.56036376953125,0.493896484375,0.07452392578125,-5410,-6650,-720,6,24,-3
190472598,0.65985107421875,-0.5604248046875,0.49530029296875,0.07177734375,-5441,-6600,-699,7,24,-5
190482580,0.65924072265625,-0.5604248046875,0.49652099609375,0.06890869140625,-5471,-6565,-667,8,23,-7
190492563,0.6588134765625,-0.56036376953125,0.49761962890625,0.06585693359375,-5489,-6541,-638,10,22,-8
190502545,0.658447265625,-0.5601806640625,0.4986572265625,0.06268310546875,-5474,-6538,-594,11,22,-8
190512529,0.658203125,-0.55987548828125,0.49969482421875,0.0594482421875,-5446,-6536,-550,12,22,-7
190522510,0.65814208984375,-0.55938720703125,0.50079345703125,0.0562744140625,-5429,-6495,-490,14,22,-6
190532493,0.6580810546875,-0.5587158203125,0.50189208984375,0.0531005859375,-5415,-6424,-428,15,22,-6
190542475,0.65814208984375,-0.557861328125,0.50311279296875,0.0499267578125,-5418,-6349,-364,16,22,-6
190552458,0.6583251953125,-0.55694580078125,0.50421142578125,0.0467529296875,-5441,-6268,-299,16,22,-6
190562437,0.658447265625,-0.55596923828125,0.50537109375,0.04345703125,-5469,-6192,-280,17,22,-8
190572430,0.65863037109375,-0.55511474609375,0.50640869140625,0.0400390625,-5485,-6149,-269,18,22,-9
190582412,0.6588134765625,-0.55419921875,0.5074462890625,0.03643798828125,-5496,-6122,-278,19,22,-10
190592394,0.65899658203125,-0.55328369140625,0.5084228515625,0.0328369140625,-5510,-6120,-290,19,22,-10
190602370,0.6591796875,-0.55224609375,0.50946044921875,0.02911376953125,-5503,-6101,-276,19,23,-9
190612352,0.659423828125,-0.55108642578125,0.5106201171875,0.0255126953125,-5519,-6069,-258,20,24,-9
190622338,0.6595458984375,-0.5499267578125,0.51190185546875,0.0218505859375,-5547,-6002,-245,20,24,-9
190632319,0.65966796875,-0.5487060546875,0.51324462890625,0.01824951171875,-5573,-5929,-252,20,25,-9
190642302,0.65972900390625,-0.5474853515625,0.51458740234375,0.0146484375,-5617,-5893,-272,20,25,-9
190652285,0.65972900390625,-0.5462646484375,0.51593017578125,0.01104736328125,-5663,-5885,-306,19,25,-9
190662267,0.65966796875,-0.5450439453125,0.517333984375,0.00750732421875,-5711,-5872,-356,19,24,-8
190672256,0.65966796875,-0.54376220703125,0.51873779296875,0.0040283203125,-5740,-5879,-409,20,24,-8
190682238,0.65960693359375,-0.54241943359375,0.52020263671875,0.0006103515625,-5741,-5908,-483,20,24,-6
190692222,0.65960693359375,-0.54095458984375,0.52178955078125,-0.002685546875,-5733,-5937,-546,21,24,-4
190702206,0.65966796875,-0.53924560546875,0.5234375,-0.00592041015625,-5726,-5924,-590,22,24,-3
190712192,0.6597900390625,-0.537353515625,0.525146484375,-0.009033203125,-5739,-5929,-616,22,23,-2
190722176,0.65997314453125,-0.53533935546875,0.52691650390625,-0.0120849609375,-5784,-5923,-649,24,23,-1
190732158,0.66015625,-0.53326416015625,0.52874755859375,-0.01507568359375,-5845,-5936,-720,24,22,-1
190742131,0.660400390625,-0.5311279296875,0.530517578125,-0.01800537109375,-5875,-5921,-788,25,21,0
190752114,0.66070556640625,-0.5289306640625,0.5322265625,-0.02099609375,-5876,-5898,-820,25,21,-1
190762091,0.6610107421875,-0.5267333984375,0.53387451171875,-0.02392578125,-5886,-5905,-878,26,20,-1
190772082,0.661376953125,-0.52447509765625,0.53546142578125,-0.02691650390625,-5883,-5948,-958,26,20,0
190782062,0.66180419921875,-0.5220947265625,0.53717041015625,-0.02978515625,-5888,-5967,-1014,27,19,2
190792044,0.66229248046875,-0.51959228515625,0.538818359375,-0.032470703125,-5895,-5985,-1081,28,18,3
190802026,0.662841796875,-0.51690673828125,0.54058837890625,-0.03515625,-5902,-5971,-1133,29,18,4
190812008,0.6634521484375,-0.51416015625,0.542236328125,-0.03778076171875,-5900,-5964,-1166,29,17,4
190821996,0.66412353515625,-0.51141357421875,0.5438232421875,-0.04046630859375,-5900,-5945,-1183,30,17,3
190831980,0.664794921875,-0.5086669921875,0.54534912109375,-0.043212890625,-5907,-5929,-1196,30,16,2
190841957,0.66546630859375,-0.50604248046875,0.5467529296875,-0.04608154296875,-5892,-5904,-1212,30,16,1
190851941,0.66619873046875,-0.50341796875,0.54803466796875,-0.04901123046875,-5879,-5881,-1198,31,16,-1
190861919,0.66693115234375,-0.50079345703125,0.5491943359375,-0.05206298828125,-5851,-5865,-1184,31,16,-1
190871902,0.66766357421875,-0.49822998046875,0.5504150390625,-0.05511474609375,-5820,-5857,-1176,31,16,-1
190881886,0.6683349609375,-0.49560546875,0.55157470703125,-0.05816650390625,-5806,-5821,-1159,31,16,-1
190891868,0.6690673828125,-0.49298095703125,0.55279541015625,-0.0611572265625,-5790,-5782,-1137,31,15,-1
190901850,0.66973876953125,-0.4903564453125,0.553955078125,-0.06414794921875,-5782,-5729,-1104,31,15,-1
190911832,0.67041015625,-0.48779296875,0.5550537109375,-0.06707763671875,-5781,-5656,-1062,30,15,-2
190921816,0.67108154296875,-0.4853515625,0.5560302734375,-0.07012939453125,-5781,-5599,-1035,29,15,-4
190931798,0.671630859375,-0.483154296875,0.556884765625,-0.07318115234375,-5764,-5560,-1014,28,15,-6
190941784,0.67218017578125,-0.48101806640625,0.5576171875,-0.0762939453125,-5730,-5523,-973,28,14,-6
190951768,0.6727294921875,-0.47894287109375,0.558349609375,-0.07928466796875,-5677,-5487,-926,27,14,-6
190961751,0.6732177734375,-0.4769287109375,0.55902099609375,-0.08221435546875,-5638,-5476,-846,26,13,-5
190971733,0.67376708984375,-0.474853515625,0.5596923828125,-0.0849609375,-5644,-5495,-787,25,13,-4
190981710,0.67425537109375,-0.4727783203125,0.560546875,-0.0875244140625,-5665,-5526,-743,24,13,-3
190991693,0.6746826171875,-0.4705810546875,0.5614013671875,-0.08984375,-5682,-5578,-707,23,13,-1
191001679,0.67510986328125,-0.4683837890625,0.56243896484375,-0.09210205078125,-5687,-5620,-680,23,14,0
191011657,0.6754150390625,-0.4661865234375,0.56353759765625,-0.0941162109375,-5683,-5667,-661,22,14,2
191021641,0.6756591796875,-0.46392822265625,0.56475830078125,-0.0960693359375,-5675,-5711,-650,21,14,3
191031622,0.6759033203125,-0.461669921875,0.5660400390625,-0.09783935546875,-5654,-5750,-650,20,14,5
191041606,0.67608642578125,-0.4593505859375,0.56744384765625,-0.09954833984375,-5635,-5791,-622,20,15,7
191051588,0.67620849609375,-0.4569091796875,0.5689697265625,-0.10101318359375,-5620,-5780,-570,19,15,8
191061570,0.67633056640625,-0.4544677734375,0.57049560546875,-0.10247802734375,-5607,-5774,-515,18,15,8
191071554,0.6763916015625,-0.45208740234375,0.57208251953125,-0.10394287109375,-5605,-5767,-490,18,16,7
191081536,0.67633056640625,-0.44989013671875,0.5736083984375,-0.10546875,-5599,-5787,-463,17,16,6
191091519,0.67620849609375,-0.44781494140625,0.5750732421875,-0.1070556640625,-5612,-5824,-468,17,16,5
191101501,0.676025390625,-0.44580078125,0.5765380859375,-0.10870361328125,-5645,-5870,-490,16,16,4
191111484,0.67578125,-0.4439697265625,0.57794189453125,-0.1103515625,-5692,-5935,-505,16,16,4
191121464,0.675537109375,-0.442138671875,0.57928466796875,-0.11212158203125,-5755,-5997,-533,16,16,3
191131449,0.67529296875,-0.4404296875,0.58050537109375,-0.1138916015625,-5812,-6052,-557,16,15,1
191141435,0.67498779296875,-0.43878173828125,0.58172607421875,-0.11578369140625,-5879,-6080,-567,16,15,0
191151419,0.6748046875,-0.437255859375,0.582763671875,-0.11773681640625,-5937,-6104,-588,16,15,-2
191161401,0.674560546875,-0.435791015625,0.58367919921875,-0.11981201171875,-5984,-6114,-616,16,14,-3
191171377,0.67431640625,-0.4344482421875,0.58453369140625,-0.1219482421875,-6004,-6101,-641,16,13,-4
191181360,0.6741943359375,-0.43310546875,0.585205078125,-0.1240234375,-6008,-6096,-650,16,12,-4
191191341,0.67413330078125,-0.43170166015625,0.58587646484375,-0.1260986328125,-5988,-6081,-655,17,12,-4
191201326,0.6741943359375,-0.43023681640625,0.58648681640625,-0.12799072265625,-5967,-6062,-652,17,11,-2
191211307,0.67431640625,-0.42864990234375,0.587158203125,-0.12969970703125,-5957,-6030,-639,17,10,-1
191221293,0.674560546875,-0.4268798828125,0.5877685546875,-0.13128662109375,-5960,-6007,-628,17,9,1
191231273,0.6749267578125,-0.425048828125,0.58837890625,-0.1326904296875,-5944,-5971,-605,18,7,3
191241257,0.67535400390625,-0.42303466796875,0.58905029296875,-0.1339111328125,-5935,-5959,-603,18,7,4
191251245,0.6759033203125,-0.42095947265625,0.58966064453125,-0.135009765625,-5906,-5949,-602,18,6,5
191261226,0.67645263671875,-0.41888427734375,0.5902099609375,-0.1361083984375,-5867,-5924,-612,19,5,6
191271210,0.6771240234375,-0.416748046875,0.59075927734375,-0.13714599609375,-5809,-5896,-608,19,5,6
191281189,0.67779541015625,-0.41473388671875,0.59112548828125,-0.1383056640625,-5761,-5863,-576,19,4,5
191291181,0.678466796875,-0.41265869140625,0.59149169921875,-0.1395263671875,-5756,-5805,-522,19,4,3
191301162,0.67926025390625,-0.41064453125,0.5916748046875,-0.1409912109375,-5765,-5759,-468,20,4,1
191311142,0.679931640625,-0.4088134765625,0.591796875,-0.14251708984375,-5784,-5728,-440,20,4,-1
191321114,0.68060302734375,-0.40704345703125,0.591796875,-0.144287109375,-5797,-5690,-418,20,4,-3
191331098,0.68121337890625,-0.40545654296875,0.59173583984375,-0.14617919921875,-5766,-5663,-405,20,4,-4
191341078,0.6817626953125,-0.4039306640625,0.5916748046875,-0.148193359375,-5711,-5617,-407,20,4,-5
191351062,0.6822509765625,-0.40252685546875,0.591552734375,-0.150146484375,-5633,-5580,-392,19,4,-5
191361051,0.6827392578125,-0.40106201171875,0.5914306640625,-0.1522216796875,-5549,-5547,-366,19,5,-5
191371025,0.6832275390625,-0.39959716796875,0.59136962890625,-0.1541748046875,-5490,-5524,-318,19,5,-4
191381009,0.68365478515625,-0.39813232421875,0.59136962890625,-0.156005859375,-5428,-5505,-257,18,5,-3
191390996,0.68402099609375,-0.39666748046875,0.59149169921875,-0.15777587890625,-5395,-5503,-203,17,6,-3
191400979,0.68438720703125,-0.3951416015625,0.5916748046875,-0.159423828125,-5365,-5517,-159,17,7,-1
191410964,0.68463134765625,-0.39361572265625,0.5919189453125,-0.16094970703125,-5349,-5575,-123,15,7,0
191420940,0.684814453125,-0.39202880859375,0.5924072265625,-0.162353515625,-5340,-5643,-117,15,8,1
191430922,0.6849365234375,-0.3905029296875,0.5928955078125,-0.16363525390625,-5328,-5727,-120,14,8,3
191440906,0.68499755859375,-0.388916015625,0.59356689453125,-0.164794921875,-5330,-5794,-113,14,9,4
191450886,0.68499755859375,-0.38726806640625,0.5943603515625,-0.16595458984375,-5333,-5842,-85,13,10,4
191460868,0.6849365234375,-0.3856201171875,0.59515380859375,-0.1671142578125,-5349,-5886,-55,13,11,4
191470852,0.68475341796875,-0.384033203125,0.59600830078125,-0.16827392578125,-5348,-5906,-18,12,11,4
191480836,0.68450927734375,-0.38250732421875,0.596923828125,-0.16949462890625,-5354,-5915,-2,12,12,3
191490817,0.68414306640625,-0.381103515625,0.597900390625,-0.17083740234375,-5345,-5924,4,11,13,2
191500801,0.68365478515625,-0.37982177734375,0.598876953125,-0.1722412109375,-5349,-5934,8,10,14,1
191510784,0.68310546875,-0.37860107421875,0.599853515625,-0.1737060546875,-5347,-5938,-3,10,15,0
191520769,0.68243408203125,-0.37738037109375,0.6009521484375,-0.1751708984375,-5349,-5951,-28,10,15,1
191530753,0.6817626953125,-0.376220703125,0.60205078125,-0.17657470703125,-5367,-5956,-24,9,15,0
191540734,0.6810302734375,-0.375,0.60321044921875,-0.177978515625,-5361,-5951,-31,9,16,1
191550710,0.68017578125,-0.37384033203125,0.60443115234375,-0.1793212890625,-5368,-5955,-34,8,16,1
191560696,0.6793212890625,-0.3726806640625,0.60577392578125,-0.1806640625,-5376,-5986,-59,8,17,2
191570678,0.67840576171875,-0.37152099609375,0.607177734375,-0.181884765625,-5377,-5995,-77,7,17,3
191580660,0.67742919921875,-0.370361328125,0.60858154296875,-0.1829833984375,-5373,-6008,-97,7,17,3
191590642,0.67645263671875,-0.369140625,0.61004638671875,-0.18408203125,-5379,-6019,-112,6,18,4
191600624,0.675537109375,-0.367919921875,0.611572265625,-0.18505859375,-5385,-6016,-103,6,18,4
191610608,0.674560546875,-0.36676025390625,0.613037109375,-0.18603515625,-5408,-6006,-120,6,18,4
191620590,0.67352294921875,-0.3656005859375,0.61456298828125,-0.18701171875,-5421,-5991,-114,5,17,4
191630572,0.67254638671875,-0.364501953125,0.615966796875,-0.18804931640625,-5434,-5990,-109,5,17,3
191640556,0.6715087890625,-0.36346435546875,0.61737060546875,-0.1890869140625,-5449,-5981,-105,5,17,2
191650542,0.67047119140625,-0.36248779296875,0.6187744140625,-0.1900634765625,-5478,-5964,-108,4,17,2
191660519,0.66943359375,-0.36163330078125,0.6201171875,-0.1910400390625,-5488,-5968,-112,4,17,2
191670502,0.66845703125,-0.3607177734375,0.62139892578125,-0.19189453125,-5514,-5959,-117,4,16,2
191680485,0.66754150390625,-0.35980224609375,0.62274169921875,-0.19268798828125,-5546,-5955,-125,3,16,3
191690466,0.66656494140625,-0.35894775390625,0.6240234375,-0.193359375,-5576,-5947,-139,3,15,3
191700450,0.66571044921875,-0.35809326171875,0.625244140625,-0.1939697265625,-5622,-5927,-132,2,14,3
191710437,0.66485595703125,-0.3572998046875,0.62646484375,-0.19451904296875,-5674,-5914,-132,2,14,2
191720417,0.66400146484375,-0.35662841796875,0.6275634765625,-0.19500732421875,-5715,-5896,-127,1,13,2
191730400,0.6632080078125,-0.35595703125,0.628662109375,-0.1954345703125,-5775,-5908,-137,1,12,2
191740377,0.66241455078125,-0.35546875,0.629638671875,-0.19580078125,-5824,-5900,-150,0,11,1
191750359,0.66168212890625,-0.3551025390625,0.63055419921875,-0.1961669921875,-5870,-5882,-137,-1,10,0
191760350,0.6610107421875,-0.35479736328125,0.63134765625,-0.19647216796875,-5922,-5835,-127,-2,9,-1
191770319,0.66033935546875,-0.35467529296875,0.6319580078125,-0.19677734375,-5971,-5783,-122,-2,8,-3
191780305,0.65972900390625,-0.35479736328125,0.6324462890625,-0.19708251953125,-6044,-5753,-125,-3,6,-5
191790287,0.6591796875,-0.35504150390625,0.63275146484375,-0.19732666015625,-6100,-5730,-140,-4,5,-6
191800267,0.65869140625,-0.35552978515625,0.6329345703125,-0.1976318359375,-6145,-5714,-152,-4,3,-7
191810256,0.6583251953125,-0.35614013671875,0.6329345703125,-0.19775390625,-6198,-5701,-148,-5,1,-7
191820233,0.6580810546875,-0.35675048828125,0.63287353515625,-0.19775390625,-6254,-5686,-167,-5,0,-7
191830217,0.657958984375,-0.35748291015625,0.63262939453125,-0.197509765625,-6308,-5694,-189,-6,-2,-6
191840194,0.657958984375,-0.35821533203125,0.63238525390625,-0.1971435546875,-6363,-5725,-205,-7,-4,-6
191850186,0.6580810546875,-0.35888671875,0.63201904296875,-0.196533203125,-6418,-5761,-233,-7,-6,-3
191860174,0.658447265625,-0.35943603515625,0.63165283203125,-0.19549560546875,-6475,-5804,-271,-7,-8,0
191870145,0.65899658203125,-0.3597412109375,0.63134765625,-0.194091796875,-6517,-5847,-307,-8,-10,4
191880122,0.65972900390625,-0.35986328125,0.631103515625,-0.192138671875,-6554,-5899,-349,-9,-12,9
191890104,0.66064453125,-0.3597412109375,0.63092041015625,-0.189697265625,-6584,-5925,-383,-9,-14,13
191900088,0.66180419921875,-0.359375,0.630859375,-0.18670654296875,-6599,-5953,-412,-10,-16,18
191910070,0.6630859375,-0.35882568359375,0.63079833984375,-0.18328857421875,-6598,-5946,-430,-11,-17,22
191920054,0.66448974609375,-0.3582763671875,0.6307373046875,-0.17962646484375,-6583,-5915,-442,-12,-18,23
191930036,0.6658935546875,-0.3577880859375,0.63055419921875,-0.17578125,-6543,-5856,-436,-14,-20,22
191940016,0.66729736328125,-0.35760498046875,0.63018798828125,-0.17205810546875,-6464,-5761,-416,-14,-21,19
191950000,0.66864013671875,-0.3577880859375,0.62957763671875,-0.1685791015625,-6374,-5657,-392,-15,-22,15
191959990,0.669921875,-0.3585205078125,0.62872314453125,-0.16534423828125,-6275,-5531,-386,-16,-22,10
191969966,0.67108154296875,-0.3597412109375,0.62750244140625,-0.16259765625,-6172,-5415,-369,-17,-23,4
191979952,0.67205810546875,-0.36151123046875,0.62603759765625,-0.16021728515625,-6081,-5302,-358,-18,-23,-3
191989928,0.67291259765625,-0.36376953125,0.624267578125,-0.15826416015625,-6004,-5223,-365,-18,-24,-8
191999910,0.67376708984375,-0.366455078125,0.62225341796875,-0.1566162109375,-5932,-5162,-374,-18,-24,-13
192009894,0.67449951171875,-0.369384765625,0.62005615234375,-0.15521240234375,-5865,-5132,-399,-19,-25,-15
192019878,0.67510986328125,-0.37249755859375,0.6177978515625,-0.1539306640625,-5808,-5118,-426,-19,-25,-16
192029857,0.67578125,-0.37567138671875,0.615478515625,-0.15252685546875,-5764,-5135,-443,-20,-26,-16
192039841,0.67645263671875,-0.3787841796875,0.61322021484375,-0.1510009765625,-5728,-5164,-474,-20,-26,-14
192049822,0.67718505859375,-0.3817138671875,0.61102294921875,-0.149169921875,-5692,-5195,-494,-20,-26,-11
192059805,0.677978515625,-0.3843994140625,0.6090087890625,-0.14703369140625,-5668,-5246,-501,-20,-26,-7
192069789,0.67877197265625,-0.38677978515625,0.60723876953125,-0.14453125,-5643,-5289,-521,-21,-26,-2
192079772,0.6795654296875,-0.38897705078125,0.6055908203125,-0.14166259765625,-5621,-5332,-524,-22,-26,2
192089760,0.68048095703125,-0.39080810546875,0.60418701171875,-0.13836669921875,-5610,-5353,-520,-22,-26,6
192099744,0.68133544921875,-0.39251708984375,0.6029052734375,-0.13482666015625,-5601,-5379,-516,-23,-26,9
192109720,0.68218994140625,-0.39404296875,0.601806640625,-0.13104248046875,-5597,-5399,-511,-23,-25,11
192119702,0.6829833984375,-0.3955078125,0.60076904296875,-0.127197265625,-5600,-5421,-515,-24,-25,12
192129683,0.68365478515625,-0.39697265625,0.59979248046875,-0.123291015625,-5599,-5451,-524,-24,-24,12
192139669,0.68426513671875,-0.39849853515625,0.598876953125,-0.1195068359375,-5608,-5478,-534,-24,-24,11
192152995,0.684814453125,-0.400146484375,0.59783935546875,-0.11578369140625,-5629,-5480,-521,-25,-23,9
192159636,0.68524169921875,-0.402099609375,0.59674072265625,-0.1124267578125,-5644,-5489,-515,-25,-22,5
192169617,0.685546875,-0.40423583984375,0.595458984375,-0.10943603515625,-5652,-5497,-526,-25,-21,1
192179603,0.68572998046875,-0.40667724609375,0.59405517578125,-0.1068115234375,-5659,-5497,-536,-25,-21,-3
192189582,0.685791015625,-0.409423828125,0.592529296875,-0.10455322265625,-5665,-5499,-545,-24,-20,-7
192199564,0.68585205078125,-0.41229248046875,0.5908203125,-0.10260009765625,-5655,-5501,-541,-24,-20,-9
192209547,0.685791015625,-0.415283203125,0.589111328125,-0.100830078125,-5650,-5519,-549,-24,-19,-11
192219531,0.6856689453125,-0.41827392578125,0.58734130859375,-0.09918212890625,-5653,-5542,-552,-23,-18,-12
192229511,0.68560791015625,-0.4212646484375,0.5855712890625,-0.09765625,-5643,-5557,-548,-23,-18,-12
192239495,0.68548583984375,-0.4241943359375,0.5838623046875,-0.09619140625,-5626,-5578,-537,-22,-17,-12
192249478,0.685302734375,-0.42706298828125,0.5821533203125,-0.0947265625,-5605,-5594,-538,-22,-17,-11
192259459,0.6851806640625,-0.4298095703125,0.58056640625,-0.09332275390625,-5586,-5628,-525,-21,-16,-10
