subject,Joshua Spiesman
arm,left
label,2
hz,100.17185947591719
time,5.869912

timestamp_us,q0,q1,q2,q3,ax,ay,az,gx,gy,gz
20202261,0.68707275390625,0.566650390625,-0.4547119140625,0.00665283203125,5326,6370,-206,5,8,-3
20212240,0.68731689453125,0.56707763671875,-0.45379638671875,0.0074462890625,5336,6385,-198,5,8,-2
20222233,0.68756103515625,0.56744384765625,-0.4530029296875,0.00823974609375,5339,6406,-198,4,8,-1
20232216,0.68780517578125,0.56768798828125,-0.45220947265625,0.00909423828125,5357,6411,-193,4,8,-1
20242206,0.6881103515625,0.5679931640625,-0.451416015625,0.00994873046875,5368,6434,-186,4,8,-1
20252187,0.68841552734375,0.5682373046875,-0.45062255859375,0.0107421875,5361,6454,-194,3,8,-1
20262173,0.688720703125,0.5684814453125,-0.4498291015625,0.011474609375,5355,6449,-211,3,9,-1
20272153,0.6890869140625,0.5687255859375,-0.44891357421875,0.01214599609375,5339,6440,-207,2,8,-2
20282123,0.689453125,0.56903076171875,-0.4478759765625,0.01275634765625,5285,6410,-209,2,9,-3
20292106,0.68988037109375,0.5693359375,-0.44683837890625,0.01318359375,5242,6365,-206,2,8,-4
20302090,0.69024658203125,0.5697021484375,-0.44580078125,0.01361083984375,5192,6309,-215,2,8,-5
20312073,0.6905517578125,0.570068359375,-0.44482421875,0.0140380859375,5161,6251,-216,2,8,-4
20322055,0.69085693359375,0.57037353515625,-0.4439697265625,0.014404296875,5112,6221,-217,2,6,-3
20332038,0.6910400390625,0.5706787109375,-0.4432373046875,0.01483154296875,5057,6179,-232,2,6,-2
20342020,0.69122314453125,0.5709228515625,-0.4427490234375,0.01531982421875,5017,6132,-226,3,5,-1
20352010,0.6912841796875,0.5711669921875,-0.4422607421875,0.015869140625,4969,6090,-234,3,4,0
20361995,0.69122314453125,0.5714111328125,-0.44195556640625,0.016357421875,4941,6071,-236,3,3,0
20371980,0.691162109375,0.5716552734375,-0.4417724609375,0.016845703125,4933,6062,-245,4,2,1
20381954,0.69097900390625,0.5718994140625,-0.44171142578125,0.017333984375,4939,6043,-243,4,1,1
20391936,0.69073486328125,0.5721435546875,-0.4417724609375,0.017822265625,4973,6056,-247,4,0,1
20401918,0.6904296875,0.57244873046875,-0.44183349609375,0.018310546875,5017,6069,-237,5,0,1
20411901,0.69012451171875,0.57275390625,-0.44189453125,0.01873779296875,5067,6090,-251,5,-1,1
20421887,0.689697265625,0.5731201171875,-0.4420166015625,0.019287109375,5128,6125,-252,6,-1,1
20431867,0.68927001953125,0.57354736328125,-0.442138671875,0.0198974609375,5200,6159,-262,6,0,1
20441849,0.68890380859375,0.573974609375,-0.44219970703125,0.0205078125,5253,6194,-266,7,0,2
20451831,0.6884765625,0.57440185546875,-0.4422607421875,0.02130126953125,5300,6210,-270,7,1,1
20461813,0.68804931640625,0.5748291015625,-0.4422607421875,0.0220947265625,5336,6243,-276,8,2,2
20471797,0.6876220703125,0.57537841796875,-0.442138671875,0.02301025390625,5373,6261,-295,8,3,1
20481784,0.687255859375,0.57598876953125,-0.44189453125,0.02386474609375,5386,6272,-294,9,3,0
20491770,0.6868896484375,0.57666015625,-0.44158935546875,0.02471923828125,5397,6261,-306,9,4,-1
20501752,0.68646240234375,0.57745361328125,-0.44110107421875,0.02557373046875,5388,6242,-325,9,4,-1
20511735,0.68609619140625,0.57830810546875,-0.4405517578125,0.02642822265625,5375,6222,-354,10,5,-2
20521713,0.68572998046875,0.57916259765625,-0.43994140625,0.02734375,5336,6198,-378,10,5,-2
20531696,0.68524169921875,0.580078125,-0.43939208984375,0.02825927734375,5313,6171,-401,11,6,-2
20541677,0.68475341796875,0.5810546875,-0.4388427734375,0.02935791015625,5300,6154,-425,11,6,-1
20551667,0.68426513671875,0.58197021484375,-0.43829345703125,0.030517578125,5279,6137,-457,12,6,0
20561647,0.6837158203125,0.58294677734375,-0.437744140625,0.03167724609375,5278,6143,-488,12,6,0
20571629,0.68310546875,0.583984375,-0.437255859375,0.032958984375,5286,6131,-529,13,6,0
20581612,0.68243408203125,0.58502197265625,-0.436767578125,0.0343017578125,5284,6120,-560,13,6,0
20591597,0.6817626953125,0.586181640625,-0.43621826171875,0.03564453125,5287,6107,-612,14,6,0
20601580,0.6810302734375,0.58734130859375,-0.4356689453125,0.0369873046875,5288,6107,-643,14,7,0
20611562,0.6802978515625,0.58856201171875,-0.43511962890625,0.0384521484375,5302,6097,-663,15,7,0
20621543,0.67950439453125,0.5897216796875,-0.43450927734375,0.03985595703125,5316,6100,-672,15,7,0
20631525,0.6787109375,0.59100341796875,-0.4339599609375,0.0413818359375,5340,6108,-689,16,7,0
20641510,0.6778564453125,0.59222412109375,-0.43341064453125,0.04302978515625,5374,6113,-701,16,7,1
20651493,0.67706298828125,0.59344482421875,-0.43280029296875,0.044677734375,5393,6116,-717,16,8,1
20661477,0.67626953125,0.5947265625,-0.43212890625,0.04644775390625,5442,6154,-732,17,8,1
20671459,0.67547607421875,0.595947265625,-0.4315185546875,0.0482177734375,5528,6235,-747,16,9,1
20681449,0.6748046875,0.59698486328125,-0.43084716796875,0.05023193359375,5665,6358,-749,16,10,3
20691431,0.6741943359375,0.59783935546875,-0.43035888671875,0.05242919921875,5808,6469,-784,15,11,6
20701413,0.67376708984375,0.59844970703125,-0.429931640625,0.05499267578125,5962,6558,-830,14,13,8
20711394,0.67340087890625,0.598876953125,-0.42950439453125,0.0577392578125,6081,6628,-891,12,15,10
20721372,0.6732177734375,0.59918212890625,-0.42901611328125,0.060546875,6130,6654,-941,11,16,10
20731355,0.6732177734375,0.599365234375,-0.42828369140625,0.06341552734375,6118,6640,-967,10,18,9
20741336,0.67333984375,0.599609375,-0.4273681640625,0.06610107421875,6049,6598,-951,9,19,8
20751322,0.67364501953125,0.599853515625,-0.4261474609375,0.06866455078125,5947,6517,-921,8,20,5
20761305,0.674072265625,0.60015869140625,-0.4246826171875,0.07110595703125,5822,6423,-869,8,21,4
20771293,0.67449951171875,0.6004638671875,-0.423095703125,0.0733642578125,5687,6322,-795,8,21,2
20781270,0.6749267578125,0.60089111328125,-0.4215087890625,0.0755615234375,5551,6223,-726,9,20,2
20791255,0.67529296875,0.60125732421875,-0.41998291015625,0.0777587890625,5434,6131,-673,9,19,3
20801244,0.675537109375,0.60162353515625,-0.4185791015625,0.080078125,5326,6041,-621,10,19,5
20811226,0.67559814453125,0.60205078125,-0.41741943359375,0.08245849609375,5241,5960,-588,11,17,6
20821208,0.67559814453125,0.60247802734375,-0.41632080078125,0.0848388671875,5173,5903,-547,12,16,7
20831188,0.67535400390625,0.60308837890625,-0.41534423828125,0.08721923828125,5123,5868,-555,13,15,6
20841182,0.675048828125,0.603759765625,-0.4144287109375,0.0894775390625,5071,5846,-562,14,14,6
20851163,0.674560546875,0.60455322265625,-0.41351318359375,0.09161376953125,5025,5835,-593,14,13,6
20861142,0.67401123046875,0.60540771484375,-0.4127197265625,0.09368896484375,5006,5841,-630,14,12,5
20871117,0.67333984375,0.6063232421875,-0.41204833984375,0.09564208984375,4999,5873,-672,15,10,6
20881100,0.672607421875,0.60723876953125,-0.4114990234375,0.09759521484375,5023,5920,-724,15,10,7
20891083,0.6717529296875,0.60809326171875,-0.4111328125,0.09954833984375,5074,5954,-779,15,8,8
20901065,0.67083740234375,0.60894775390625,-0.410888671875,0.10150146484375,5125,6017,-851,14,7,8
20911050,0.66986083984375,0.60968017578125,-0.41094970703125,0.10345458984375,5190,6083,-908,14,6,10
20921031,0.6688232421875,0.61029052734375,-0.41107177734375,0.10540771484375,5242,6156,-970,13,5,11
20931014,0.6678466796875,0.61083984375,-0.411376953125,0.1072998046875,5268,6226,-1018,12,5,12
20940996,0.66693115234375,0.61126708984375,-0.41180419921875,0.10906982421875,5285,6261,-1038,11,3,13
20950984,0.666015625,0.61163330078125,-0.41229248046875,0.11077880859375,5305,6298,-1052,10,3,12
20960962,0.6651611328125,0.61199951171875,-0.4127197265625,0.11224365234375,5298,6302,-1047,9,2,11
20970946,0.66436767578125,0.61236572265625,-0.41314697265625,0.113525390625,5298,6277,-1038,8,1,10
20980924,0.6636962890625,0.6126708984375,-0.41351318359375,0.1146240234375,5305,6274,-1036,8,1,9
20990906,0.66302490234375,0.6129150390625,-0.41387939453125,0.1156005859375,5337,6286,-1034,7,0,8
21000888,0.662353515625,0.6131591796875,-0.41436767578125,0.11651611328125,5398,6295,-1049,6,0,9
21010877,0.66168212890625,0.61328125,-0.4149169921875,0.11737060546875,5431,6297,-1052,5,-1,9
21020851,0.66107177734375,0.6134033203125,-0.41552734375,0.11822509765625,5452,6290,-1061,5,-1,9
21030835,0.6605224609375,0.61346435546875,-0.4161376953125,0.11895751953125,5442,6269,-1061,4,-1,9
21040817,0.6600341796875,0.613525390625,-0.4166259765625,0.11956787109375,5430,6214,-1055,4,-1,7
21050801,0.6595458984375,0.6136474609375,-0.41717529296875,0.1199951171875,5419,6163,-1029,3,-2,6
21060784,0.6590576171875,0.61383056640625,-0.41754150390625,0.1202392578125,5415,6116,-998,3,-3,4
21070767,0.65863037109375,0.614013671875,-0.41790771484375,0.12030029296875,5403,6081,-969,3,-4,3
21080756,0.658203125,0.61419677734375,-0.41827392578125,0.1202392578125,5427,6054,-939,2,-5,2
21090737,0.65771484375,0.6143798828125,-0.4188232421875,0.12017822265625,5473,6052,-922,2,-6,3
21100716,0.6572265625,0.61456298828125,-0.41943359375,0.1201171875,5507,6049,-913,2,-6,3
21110698,0.65667724609375,0.6146240234375,-0.420166015625,0.12005615234375,5537,6044,-898,2,-7,4
21120681,0.6561279296875,0.61468505859375,-0.42095947265625,0.11993408203125,5549,6039,-883,2,-8,4
21130664,0.65557861328125,0.61468505859375,-0.42181396484375,0.1197509765625,5567,6031,-860,1,-8,4
21140641,0.65509033203125,0.61468505859375,-0.42266845703125,0.1195068359375,5592,6021,-824,1,-9,4
21150625,0.654541015625,0.61474609375,-0.423583984375,0.11907958984375,5620,6021,-816,0,-10,3
21160607,0.654052734375,0.61474609375,-0.4244384765625,0.1185302734375,5660,6041,-791,0,-10,2
21170593,0.653564453125,0.61474609375,-0.42535400390625,0.11785888671875,5692,6056,-779,-1,-11,2
21180571,0.65313720703125,0.61474609375,-0.42626953125,0.11712646484375,5760,6091,-770,-1,-11,1
21190555,0.6527099609375,0.6146240234375,-0.42724609375,0.1163330078125,5828,6135,-789,-2,-12,1
21200542,0.65240478515625,0.614501953125,-0.42822265625,0.11541748046875,5899,6180,-804,-3,-12,1
21210520,0.652099609375,0.6142578125,-0.42919921875,0.11444091796875,5954,6231,-816,-4,-12,1
21220502,0.6519775390625,0.61395263671875,-0.43023681640625,0.11328125,6001,6268,-806,-6,-13,0
21230486,0.65191650390625,0.6136474609375,-0.43109130859375,0.11199951171875,6023,6299,-809,-7,-12,-2
21240467,0.65203857421875,0.61322021484375,-0.43194580078125,0.1104736328125,6034,6312,-792,-9,-13,-2
21250451,0.6522216796875,0.6126708984375,-0.43280029296875,0.10888671875,6033,6325,-799,-10,-13,-2
21260437,0.65252685546875,0.612060546875,-0.43365478515625,0.10723876953125,6047,6328,-790,-11,-13,-2
21270422,0.6529541015625,0.6112060546875,-0.43463134765625,0.1055908203125,6053,6326,-784,-13,-13,-1
21280410,0.6534423828125,0.6102294921875,-0.4356689453125,0.1038818359375,6062,6316,-780,-15,-13,0
21290381,0.654052734375,0.60906982421875,-0.43670654296875,0.10223388671875,6085,6294,-785,-16,-12,0
21300364,0.65478515625,0.6077880859375,-0.43780517578125,0.1005859375,6096,6252,-783,-17,-12,0
21310350,0.655517578125,0.6064453125,-0.43890380859375,0.098876953125,6070,6186,-782,-18,-12,-1
21320328,0.65631103515625,0.6051025390625,-0.44000244140625,0.09710693359375,6037,6100,-787,-18,-12,-1
21330318,0.65716552734375,0.60369873046875,-0.4410400390625,0.09539794921875,6013,6032,-790,-19,-11,0
21340296,0.657958984375,0.60223388671875,-0.44219970703125,0.09381103515625,6005,5964,-795,-19,-11,1
21350278,0.6588134765625,0.60064697265625,-0.44342041015625,0.09234619140625,6029,5924,-801,-19,-11,2
21360261,0.6595458984375,0.59906005859375,-0.4447021484375,0.09100341796875,6054,5891,-813,-18,-11,3
21370242,0.66033935546875,0.597412109375,-0.446044921875,0.08978271484375,6061,5853,-815,-18,-10,4
21380233,0.66107177734375,0.5958251953125,-0.447265625,0.088623046875,6084,5829,-822,-18,-9,3
21390218,0.66180419921875,0.59429931640625,-0.448486328125,0.08740234375,6123,5812,-828,-17,-9,2
21400196,0.66259765625,0.59283447265625,-0.44952392578125,0.086181640625,6148,5810,-832,-17,-8,1
21410188,0.663330078125,0.5914306640625,-0.450439453125,0.0849609375,6170,5807,-831,-17,-8,0
21420174,0.6641845703125,0.590087890625,-0.4512939453125,0.08367919921875,6181,5793,-839,-17,-7,-1
21430154,0.66497802734375,0.58880615234375,-0.45196533203125,0.0823974609375,6174,5792,-836,-17,-6,-1
21440124,0.6658935546875,0.5875244140625,-0.4525146484375,0.08111572265625,6146,5777,-838,-17,-6,-2
21450105,0.66680908203125,0.58624267578125,-0.4530029296875,0.0799560546875,6115,5772,-835,-16,-4,-1
21460087,0.667724609375,0.5849609375,-0.4534912109375,0.078857421875,6074,5760,-834,-16,-4,-1
21470078,0.668701171875,0.58367919921875,-0.45391845703125,0.077880859375,6030,5744,-820,-16,-3,0
21480056,0.669677734375,0.58233642578125,-0.454345703125,0.0770263671875,6007,5730,-817,-16,-2,0
21490037,0.67059326171875,0.58099365234375,-0.454833984375,0.0762939453125,5980,5725,-815,-16,-2,1
21500021,0.67156982421875,0.57965087890625,-0.45526123046875,0.07562255859375,5961,5705,-806,-15,-1,2
21510003,0.6724853515625,0.57830810546875,-0.4556884765625,0.07501220703125,5951,5675,-790,-15,-1,2
21519993,0.67340087890625,0.5770263671875,-0.4560546875,0.07440185546875,5935,5652,-785,-15,-1,1
21529973,0.67431640625,0.5758056640625,-0.456298828125,0.07373046875,5916,5621,-753,-14,-1,0
21539954,0.6751708984375,0.57476806640625,-0.45654296875,0.072998046875,5891,5571,-739,-13,-1,-1
21549932,0.67596435546875,0.57379150390625,-0.4566650390625,0.072265625,5871,5537,-731,-13,-1,-2
21559917,0.67669677734375,0.57293701171875,-0.456787109375,0.07147216796875,5857,5513,-707,-12,-2,-3
21569900,0.6773681640625,0.57208251953125,-0.45697021484375,0.0706787109375,5866,5511,-698,-11,-2,-3
21579883,0.67791748046875,0.5712890625,-0.45721435546875,0.07000732421875,5892,5515,-687,-10,-3,-2
21589865,0.678466796875,0.570556640625,-0.45751953125,0.0693359375,5921,5533,-668,-10,-3,-2
21599847,0.678955078125,0.56982421875,-0.457763671875,0.06866455078125,5947,5555,-651,-10,-3,-2
21609831,0.679443359375,0.56915283203125,-0.4580078125,0.06793212890625,5943,5583,-612,-9,-3,-2
21619814,0.679931640625,0.56854248046875,-0.4581298828125,0.067138671875,5930,5601,-563,-9,-3,-4
21629797,0.68048095703125,0.5679931640625,-0.45819091796875,0.0662841796875,5916,5630,-528,-9,-3,-5
21639784,0.68096923828125,0.5675048828125,-0.45819091796875,0.0653076171875,5930,5660,-500,-9,-3,-5
21649769,0.68145751953125,0.5670166015625,-0.4581298828125,0.06439208984375,5958,5716,-485,-8,-3,-5
21659752,0.6820068359375,0.56646728515625,-0.45819091796875,0.0635986328125,5999,5772,-470,-9,-3,-4
21669738,0.6824951171875,0.56585693359375,-0.45831298828125,0.0628662109375,6045,5839,-465,-9,-2,-2
21679713,0.68310546875,0.565185546875,-0.45831298828125,0.062255859375,6089,5898,-464,-9,-1,-3
21689701,0.6837158203125,0.56451416015625,-0.458251953125,0.06158447265625,6108,5951,-461,-10,0,-4
21699681,0.68450927734375,0.56390380859375,-0.45794677734375,0.06072998046875,6110,5971,-453,-10,1,-6
21709663,0.68536376953125,0.5633544921875,-0.45745849609375,0.05975341796875,6086,5980,-452,-11,1,-8
21719646,0.686279296875,0.56298828125,-0.45672607421875,0.05865478515625,6057,5986,-438,-11,2,-10
21729635,0.687255859375,0.5626220703125,-0.45587158203125,0.0574951171875,6054,6005,-423,-11,3,-11
21739612,0.68829345703125,0.56219482421875,-0.4549560546875,0.056396484375,6083,6051,-412,-11,4,-10
21749596,0.6893310546875,0.56182861328125,-0.45391845703125,0.055419921875,6136,6144,-411,-11,5,-10
21759579,0.6904296875,0.5614013671875,-0.452880859375,0.054443359375,6230,6308,-403,-11,6,-10
21769560,0.691650390625,0.56103515625,-0.45159912109375,0.053466796875,6360,6523,-432,-11,7,-12
21779543,0.69287109375,0.5609130859375,-0.45001220703125,0.05218505859375,6438,6746,-458,-11,8,-16
21789527,0.6942138671875,0.561279296875,-0.4476318359375,0.05023193359375,6424,6996,-483,-12,10,-26
21799509,0.69580078125,0.5623779296875,-0.4442138671875,0.047119140625,6306,7222,-485,-12,11,-40
21809493,0.697509765625,0.564208984375,-0.4395751953125,0.04266357421875,6202,7469,-477,-13,12,-55
21819475,0.69952392578125,0.5667724609375,-0.43365478515625,0.036865234375,6148,7755,-454,-15,14,-71
21829459,0.70166015625,0.56988525390625,-0.42657470703125,0.02984619140625,6092,8055,-407,-17,15,-85
21839439,0.70404052734375,0.5733642578125,-0.41839599609375,0.021728515625,6004,8365,-337,-19,17,-97
21849433,0.7066650390625,0.57696533203125,-0.4093017578125,0.01287841796875,5833,8713,-260,-21,19,-104
21859417,0.70941162109375,0.58056640625,-0.3995361328125,0.00347900390625,5549,9069,-151,-24,21,-108
21869401,0.71240234375,0.583984375,-0.3890380859375,-0.00634765625,5191,9388,40,-27,23,-112
21879376,0.71563720703125,0.587158203125,-0.3779296875,-0.01666259765625,4834,9675,293,-30,24,-117
21889360,0.71893310546875,0.59014892578125,-0.36614990234375,-0.0277099609375,4514,9925,574,-33,24,-124
21899342,0.72216796875,0.59295654296875,-0.3538818359375,-0.03948974609375,4246,10122,814,-35,23,-131
21909324,0.7252197265625,0.595703125,-0.34136962890625,-0.0516357421875,3995,10243,974,-36,22,-134
21919307,0.7279052734375,0.5982666015625,-0.32879638671875,-0.06396484375,3699,10266,1093,-35,21,-135
21929293,0.730224609375,0.6007080078125,-0.31634521484375,-0.07623291015625,3325,10209,1199,-34,19,-133
21939273,0.73211669921875,0.60296630859375,-0.30426025390625,-0.088134765625,2921,10136,1336,-31,18,-128
21949255,0.73370361328125,0.60504150390625,-0.29266357421875,-0.099365234375,2568,10079,1490,-28,17,-122
21959245,0.73486328125,0.60711669921875,-0.28155517578125,-0.1099853515625,2264,10068,1628,-24,16,-116
21969229,0.73553466796875,0.60931396484375,-0.270751953125,-0.12005615234375,2006,10064,1733,-19,16,-114
21979211,0.73577880859375,0.6116943359375,-0.25982666015625,-0.13006591796875,1801,10103,1799,-16,17,-116
21989189,0.73553466796875,0.6143798828125,-0.2486572265625,-0.14019775390625,1592,10138,1846,-14,18,-121
21999186,0.73486328125,0.6173095703125,-0.23687744140625,-0.150634765625,1387,10192,1888,-11,19,-127
22009173,0.73382568359375,0.6204833984375,-0.2244873046875,-0.16131591796875,1196,10247,1934,-9,21,-134
22019144,0.73236083984375,0.62384033203125,-0.2115478515625,-0.17236328125,978,10327,1952,-7,23,-140
22029124,0.73040771484375,0.6273193359375,-0.1978759765625,-0.18377685546875,770,10472,2009,-6,25,-147
22039104,0.72821044921875,0.630615234375,-0.183837890625,-0.1953125,596,10729,2060,-6,26,-151
22049090,0.7257080078125,0.63385009765625,-0.16949462890625,-0.2069091796875,439,11036,2064,-7,27,-153
22059072,0.7230224609375,0.63677978515625,-0.15509033203125,-0.21826171875,281,11311,2006,-9,28,-153
22069053,0.72027587890625,0.63934326171875,-0.1405029296875,-0.22943115234375,101,11497,1926,-12,29,-154
22079036,0.71734619140625,0.6416015625,-0.1256103515625,-0.24066162109375,-81,11576,1845,-14,30,-158
22089018,0.71417236328125,0.64349365234375,-0.1099853515625,-0.25244140625,-334,11562,1795,-17,30,-166
22099002,0.7105712890625,0.64495849609375,-0.093505859375,-0.26513671875,-616,11474,1741,-19,29,-177
22108991,0.70654296875,0.64599609375,-0.07635498046875,-0.27862548828125,-915,11351,1689,-22,27,-186
22118974,0.7020263671875,0.646484375,-0.05877685546875,-0.292724609375,-1204,11219,1637,-24,25,-192
22128951,0.69732666015625,0.64642333984375,-0.04150390625,-0.3067626953125,-1460,11143,1580,-26,22,-189
22138933,0.6927490234375,0.645751953125,-0.0252685546875,-0.32000732421875,-1679,11131,1488,-28,18,-178
22148915,0.68853759765625,0.64459228515625,-0.01043701171875,-0.33203125,-1883,11107,1373,-29,16,-163
22158899,0.68463134765625,0.64306640625,0.003173828125,-0.34307861328125,-2093,11028,1279,-30,13,-152
22168883,0.6807861328125,0.64111328125,0.01611328125,-0.353759765625,-2320,10925,1232,-31,9,-149
22178866,0.6766357421875,0.63885498046875,0.02899169921875,-0.36492919921875,-2530,10791,1162,-31,6,-154
22188848,0.67181396484375,0.63616943359375,0.042236328125,-0.37689208984375,-2707,10597,1100,-31,2,-165
22198827,0.6661376953125,0.6331787109375,0.05615234375,-0.3900146484375,-2834,10348,1036,-30,-1,-178
22208808,0.65960693359375,0.62969970703125,0.070556640625,-0.40411376953125,-2934,10124,975,-30,-4,-189
22218790,0.6524658203125,0.6258544921875,0.08514404296875,-0.41864013671875,-3023,9930,894,-29,-6,-194
22228769,0.64495849609375,0.6217041015625,0.09942626953125,-0.43310546875,-3139,9728,837,-29,-9,-193
22238763,0.63726806640625,0.61724853515625,0.11334228515625,-0.447265625,-3287,9463,772,-28,-11,-190
22248743,0.62933349609375,0.612548828125,0.12677001953125,-0.46112060546875,-3412,9109,723,-27,-12,-188
22258721,0.6209716796875,0.60748291015625,0.14013671875,-0.47503662109375,-3510,8691,676,-25,-14,-190
22268707,0.612060546875,0.60223388671875,0.1534423828125,-0.489013671875,-3576,8266,633,-23,-14,-193
22278688,0.6025390625,0.5966796875,0.16680908203125,-0.5030517578125,-3596,7858,598,-22,-15,-196
22288672,0.59246826171875,0.59100341796875,0.18011474609375,-0.51690673828125,-3645,7443,591,-20,-14,-196
22298655,0.58197021484375,0.5850830078125,0.1932373046875,-0.5306396484375,-3723,7042,608,-18,-14,-197
22308639,0.571044921875,0.57904052734375,0.2061767578125,-0.54412841796875,-3811,6667,631,-15,-14,-196
22318619,0.559814453125,0.5728759765625,0.21875,-0.5572509765625,-3895,6314,669,-13,-14,-194
22328605,0.54827880859375,0.56658935546875,0.23095703125,-0.570068359375,-3954,5911,676,-11,-14,-192
22338588,0.5362548828125,0.56005859375,0.24310302734375,-0.582763671875,-3976,5442,712,-9,-14,-193
22348568,0.5235595703125,0.55316162109375,0.2552490234375,-0.5955810546875,-3984,4961,741,-7,-14,-197
22358553,0.51019287109375,0.54595947265625,0.26739501953125,-0.60833740234375,-3973,4529,773,-6,-15,-200
22368535,0.49652099609375,0.53863525390625,0.27911376953125,-0.62078857421875,-3960,4252,774,-4,-14,-198
22378519,0.48321533203125,0.531494140625,0.2900390625,-0.63238525390625,-3970,4068,772,-2,-15,-188
22388497,0.47052001953125,0.5245361328125,0.2999267578125,-0.64300537109375,-3945,3836,801,-2,-14,-176
22398480,0.45831298828125,0.51776123046875,0.30914306640625,-0.65289306640625,-3905,3549,832,-1,-14,-167
22408465,0.4462890625,0.510986328125,0.3179931640625,-0.6622314453125,-3831,3223,878,-1,-13,-163
22418449,0.43402099609375,0.5040283203125,0.32684326171875,-0.67138671875,-3726,2885,929,-1,-12,-164
22428433,0.4212646484375,0.49676513671875,0.3358154296875,-0.680419921875,-3623,2532,964,-1,-11,-167
22438417,0.407958984375,0.4892578125,0.344970703125,-0.6893310546875,-3517,2168,1012,-1,-10,-170
22448400,0.39434814453125,0.48138427734375,0.35418701171875,-0.69805908203125,-3408,1820,1060,-1,-9,-171
22458375,0.38079833984375,0.4735107421875,0.3631591796875,-0.706298828125,-3312,1509,1119,-2,-8,-166
22468358,0.36767578125,0.46575927734375,0.37176513671875,-0.7138671875,-3221,1184,1185,-3,-7,-158
22478342,0.3553466796875,0.45831298828125,0.37982177734375,-0.720703125,-3167,864,1246,-3,-7,-146
22488324,0.343994140625,0.4512939453125,0.38714599609375,-0.72674560546875,-3096,547,1326,-4,-5,-134
22498307,0.33349609375,0.4447021484375,0.3939208984375,-0.73199462890625,-3044,200,1411,-5,-4,-122
22508293,0.32373046875,0.4385986328125,0.4002685546875,-0.736572265625,-3007,-150,1490,-5,-2,-112
22518281,0.31451416015625,0.43292236328125,0.40631103515625,-0.7406005859375,-2947,-540,1573,-6,1,-105
22528260,0.30535888671875,0.42742919921875,0.41241455078125,-0.7442626953125,-2881,-942,1663,-8,3,-102
22538240,0.29620361328125,0.42205810546875,0.418701171875,-0.74755859375,-2808,-1336,1741,-10,6,-101
22548233,0.2869873046875,0.416748046875,0.4251708984375,-0.75042724609375,-2726,-1711,1801,-12,9,-99
22558215,0.27789306640625,0.41156005859375,0.431884765625,-0.75286865234375,-2639,-2088,1848,-15,11,-97
22568205,0.26885986328125,0.4066162109375,0.4388427734375,-0.75482177734375,-2632,-2539,1891,-17,14,-94
22578187,0.26019287109375,0.40179443359375,0.44573974609375,-0.75640869140625,-2635,-2967,1975,-19,16,-88
22588173,0.2520751953125,0.3974609375,0.452392578125,-0.7574462890625,-2683,-3439,2058,-20,18,-79
22598146,0.24481201171875,0.3936767578125,0.45867919921875,-0.758056640625,-2783,-3931,2129,-20,19,-68
22608123,0.2384033203125,0.3905029296875,0.46441650390625,-0.75823974609375,-2930,-4458,2232,-20,19,-57
22618105,0.2327880859375,0.3878173828125,0.46954345703125,-0.75823974609375,-3124,-4987,2328,-18,19,-47
22628088,0.2279052734375,0.3856201171875,0.47406005859375,-0.758056640625,-3321,-5483,2443,-16,18,-38
22638070,0.2235107421875,0.38372802734375,0.47784423828125,-0.75787353515625,-3483,-5958,2562,-12,17,-31
22648053,0.2197265625,0.3822021484375,0.48089599609375,-0.75787353515625,-3611,-6374,2650,-8,15,-24
22658037,0.216552734375,0.38104248046875,0.483154296875,-0.7579345703125,-3688,-6716,2692,-4,14,-15
22668016,0.21435546875,0.38055419921875,0.4844970703125,-0.7579345703125,-3700,-6968,2700,-1,11,-2
22678002,0.21343994140625,0.38079833984375,0.48468017578125,-0.75799560546875,-3646,-7131,2700,4,10,14
22687988,0.21405029296875,0.382080078125,0.483642578125,-0.7578125,-3535,-7217,2654,8,8,32
22697966,0.21649169921875,0.3843994140625,0.48138427734375,-0.75738525390625,-3397,-7178,2605,11,6,52
22707948,0.220703125,0.38800048828125,0.47772216796875,-0.75665283203125,-3218,-7022,2541,14,6,73
22717931,0.226806640625,0.39276123046875,0.47283935546875,-0.75543212890625,-3014,-6787,2481,16,5,93
22727914,0.2344970703125,0.3985595703125,0.466796875,-0.75384521484375,-2830,-6500,2408,18,4,111
22737897,0.24359130859375,0.40521240234375,0.459716796875,-0.75177001953125,-2667,-6170,2347,20,4,125
22747880,0.2537841796875,0.41253662109375,0.45166015625,-0.749267578125,-2527,-5813,2315,22,3,137
22757865,0.264892578125,0.42034912109375,0.4427490234375,-0.74639892578125,-2413,-5444,2275,24,3,147
22767847,0.2767333984375,0.428466796875,0.43304443359375,-0.7431640625,-2325,-5073,2225,25,1,155
22777832,0.28924560546875,0.43682861328125,0.42254638671875,-0.73956298828125,-2283,-4715,2189,27,-1,163
22787810,0.30242919921875,0.44525146484375,0.4112548828125,-0.735595703125,-2233,-4332,2151,28,-3,170
22797794,0.3165283203125,0.453857421875,0.39886474609375,-0.731201171875,-2161,-3896,2106,30,-6,181
22807784,0.33197021484375,0.46295166015625,0.3851318359375,-0.72601318359375,-2051,-3392,2024,32,-8,198
22817767,0.3492431640625,0.47265625,0.36981201171875,-0.7196044921875,-1900,-2850,1954,32,-11,219
22827749,0.3681640625,0.48284912109375,0.352783203125,-0.7119140625,-1756,-2280,1862,32,-13,238
22837731,0.38818359375,0.4931640625,0.33453369140625,-0.7030029296875,-1628,-1799,1778,32,-14,250
22847708,0.40850830078125,0.5030517578125,0.3154296875,-0.69317626953125,-1546,-1357,1704,32,-17,254
22857691,0.428466796875,0.51226806640625,0.2960205078125,-0.682861328125,-1490,-925,1639,32,-19,251
22867675,0.44781494140625,0.52081298828125,0.27630615234375,-0.6722412109375,-1404,-460,1611,33,-21,246
22877658,0.46624755859375,0.52850341796875,0.25634765625,-0.66143798828125,-1283,79,1542,34,-23,238
22887640,0.48406982421875,0.53582763671875,0.2362060546875,-0.65020751953125,-1142,734,1393,35,-24,235
22897623,0.501708984375,0.54296875,0.21539306640625,-0.63800048828125,-999,1436,1228,34,-24,238
22907609,0.5191650390625,0.5498046875,0.19415283203125,-0.6248779296875,-940,2075,1090,34,-23,240
22917591,0.53619384765625,0.55609130859375,0.17266845703125,-0.611083984375,-931,2633,990,33,-23,240
22927575,0.5523681640625,0.56170654296875,0.1514892578125,-0.59698486328125,-961,3119,941,33,-23,233
22937558,0.56744384765625,0.56671142578125,0.13067626953125,-0.5828857421875,-959,3664,917,33,-23,224
22947542,0.58184814453125,0.57135009765625,0.10968017578125,-0.5682373046875,-940,4414,863,33,-22,223
22957523,0.59637451171875,0.57586669921875,0.0877685546875,-0.55224609375,-889,5253,793,33,-20,235
22967507,0.611572265625,0.58013916015625,0.0645751953125,-0.53399658203125,-842,6027,707,31,-19,255
22977489,0.6273193359375,0.583740234375,0.0404052734375,-0.5137939453125,-775,6705,651,28,-18,270
22987471,0.6429443359375,0.58642578125,0.0157470703125,-0.4923095703125,-724,7486,597,25,-17,274
22997454,0.65802001953125,0.58831787109375,-0.009033203125,-0.4698486328125,-603,8754,489,21,-18,277
23007435,0.67266845703125,0.589599609375,-0.03466796875,-0.44573974609375,-442,10264,331,20,-17,286
23017426,0.68701171875,0.58990478515625,-0.06121826171875,-0.4197998046875,-272,11448,257,18,-16,300
23027408,0.7005615234375,0.58917236328125,-0.087646484375,-0.3929443359375,-164,11937,275,18,-15,304
23037392,0.71258544921875,0.58734130859375,-0.11260986328125,-0.3668212890625,-176,11868,426,18,-14,290
23047370,0.72235107421875,0.5849609375,-0.1348876953125,-0.34326171875,-163,11698,633,18,-15,258
23057352,0.729736328125,0.58245849609375,-0.1544189453125,-0.322998046875,-34,11976,791,19,-17,218
23067334,0.73504638671875,0.58026123046875,-0.1717529296875,-0.30572509765625,62,12528,919,19,-20,187
23077317,0.7388916015625,0.5782470703125,-0.18756103515625,-0.29052734375,144,12968,1019,20,-23,169
23087300,0.7418212890625,0.5762939453125,-0.20220947265625,-0.27691650390625,158,13006,1125,22,-25,154
23097285,0.7437744140625,0.57440185546875,-0.2158203125,-0.2650146484375,50,12608,1291,23,-29,140
23107269,0.74493408203125,0.5726318359375,-0.228271484375,-0.25494384765625,-117,11951,1499,26,-33,124
23117255,0.74517822265625,0.5711669921875,-0.2398681640625,-0.246826171875,-232,11398,1711,29,-38,108
23127240,0.74468994140625,0.56982421875,-0.25146484375,-0.23974609375,-147,11212,1888,32,-45,102
23137223,0.74371337890625,0.5684814453125,-0.26385498046875,-0.23260498046875,35,11205,1974,34,-49,109
23147207,0.74273681640625,0.56646728515625,-0.27783203125,-0.22412109375,392,11313,1999,36,-53,126
23157194,0.741943359375,0.5635986328125,-0.29351806640625,-0.21368408203125,832,11343,1949,37,-55,148
23167178,0.74139404296875,0.55963134765625,-0.31072998046875,-0.20135498046875,1307,11245,1870,36,-57,168
23177160,0.7408447265625,0.5546875,-0.32891845703125,-0.1876220703125,1804,11056,1790,35,-57,180
23187139,0.7401123046875,0.54913330078125,-0.34722900390625,-0.17340087890625,2336,10933,1697,34,-57,183
23197115,0.739013671875,0.54315185546875,-0.36529541015625,-0.15911865234375,2953,11076,1563,32,-57,182
23207097,0.737548828125,0.5369873046875,-0.3829345703125,-0.1448974609375,3599,11393,1398,31,-55,181
23217080,0.73590087890625,0.5303955078125,-0.40008544921875,-0.13055419921875,4243,11729,1275,30,-53,181
23227063,0.73394775390625,0.523681640625,-0.41656494140625,-0.1163330078125,4862,11948,1118,29,-50,178
23237050,0.7318115234375,0.51690673828125,-0.43218994140625,-0.1024169921875,5423,12007,948,27,-46,171
23247028,0.72943115234375,0.51043701171875,-0.44659423828125,-0.0892333984375,5894,11920,764,26,-42,159
23257010,0.7269287109375,0.50445556640625,-0.45947265625,-0.07733154296875,6230,11693,603,25,-39,143
23266995,0.7242431640625,0.49932861328125,-0.47076416015625,-0.06689453125,6421,11371,494,24,-36,125
23276983,0.72161865234375,0.49505615234375,-0.4803466796875,-0.0582275390625,6475,10977,443,22,-33,104
23286960,0.718994140625,0.49188232421875,-0.48828125,-0.05126953125,6475,10545,431,21,-31,84
23296941,0.71649169921875,0.48956298828125,-0.49481201171875,-0.04595947265625,6436,10117,468,20,-28,66
23306925,0.71417236328125,0.48797607421875,-0.50006103515625,-0.0418701171875,6374,9653,560,19,-25,52
23316908,0.712158203125,0.4866943359375,-0.50439453125,-0.03839111328125,6333,9149,689,18,-22,44
23326892,0.7103271484375,0.4857177734375,-0.5081787109375,-0.034912109375,6284,8631,836,20,-18,40
23336877,0.70867919921875,0.48480224609375,-0.5115966796875,-0.0308837890625,6249,8123,998,23,-14,42
23346856,0.70709228515625,0.48382568359375,-0.51495361328125,-0.026123046875,6198,7663,1158,26,-11,46
23356838,0.70550537109375,0.4830322265625,-0.51812744140625,-0.02044677734375,6136,7268,1334,32,-7,50
23366820,0.703857421875,0.48248291015625,-0.52117919921875,-0.01397705078125,6064,6930,1499,38,-5,52
23376801,0.70196533203125,0.4825439453125,-0.52374267578125,-0.007080078125,5999,6705,1667,45,-2,50
23386789,0.6998291015625,0.48358154296875,-0.5257568359375,-0.000244140625,5954,6614,1789,51,0,42
23396766,0.69744873046875,0.48565673828125,-0.52691650390625,0.00604248046875,5944,6628,1850,55,1,32
23406758,0.69488525390625,0.48895263671875,-0.5272216796875,0.01153564453125,5974,6723,1825,59,2,19
23416741,0.692138671875,0.4932861328125,-0.526611328125,0.01605224609375,6028,6904,1724,60,4,7
23426719,0.6893310546875,0.4984130859375,-0.52532958984375,0.0196533203125,6116,7132,1566,60,4,-5
23436696,0.68658447265625,0.504150390625,-0.5233154296875,0.02227783203125,6199,7356,1348,59,5,-14
23446679,0.6839599609375,0.51031494140625,-0.520751953125,0.02398681640625,6252,7579,1098,55,6,-23
23456660,0.68145751953125,0.5164794921875,-0.517822265625,0.02496337890625,6304,7781,826,51,6,-28
23466642,0.67926025390625,0.52252197265625,-0.51470947265625,0.0252685546875,6310,7941,547,45,6,-31
23476635,0.6773681640625,0.528076171875,-0.511474609375,0.0250244140625,6270,8030,290,38,6,-32
23486611,0.67584228515625,0.53302001953125,-0.5084228515625,0.0245361328125,6223,8046,64,32,6,-30
23496592,0.6746826171875,0.537109375,-0.50567626953125,0.0238037109375,6160,7984,-98,24,6,-27
23506576,0.6739501953125,0.540283203125,-0.5032958984375,0.0230712890625,6085,7848,-261,17,5,-22
23516559,0.67352294921875,0.5426025390625,-0.50140380859375,0.0223388671875,6022,7659,-409,10,4,-17
23526542,0.67340087890625,0.5439453125,-0.5001220703125,0.02178955078125,5955,7478,-560,5,4,-9
23536522,0.6734619140625,0.54437255859375,-0.49957275390625,0.02166748046875,5907,7289,-695,0,3,-1
23546507,0.6737060546875,0.54400634765625,-0.4996337890625,0.02203369140625,5857,7108,-834,-4,3,8
23556485,0.67413330078125,0.54278564453125,-0.5003662109375,0.02294921875,5805,6937,-944,-7,3,17
23566468,0.6746826171875,0.5408935546875,-0.50164794921875,0.0244140625,5775,6775,-1043,-9,3,24
23576451,0.67523193359375,0.53857421875,-0.5032958984375,0.02630615234375,5748,6601,-1128,-10,4,30
23586430,0.67584228515625,0.53594970703125,-0.50506591796875,0.028564453125,5736,6415,-1196,-11,5,32
23596421,0.676513671875,0.533203125,-0.5069580078125,0.03094482421875,5726,6229,-1238,-10,5,33
23606404,0.6771240234375,0.53070068359375,-0.5086669921875,0.0333251953125,5704,6029,-1258,-9,5,30
23616382,0.6776123046875,0.528564453125,-0.51007080078125,0.0355224609375,5679,5831,-1262,-7,6,25
23626366,0.67791748046875,0.5269775390625,-0.5111083984375,0.037353515625,5650,5661,-1248,-4,5,19
23636350,0.67803955078125,0.526123046875,-0.51177978515625,0.03875732421875,5613,5542,-1236,-1,5,13
23646334,0.677978515625,0.52587890625,-0.51202392578125,0.0399169921875,5610,5440,-1199,3,4,6
23656315,0.6776123046875,0.5263671875,-0.511962890625,0.04058837890625,5580,5378,-1147,6,2,0
23666299,0.677001953125,0.5274658203125,-0.51153564453125,0.041015625,5576,5373,-1084,11,2,-5
23676281,0.6761474609375,0.52923583984375,-0.5108642578125,0.04107666015625,5566,5413,-1037,13,0,-10
23686264,0.6751708984375,0.531494140625,-0.50982666015625,0.04083251953125,5586,5485,-1008,16,0,-15
23696246,0.674072265625,0.53411865234375,-0.50860595703125,0.04022216796875,5601,5599,-979,17,-1,-19
23706232,0.67291259765625,0.53704833984375,-0.50714111328125,0.03936767578125,5621,5719,-933,17,-1,-22
23716220,0.671875,0.5400390625,-0.50543212890625,0.038330078125,5619,5843,-875,17,-1,-24
23726205,0.67083740234375,0.54302978515625,-0.503662109375,0.03704833984375,5620,5960,-825,16,-2,-25
23736192,0.669921875,0.5458984375,-0.50189208984375,0.0357666015625,5623,6102,-761,15,-2,-24
23746175,0.66912841796875,0.54840087890625,-0.50030517578125,0.03460693359375,5641,6225,-719,13,-1,-21
23756158,0.66845703125,0.550537109375,-0.4989013671875,0.0335693359375,5656,6359,-671,11,-2,-17
23766129,0.66796875,0.5521240234375,-0.49786376953125,0.03277587890625,5673,6480,-640,8,-2,-12
23776111,0.66766357421875,0.55316162109375,-0.4971923828125,0.03216552734375,5704,6594,-602,5,-2,-7
23786097,0.66754150390625,0.5537109375,-0.49676513671875,0.03179931640625,5715,6683,-571,2,-1,-3
23796081,0.6676025390625,0.55377197265625,-0.49652099609375,0.031494140625,5733,6738,-563,-1,-2,0
23806058,0.66790771484375,0.553466796875,-0.49652099609375,0.0311279296875,5745,6748,-545,-4,-2,2
23816036,0.6683349609375,0.55291748046875,-0.49658203125,0.03070068359375,5759,6725,-545,-6,-2,2
23826019,0.6689453125,0.55218505859375,-0.49658203125,0.0301513671875,5752,6686,-543,-9,-2,1
23836003,0.66961669921875,0.5513916015625,-0.49664306640625,0.02935791015625,5721,6620,-525,-10,-2,0
23845990,0.67034912109375,0.55047607421875,-0.49676513671875,0.0284423828125,5689,6536,-508,-12,-3,0
23855974,0.671142578125,0.5494384765625,-0.49688720703125,0.02740478515625,5658,6438,-510,-13,-4,0
23865952,0.671875,0.54840087890625,-0.49713134765625,0.0264892578125,5639,6359,-529,-13,-3,1
23875934,0.67254638671875,0.5472412109375,-0.49749755859375,0.025634765625,5641,6263,-556,-13,-4,2
23885918,0.6732177734375,0.546142578125,-0.49786376953125,0.0247802734375,5627,6178,-607,-13,-4,2
23895900,0.67376708984375,0.54510498046875,-0.498291015625,0.02386474609375,5618,6095,-659,-12,-4,1
23905882,0.67431640625,0.54412841796875,-0.4986572265625,0.02294921875,5617,6022,-713,-12,-4,0
23915867,0.6748046875,0.54327392578125,-0.49896240234375,0.02191162109375,5619,5965,-753,-12,-4,-1
23925847,0.67523193359375,0.54254150390625,-0.49920654296875,0.0208740234375,5594,5915,-782,-12,-4,-2
23935830,0.6756591796875,0.5418701171875,-0.49945068359375,0.01971435546875,5584,5866,-808,-11,-4,-3
23945812,0.676025390625,0.541259765625,-0.4996337890625,0.01861572265625,5568,5824,-845,-10,-5,-3
23955794,0.67633056640625,0.5406494140625,-0.49993896484375,0.017578125,5573,5787,-896,-10,-4,-3
23965784,0.67657470703125,0.54010009765625,-0.500244140625,0.01666259765625,5577,5747,-938,-9,-5,-2
23975773,0.67669677734375,0.53948974609375,-0.500732421875,0.015869140625,5588,5724,-969,-9,-5,0
23985752,0.6768798828125,0.538818359375,-0.501220703125,0.01519775390625,5613,5733,-978,-8,-5,1
23995736,0.677001953125,0.53814697265625,-0.50177001953125,0.0146484375,5670,5788,-973,-8,-4,1
24005712,0.67718505859375,0.5374755859375,-0.5023193359375,0.01409912109375,5781,5875,-992,-8,-4,1
24015694,0.6773681640625,0.536865234375,-0.50274658203125,0.0135498046875,5887,5978,-1007,-8,-4,0
24028995,0.6776123046875,0.53631591796875,-0.50299072265625,0.0128173828125,5983,6079,-1018,-8,-3,-2
24035658,0.67791748046875,0.53607177734375,-0.50286865234375,0.01177978515625,6080,6221,-1037,-9,-2,-7
24045642,0.67828369140625,0.5361328125,-0.50238037109375,0.01031494140625,6166,6379,-1040,-8,-2,-12
24055629,0.6787109375,0.53656005859375,-0.50128173828125,0.00830078125,6237,6608,-1013,-9,0,-20
24065609,0.6793212890625,0.53753662109375,-0.49951171875,0.005615234375,6330,6894,-985,-9,1,-28
24075592,0.6800537109375,0.53900146484375,-0.4969482421875,0.0023193359375,6435,7217,-977,-9,3,-36
24085574,0.68096923828125,0.541015625,-0.49346923828125,-0.001708984375,6572,7534,-959,-10,6,-47
24095559,0.68218994140625,0.54364013671875,-0.48883056640625,-0.00665283203125,6682,7838,-896,-12,9,-61
24105543,0.683837890625,0.5467529296875,-0.48291015625,-0.01251220703125,6775,8168,-761,-14,14,-73
24115524,0.68585205078125,0.5501708984375,-0.47589111328125,-0.0191650390625,6860,8517,-579,-16,17,-83
24125510,0.68829345703125,0.55364990234375,-0.4678955078125,-0.02630615234375,6890,8901,-374,-19,22,-89
24135491,0.6910400390625,0.55712890625,-0.45916748046875,-0.0338134765625,6796,9287,-168,-22,25,-93
24145475,0.694091796875,0.5604248046875,-0.4498291015625,-0.0416259765625,6555,9654,45,-26,28,-95
24155457,0.697509765625,0.56353759765625,-0.439697265625,-0.04986572265625,6212,9954,284,-29,31,-100
24165437,0.701171875,0.5665283203125,-0.42877197265625,-0.058837890625,5815,10164,509,-34,33,-107
24175430,0.7049560546875,0.569580078125,-0.41693115234375,-0.06878662109375,5408,10326,699,-38,34,-117
24185412,0.708740234375,0.57269287109375,-0.404052734375,-0.07977294921875,4957,10425,868,-42,35,-128
24195394,0.71240234375,0.57586669921875,-0.39031982421875,-0.0919189453125,4459,10404,1011,-45,34,-139
24205374,0.71575927734375,0.57904052734375,-0.3759765625,-0.10479736328125,3925,10326,1109,-47,33,-144
24215358,0.71875,0.58197021484375,-0.3616943359375,-0.1177978515625,3421,10226,1171,-47,32,-142
24225340,0.7213134765625,0.58447265625,-0.34796142578125,-0.130126953125,2962,10096,1200,-46,30,-134
24235324,0.7236328125,0.58660888671875,-0.33502197265625,-0.1414794921875,2540,9887,1232,-42,29,-124
24245306,0.7255859375,0.58837890625,-0.32293701171875,-0.15185546875,2177,9724,1300,-39,27,-114
24255293,0.72711181640625,0.59002685546875,-0.31146240234375,-0.1614990234375,1918,9645,1415,-34,26,-108
24265273,0.728271484375,0.59173583984375,-0.300537109375,-0.17059326171875,1609,9658,1503,-30,25,-104
24275258,0.72900390625,0.59356689453125,-0.289794921875,-0.179443359375,1379,9746,1593,-27,23,-103
24285238,0.729248046875,0.59564208984375,-0.27923583984375,-0.188232421875,1251,9983,1614,-23,23,-104
24295230,0.72900390625,0.597900390625,-0.26873779296875,-0.19696044921875,1209,10305,1603,-21,22,-106
24305212,0.7283935546875,0.600341796875,-0.2581787109375,-0.20574951171875,1216,10621,1547,-19,22,-110
24315193,0.727294921875,0.6031494140625,-0.24713134765625,-0.21484375,1216,10895,1477,-18,24,-118
24325184,0.7257080078125,0.60626220703125,-0.23516845703125,-0.22467041015625,1178,11111,1420,-17,25,-131
24335166,0.72344970703125,0.6097412109375,-0.22198486328125,-0.2357177734375,1070,11275,1379,-16,26,-148
24345143,0.72039794921875,0.613525390625,-0.207275390625,-0.24810791015625,934,11404,1343,-16,27,-166
24355119,0.71673583984375,0.61737060546875,-0.19134521484375,-0.26165771484375,787,11550,1328,-17,28,-182
24365101,0.71246337890625,0.62109375,-0.174560546875,-0.27593994140625,592,11699,1308,-19,28,-190
24375084,0.7078857421875,0.62432861328125,-0.15740966796875,-0.290283203125,348,11802,1284,-21,28,-191
24385067,0.703125,0.62713623046875,-0.140380859375,-0.30426025390625,55,11834,1240,-23,28,-188
24395050,0.6983642578125,0.6292724609375,-0.12371826171875,-0.3177490234375,-281,11766,1224,-25,26,-183
24405031,0.69354248046875,0.630859375,-0.10736083984375,-0.330810546875,-623,11640,1200,-26,25,-179
24415015,0.68853759765625,0.63189697265625,-0.09112548828125,-0.34393310546875,-974,11485,1191,-28,22,-180
24424997,0.68316650390625,0.63250732421875,-0.074951171875,-0.357177734375,-1300,11318,1175,-29,19,-182
24434988,0.6773681640625,0.63262939453125,-0.0587158203125,-0.37078857421875,-1640,11105,1165,-30,16,-185
24444963,0.67108154296875,0.6322021484375,-0.04241943359375,-0.384765625,-1965,10847,1166,-30,12,-189
24454946,0.664306640625,0.63134765625,-0.02630615234375,-0.399169921875,-2279,10567,1187,-29,7,-193
24464928,0.656982421875,0.62994384765625,-0.01025390625,-0.41400146484375,-2574,10297,1193,-29,2,-197
24474911,0.64898681640625,0.62811279296875,0.0054931640625,-0.42926025390625,-2836,10071,1190,-28,-3,-200
24484892,0.640380859375,0.625732421875,0.02099609375,-0.44476318359375,-3088,9873,1166,-26,-8,-203
24494877,0.63134765625,0.6229248046875,0.03594970703125,-0.46038818359375,-3279,9642,1132,-25,-13,-203
24504856,0.6219482421875,0.61968994140625,0.05035400390625,-0.47601318359375,-3415,9367,1104,-23,-17,-202
24514839,0.612060546875,0.61602783203125,0.0643310546875,-0.49163818359375,-3520,9070,1054,-22,-21,-203
24524823,0.60174560546875,0.6119384765625,0.07794189453125,-0.5072021484375,-3601,8770,1041,-20,-24,-203
24534805,0.59100341796875,0.60748291015625,0.0911865234375,-0.5228271484375,-3672,8450,1028,-18,-27,-205
24544789,0.57952880859375,0.60260009765625,0.10418701171875,-0.53857421875,-3717,8093,1014,-15,-29,-207
24554767,0.5673828125,0.597412109375,0.11712646484375,-0.55438232421875,-3748,7679,990,-12,-31,-211
24564760,0.55438232421875,0.59185791015625,0.13006591796875,-0.5704345703125,-3717,7201,980,-10,-33,-216
24574742,0.5406494140625,0.58599853515625,0.14288330078125,-0.58636474609375,-3663,6730,964,-7,-33,-217
24584721,0.5264892578125,0.5799560546875,0.1553955078125,-0.6019287109375,-3590,6250,963,-4,-33,-215
24594700,0.51220703125,0.57373046875,0.16729736328125,-0.6168212890625,-3466,5780,966,-2,-32,-209
24604686,0.49822998046875,0.567626953125,0.1783447265625,-0.630615234375,-3341,5379,961,0,-30,-197
24614668,0.48492431640625,0.5618896484375,0.18829345703125,-0.64312744140625,-3240,5013,939,1,-28,-182
24624650,0.47247314453125,0.55645751953125,0.197265625,-0.65435791015625,-3160,4619,940,2,-26,-168
24634635,0.46051025390625,0.55120849609375,0.20556640625,-0.6646728515625,-3106,4194,942,3,-24,-157
24644616,0.4488525390625,0.546142578125,0.2135009765625,-0.67431640625,-3066,3814,966,4,-22,-152
24654599,0.43731689453125,0.5411376953125,0.2210693359375,-0.683349609375,-3001,3494,966,4,-20,-147
24664581,0.42596435546875,0.53631591796875,0.22845458984375,-0.69189453125,-2942,3231,971,4,-18,-143
24674564,0.414794921875,0.53167724609375,0.235595703125,-0.6998291015625,-2872,2998,963,5,-15,-138
24684546,0.4039306640625,0.52734375,0.242431640625,-0.70703125,-2803,2770,934,5,-12,-131
24694530,0.39337158203125,0.52337646484375,0.24896240234375,-0.71368408203125,-2774,2575,949,5,-8,-126
24704510,0.38299560546875,0.5196533203125,0.25531005859375,-0.71978759765625,-2807,2400,983,5,-6,-122
24714494,0.37255859375,0.51617431640625,0.26171875,-0.7254638671875,-2841,2203,999,5,-3,-121
24724483,0.36175537109375,0.51275634765625,0.26824951171875,-0.73089599609375,-2868,1978,1026,6,0,-123
24734463,0.350341796875,0.50921630859375,0.2752685546875,-0.736328125,-2909,1663,1085,5,3,-128
24744449,0.338134765625,0.50543212890625,0.2828369140625,-0.74176025390625,-2947,1328,1156,5,5,-135
24754432,0.3251953125,0.50140380859375,0.29083251953125,-0.7471923828125,-2974,990,1276,5,7,-140
24764416,0.31207275390625,0.497314453125,0.298828125,-0.7523193359375,-3036,716,1371,5,8,-138
24774399,0.29931640625,0.49334716796875,0.306640625,-0.75689697265625,-3100,457,1495,3,10,-132
24784376,0.287353515625,0.4896240234375,0.31402587890625,-0.76092529296875,-3166,151,1629,2,11,-122
24794357,0.27606201171875,0.486083984375,0.321044921875,-0.76446533203125,-3232,-194,1796,1,13,-114
24804341,0.265380859375,0.482666015625,0.327880859375,-0.76751708984375,-3315,-580,1983,-1,13,-108
24814323,0.25506591796875,0.479248046875,0.33453369140625,-0.770263671875,-3422,-1013,2176,-3,14,-103
24824305,0.2451171875,0.47576904296875,0.3411865234375,-0.77276611328125,-3549,-1474,2384,-4,14,-99
24834293,0.2354736328125,0.47216796875,0.34783935546875,-0.7750244140625,-3693,-1939,2610,-6,14,-96
24844271,0.22607421875,0.4683837890625,0.35443115234375,-0.777099609375,-3849,-2321,2830,-8,13,-94
24854255,0.217041015625,0.46417236328125,0.3612060546875,-0.779052734375,-3976,-2632,3063,-13,10,-94
24864242,0.2086181640625,0.4593505859375,0.3681640625,-0.781005859375,-4075,-2887,3353,-19,6,-93
24874225,0.20123291015625,0.45379638671875,0.3753662109375,-0.78271484375,-4154,-3123,3647,-27,0,-87
24884208,0.195556640625,0.4476318359375,0.3826904296875,-0.7841796875,-4191,-3439,3867,-37,-8,-76
24894191,0.192138671875,0.4412841796875,0.38983154296875,-0.78509521484375,-4169,-3881,3937,-45,-15,-56
24904183,0.1915283203125,0.43536376953125,0.39617919921875,-0.785400390625,-4116,-4391,3906,-48,-21,-29
24914167,0.19403076171875,0.430419921875,0.40106201171875,-0.7850341796875,-4029,-4887,3814,-49,-25,4
24924138,0.19989013671875,0.42694091796875,0.40399169921875,-0.783935546875,-3896,-5273,3687,-48,-27,40
24934116,0.20904541015625,0.42523193359375,0.4049072265625,-0.781982421875,-3741,-5535,3525,-45,-28,76
24944101,0.22119140625,0.42529296875,0.40380859375,-0.7791748046875,-3589,-5651,3345,-42,-26,109
24954082,0.23565673828125,0.427001953125,0.40093994140625,-0.7755126953125,-3458,-5660,3165,-39,-24,134
24964064,0.25146484375,0.42987060546875,0.39678955078125,-0.77105712890625,-3364,-5599,3019,-35,-21,149
24974050,0.2677001953125,0.4334716796875,0.39178466796875,-0.76611328125,-3309,-5483,2881,-31,-18,156
24984033,0.28369140625,0.43743896484375,0.38629150390625,-0.7608642578125,-3279,-5316,2753,-27,-15,156
24994015,0.29888916015625,0.44158935546875,0.38055419921875,-0.7554931640625,-3273,-5113,2627,-22,-12,152
25004000,0.3133544921875,0.44580078125,0.37451171875,-0.75018310546875,-3297,-4880,2517,-18,-11,148
25013987,0.3271484375,0.45025634765625,0.3680419921875,-0.74481201171875,-3325,-4611,2400,-12,-9,146
25023966,0.3406982421875,0.45501708984375,0.36090087890625,-0.73931884765625,-3365,-4325,2308,-6,-8,149
25033948,0.3543701171875,0.460205078125,0.3526611328125,-0.733642578125,-3396,-4008,2240,0,-8,156
25043930,0.36859130859375,0.466064453125,0.343017578125,-0.72747802734375,-3440,-3654,2172,7,-9,167
25053913,0.383544921875,0.47247314453125,0.33184814453125,-0.7208251953125,-3428,-3284,2131,13,-10,180
25063898,0.399169921875,0.47930908203125,0.31903076171875,-0.7135009765625,-3404,-2879,2095,20,-12,192
25073881,0.4154052734375,0.48651123046875,0.30474853515625,-0.70556640625,-3331,-2461,2030,25,-15,203
25083865,0.43218994140625,0.4937744140625,0.2890625,-0.69696044921875,-3235,-2045,1966,29,-18,214
25093849,0.4495849609375,0.50115966796875,0.27178955078125,-0.6876220703125,-3098,-1580,1915,34,-21,225
25103831,0.46771240234375,0.50860595703125,0.25286865234375,-0.67718505859375,-2946,-1117,1852,38,-24,240
25113813,0.4864501953125,0.51617431640625,0.2322998046875,-0.66552734375,-2780,-679,1769,42,-26,253
25123795,0.50518798828125,0.5235595703125,0.21044921875,-0.65289306640625,-2634,-302,1685,46,-28,260
25133775,0.52325439453125,0.5303955078125,0.18804931640625,-0.639892578125,-2492,-24,1622,49,-31,256
25143769,0.539794921875,0.53643798828125,0.16571044921875,-0.627197265625,-2365,258,1604,52,-34,244
25153751,0.5545654296875,0.54144287109375,0.14385986328125,-0.61529541015625,-2216,663,1572,54,-38,225
25163734,0.56768798828125,0.54571533203125,0.122314453125,-0.60406494140625,-2060,1164,1501,55,-42,210
25173710,0.57977294921875,0.54937744140625,0.10089111328125,-0.5931396484375,-1895,1606,1430,57,-44,203
25183692,0.59136962890625,0.5526123046875,0.0789794921875,-0.5819091796875,-1793,1977,1339,59,-47,206
25193679,0.602783203125,0.55572509765625,0.0562744140625,-0.56982421875,-1777,2323,1279,62,-48,215
25203662,0.614013671875,0.5584716796875,0.03253173828125,-0.5567626953125,-1763,2603,1283,65,-51,223
25213645,0.624755859375,0.56060791015625,0.0081787109375,-0.5433349609375,-1619,2996,1316,68,-54,223
25223627,0.63482666015625,0.56231689453125,-0.016845703125,-0.52960205078125,-1299,3864,1211,69,-58,220
25233609,0.64453125,0.56365966796875,-0.04296875,-0.5147705078125,-948,5260,974,67,-61,226
25243593,0.65484619140625,0.56427001953125,-0.07073974609375,-0.49774169921875,-546,6657,733,64,-61,246
25253576,0.66607666015625,0.56365966796875,-0.099853515625,-0.47808837890625,-97,7690,557,59,-60,270
25263558,0.67779541015625,0.5616455078125,-0.12939453125,-0.45654296875,368,8258,465,53,-58,284
25273542,0.68896484375,0.558349609375,-0.15814208984375,-0.43414306640625,841,8719,438,48,-54,282
25283524,0.69903564453125,0.55419921875,-0.18572998046875,-0.41192626953125,1375,9415,426,44,-52,271
25293506,0.7076416015625,0.54962158203125,-0.21185302734375,-0.39013671875,1936,10309,385,41,-49,256
25303489,0.71502685546875,0.544677734375,-0.2364501953125,-0.36895751953125,2450,11164,332,37,-46,243
25313472,0.72125244140625,0.53936767578125,-0.2591552734375,-0.3487548828125,2845,11647,338,33,-42,228
25323454,0.72637939453125,0.5340576171875,-0.27935791015625,-0.3302001953125,3075,11733,405,30,-37,205
25333435,0.73028564453125,0.5291748046875,-0.29681396484375,-0.31396484375,3226,11559,483,27,-33,177
25343427,0.73291015625,0.52496337890625,-0.3116455078125,-0.3001708984375,3345,11426,528,26,-30,147
25353410,0.73431396484375,0.52178955078125,-0.32440185546875,-0.28857421875,3488,11403,573,27,-28,123
25363393,0.73486328125,0.519287109375,-0.33575439453125,-0.2784423828125,3672,11511,636,28,-27,107
25373369,0.73492431640625,0.5172119140625,-0.346435546875,-0.2689208984375,3790,11581,666,30,-26,102
25383352,0.73480224609375,0.51507568359375,-0.3570556640625,-0.25921630859375,3842,11473,741,32,-25,106
25393335,0.73486328125,0.51251220703125,-0.3677978515625,-0.2489013671875,3812,11211,874,32,-25,114
25403319,0.73504638671875,0.5093994140625,-0.37872314453125,-0.23809814453125,3818,10944,960,31,-25,120
25413302,0.7352294921875,0.505859375,-0.389892578125,-0.226806640625,3918,10759,953,30,-25,125
25423284,0.73541259765625,0.50189208984375,-0.4012451171875,-0.215087890625,4087,10717,913,29,-26,130
25433268,0.7354736328125,0.4974365234375,-0.412841796875,-0.202880859375,4315,10775,853,28,-26,136
25443255,0.7354736328125,0.4925537109375,-0.42462158203125,-0.190185546875,4578,10872,762,28,-26,143
25453237,0.73529052734375,0.4871826171875,-0.43658447265625,-0.177001953125,4834,10888,688,27,-26,148
25463222,0.7349853515625,0.4814453125,-0.44842529296875,-0.1636962890625,5066,10776,641,27,-26,148
25473205,0.7344970703125,0.4757080078125,-0.45977783203125,-0.15093994140625,5296,10584,649,25,-26,141
25483194,0.7337646484375,0.4700927734375,-0.4703369140625,-0.13909912109375,5578,10391,673,24,-27,130
25493176,0.73272705078125,0.46502685546875,-0.47998046875,-0.12847900390625,5913,10315,658,22,-26,117
25503160,0.73138427734375,0.46038818359375,-0.48876953125,-0.11895751953125,6201,10324,617,21,-25,107
25513128,0.72998046875,0.4561767578125,-0.496826171875,-0.1102294921875,6439,10329,561,19,-24,99
25523111,0.7286376953125,0.45208740234375,-0.50421142578125,-0.10211181640625,6614,10293,514,18,-22,94
25533095,0.72735595703125,0.4481201171875,-0.5111083984375,-0.0943603515625,6755,10195,480,15,-20,90
25543077,0.72625732421875,0.44415283203125,-0.51739501953125,-0.0869140625,6896,10087,445,14,-17,87
25553060,0.72528076171875,0.440185546875,-0.52325439453125,-0.07989501953125,7022,9931,435,11,-15,82
25563042,0.72454833984375,0.43634033203125,-0.52838134765625,-0.07342529296875,7114,9748,429,9,-12,76
25573025,0.72406005859375,0.43255615234375,-0.53289794921875,-0.06756591796875,7208,9568,425,5,-10,70
25583008,0.7237548828125,0.42901611328125,-0.53680419921875,-0.06231689453125,7281,9413,414,2,-8,63
25592994,0.72369384765625,0.425537109375,-0.5401611328125,-0.0577392578125,7335,9287,413,-1,-5,58
25602975,0.7239990234375,0.42205810546875,-0.54290771484375,-0.05377197265625,7303,9113,529,-4,-3,54
25612949,0.72467041015625,0.4183349609375,-0.5452880859375,-0.0499267578125,7234,8793,790,-6,-1,53
25622933,0.72552490234375,0.41436767578125,-0.54754638671875,-0.04571533203125,7069,8371,1160,-4,-1,56
25632920,0.7264404296875,0.4102783203125,-0.5498046875,-0.040771484375,6880,7875,1611,2,-1,60
25642900,0.72711181640625,0.4063720703125,-0.55218505859375,-0.03509521484375,6654,7343,2137,9,-2,63
25652888,0.7274169921875,0.4031982421875,-0.554443359375,-0.02886962890625,6429,6863,2730,19,-4,61
25662877,0.727294921875,0.40130615234375,-0.5562744140625,-0.022705078125,6309,6472,3372,31,-5,50
25672855,0.7266845703125,0.40142822265625,-0.55718994140625,-0.01715087890625,6325,6301,3890,42,-6,33
25682837,0.72552490234375,0.40399169921875,-0.55694580078125,-0.012939453125,6450,6333,4203,50,-4,10
25692822,0.72412109375,0.40887451171875,-0.55523681640625,-0.0103759765625,6645,6499,4290,56,0,-16
25702798,0.72259521484375,0.41607666015625,-0.55194091796875,-0.00982666015625,6828,6745,4166,58,4,-42
25712784,0.7210693359375,0.4249267578125,-0.54705810546875,-0.0111083984375,6950,7009,3882,58,10,-65
25722772,0.7197265625,0.43487548828125,-0.541015625,-0.01397705078125,6986,7263,3477,54,14,-81
25732754,0.71844482421875,0.44512939453125,-0.5341796875,-0.017822265625,6957,7499,3015,49,18,-88
25742742,0.7174072265625,0.455078125,-0.5269775390625,-0.02197265625,6839,7703,2527,43,21,-88
25752713,0.7166748046875,0.464111328125,-0.5198974609375,-0.02618408203125,6686,7890,2046,36,22,-82
25762697,0.71624755859375,0.4718017578125,-0.51324462890625,-0.03009033203125,6513,8027,1611,27,23,-72
25772679,0.71624755859375,0.47796630859375,-0.50738525390625,-0.03338623046875,6331,8098,1199,18,22,-59
25782665,0.716552734375,0.48248291015625,-0.50238037109375,-0.0360107421875,6119,8122,819,9,22,-44
25792641,0.71728515625,0.48541259765625,-0.4984130859375,-0.0379638671875,5887,8075,485,0,20,-30
25802625,0.71832275390625,0.48687744140625,-0.495361328125,-0.03936767578125,5666,7975,187,-8,18,-18
25812604,0.7197265625,0.4869384765625,-0.49322509765625,-0.04034423828125,5441,7783,-83,-15,16,-6
25822592,0.72125244140625,0.48590087890625,-0.49188232421875,-0.04095458984375,5245,7561,-316,-21,13,2
25832569,0.7230224609375,0.48394775390625,-0.4912109375,-0.04132080078125,5072,7303,-501,-26,11,9
25842552,0.72479248046875,0.4813232421875,-0.49114990234375,-0.04168701171875,4919,7032,-624,-30,8,13
25852536,0.72662353515625,0.47821044921875,-0.491455078125,-0.04205322265625,4776,6754,-694,-32,5,15
25862520,0.72845458984375,0.4747314453125,-0.4920654296875,-0.04254150390625,4667,6469,-713,-34,2,17
25872503,0.73016357421875,0.4710693359375,-0.4930419921875,-0.04302978515625,4607,6213,-680,-34,0,18
25882483,0.73175048828125,0.46728515625,-0.49420166015625,-0.04351806640625,4589,5965,-600,-34,-3,19
25892467,0.733154296875,0.46343994140625,-0.4957275390625,-0.04388427734375,4565,5699,-485,-31,-5,20
25902449,0.734375,0.459716796875,-0.49737548828125,-0.0440673828125,4546,5430,-326,-28,-7,20
25912438,0.73529052734375,0.45623779296875,-0.4991455078125,-0.04412841796875,4585,5181,-142,-24,-9,20
25922421,0.73590087890625,0.45318603515625,-0.50103759765625,-0.0439453125,4654,4958,54,-18,-10,19
25932405,0.7362060546875,0.45068359375,-0.5029296875,-0.04351806640625,4766,4780,242,-12,-10,17
25942381,0.73614501953125,0.4488525390625,-0.50469970703125,-0.0428466796875,4930,4691,407,-5,-10,15
25952368,0.73577880859375,0.44775390625,-0.50628662109375,-0.04193115234375,5108,4671,560,1,-9,11
25962350,0.735107421875,0.44757080078125,-0.50750732421875,-0.04107666015625,5276,4704,718,7,-8,6
25972334,0.7342529296875,0.44830322265625,-0.50811767578125,-0.04052734375,5443,4810,840,13,-6,-2
25982311,0.7332763671875,0.44989013671875,-0.5081787109375,-0.04022216796875,5595,4949,931,17,-5,-9
25992294,0.732177734375,0.45220947265625,-0.5076904296875,-0.040283203125,5728,5100,995,20,-2,-16
26002282,0.73101806640625,0.45513916015625,-0.5067138671875,-0.04058837890625,5806,5267,1041,22,0,-21
26012263,0.72991943359375,0.4583740234375,-0.50531005859375,-0.04107666015625,5842,5421,1074,23,1,-24
26022241,0.7288818359375,0.4617919921875,-0.50372314453125,-0.04156494140625,5870,5589,1067,23,3,-24
26032232,0.72784423828125,0.46514892578125,-0.5020751953125,-0.0418701171875,5883,5760,1040,23,4,-22
26042215,0.72698974609375,0.46820068359375,-0.50048828125,-0.04180908203125,5862,5919,1009,21,5,-17
26052196,0.72625732421875,0.4708251953125,-0.49920654296875,-0.0413818359375,5837,6077,964,20,6,-11
26062188,0.72564697265625,0.47283935546875,-0.4981689453125,-0.0406494140625,5828,6226,891,17,6,-6
26072173,0.72515869140625,0.47442626953125,-0.4974365234375,-0.0396728515625,5782,6353,789,14,6,-2
