subject,Joshua Spiesman
arm,left
label,0
hz,100.17542456978653
time,4.25254

timestamp_us,q0,q1,q2,q3,ax,ay,az,gx,gy,gz
76971784,0.51995849609375,-0.52154541015625,0.4781494140625,-0.478515625,-194,-8123,60,0,-8,2
76981773,0.52069091796875,-0.521728515625,0.47784423828125,-0.47784423828125,-209,-8129,50,0,-9,3
76991755,0.52154541015625,-0.52197265625,0.4775390625,-0.47698974609375,-219,-8128,29,0,-10,3
77001738,0.52239990234375,-0.522216796875,0.47705078125,-0.4761962890625,-198,-8101,12,1,-10,2
77011714,0.52325439453125,-0.52264404296875,0.47650146484375,-0.47540283203125,-187,-8072,5,1,-12,1
77021697,0.52410888671875,-0.52313232421875,0.47576904296875,-0.474609375,-184,-8050,-8,1,-12,0
77031680,0.52496337890625,-0.52374267578125,0.4749755859375,-0.47381591796875,-184,-8013,-5,0,-14,0
77041664,0.52581787109375,-0.52447509765625,0.47406005859375,-0.47296142578125,-191,-7991,-19,0,-14,-1
77051643,0.52667236328125,-0.52532958984375,0.47308349609375,-0.47210693359375,-186,-7982,7,0,-15,-2
77061628,0.52740478515625,-0.52630615234375,0.47198486328125,-0.47125244140625,-152,-7988,27,-1,-16,-2
77071608,0.52813720703125,-0.52728271484375,0.470947265625,-0.4703369140625,-114,-7979,31,-1,-16,-2
77081594,0.5289306640625,-0.5283203125,0.46990966796875,-0.4693603515625,-80,-7978,42,-2,-16,-2
77091575,0.5296630859375,-0.5294189453125,0.4688720703125,-0.4683837890625,-34,-7941,56,-2,-16,-2
77101555,0.5303955078125,-0.53045654296875,0.46783447265625,-0.4674072265625,27,-7891,94,-2,-16,-2
77111542,0.53106689453125,-0.5316162109375,0.46673583984375,-0.4664306640625,82,-7842,110,-3,-16,-2
77121523,0.53167724609375,-0.53271484375,0.4656982421875,-0.4654541015625,116,-7801,127,-3,-16,-2
77131503,0.5323486328125,-0.5338134765625,0.4647216796875,-0.46441650390625,118,-7784,166,-4,-16,-1
77141489,0.5330810546875,-0.53485107421875,0.4638671875,-0.4632568359375,103,-7803,204,-4,-16,0
77151471,0.53399658203125,-0.53570556640625,0.463134765625,-0.46197509765625,60,-7892,231,-4,-16,3
77161451,0.5350341796875,-0.53643798828125,0.46258544921875,-0.46044921875,-2,-8014,223,-4,-16,6
77171431,0.53631591796875,-0.53692626953125,0.46221923828125,-0.45867919921875,-81,-8134,207,-3,-17,8
77181423,0.53778076171875,-0.53741455078125,0.46185302734375,-0.45684814453125,-174,-8267,183,-2,-18,9
77191406,0.539306640625,-0.537841796875,0.46136474609375,-0.4549560546875,-262,-8415,140,-1,-19,8
77201394,0.5408935546875,-0.53839111328125,0.46063232421875,-0.453125,-341,-8542,118,0,-20,6
77211368,0.5426025390625,-0.53900146484375,0.45965576171875,-0.451416015625,-390,-8651,132,1,-21,4
77221350,0.5443115234375,-0.53961181640625,0.4583740234375,-0.44989013671875,-396,-8730,161,3,-22,3
77231332,0.546142578125,-0.54034423828125,0.45684814453125,-0.44842529296875,-388,-8773,203,4,-24,2
77241315,0.54803466796875,-0.541015625,0.455078125,-0.44708251953125,-372,-8776,241,5,-24,1
77251297,0.54998779296875,-0.54168701171875,0.45318603515625,-0.44573974609375,-347,-8753,274,6,-25,1
77261280,0.55206298828125,-0.5423583984375,0.45123291015625,-0.44439697265625,-328,-8735,276,7,-26,1
77271263,0.55419921875,-0.54296875,0.44921875,-0.44305419921875,-296,-8730,269,8,-26,2
77281241,0.5565185546875,-0.54345703125,0.447265625,-0.4415283203125,-255,-8738,249,8,-27,5
77291234,0.55889892578125,-0.5438232421875,0.44537353515625,-0.43988037109375,-177,-8721,218,9,-26,7
77301215,0.56146240234375,-0.5440673828125,0.44366455078125,-0.4381103515625,-103,-8662,210,10,-26,10
77311196,0.5640869140625,-0.54412841796875,0.4420166015625,-0.43634033203125,-61,-8599,219,10,-26,11
77321187,0.566650390625,-0.544189453125,0.4403076171875,-0.4346923828125,-33,-8538,236,10,-25,9
77331174,0.56903076171875,-0.54425048828125,0.43853759765625,-0.43316650390625,-18,-8483,252,10,-24,7
77341153,0.57122802734375,-0.54443359375,0.436767578125,-0.43194580078125,-8,-8439,259,10,-23,5
77351123,0.5732421875,-0.544677734375,0.43487548828125,-0.43084716796875,14,-8372,252,10,-22,3
77361106,0.5750732421875,-0.544921875,0.43304443359375,-0.42987060546875,51,-8280,240,9,-20,3
77371088,0.57672119140625,-0.545166015625,0.43145751953125,-0.42889404296875,107,-8193,230,8,-19,4
77381070,0.578369140625,-0.5452880859375,0.43011474609375,-0.42791748046875,137,-8086,272,7,-17,6
77391052,0.57989501953125,-0.5452880859375,0.42913818359375,-0.4268798828125,135,-8012,294,6,-15,7
77401033,0.581298828125,-0.545166015625,0.42840576171875,-0.42584228515625,121,-7979,315,5,-13,8
77411017,0.58258056640625,-0.54498291015625,0.42791748046875,-0.4248046875,99,-7956,323,4,-10,9
77420999,0.5836181640625,-0.54473876953125,0.427734375,-0.42388916015625,102,-7941,325,2,-8,9
77430989,0.58453369140625,-0.54443359375,0.42779541015625,-0.4229736328125,101,-7925,319,2,-6,10
77440964,0.58526611328125,-0.5440673828125,0.42803955078125,-0.422119140625,96,-7901,321,1,-4,11
77450947,0.5859375,-0.5435791015625,0.4285888671875,-0.42138671875,49,-7889,336,0,-2,11
77460930,0.58648681640625,-0.54290771484375,0.42926025390625,-0.420654296875,-6,-7878,364,0,1,11
77470911,0.58697509765625,-0.54217529296875,0.43017578125,-0.4200439453125,-83,-7895,396,-1,2,11
77480892,0.58740234375,-0.5413818359375,0.43115234375,-0.41949462890625,-175,-7903,410,-1,4,11
77490878,0.58770751953125,-0.54052734375,0.4322509765625,-0.4190673828125,-255,-7933,404,-1,5,10
77500856,0.58795166015625,-0.53961181640625,0.43341064453125,-0.41864013671875,-338,-7978,386,-1,6,10
77510843,0.58819580078125,-0.53863525390625,0.4346923828125,-0.41827392578125,-433,-8059,368,0,7,11
77520823,0.58843994140625,-0.53753662109375,0.43609619140625,-0.4178466796875,-556,-8110,347,0,7,11
77530806,0.58880615234375,-0.536376953125,0.4375,-0.41741943359375,-686,-8185,328,1,7,12
77540788,0.5892333984375,-0.53497314453125,0.43902587890625,-0.41693115234375,-823,-8239,334,1,8,13
77550767,0.58978271484375,-0.5335693359375,0.4405517578125,-0.41644287109375,-956,-8307,293,2,7,13
77560761,0.59039306640625,-0.53204345703125,0.442138671875,-0.41583251953125,-1063,-8372,243,3,7,15
77570742,0.591064453125,-0.5303955078125,0.4437255859375,-0.41522216796875,-1128,-8428,201,4,7,16
77580719,0.59197998046875,-0.52862548828125,0.44537353515625,-0.4144287109375,-1174,-8451,165,5,7,18
77590702,0.593017578125,-0.5267333984375,0.44708251953125,-0.41357421875,-1221,-8460,144,6,6,20
77600683,0.59417724609375,-0.52471923828125,0.44873046875,-0.41265869140625,-1237,-8471,140,7,6,21
77610669,0.59552001953125,-0.52252197265625,0.450439453125,-0.41162109375,-1254,-8466,145,8,6,23
77620653,0.596923828125,-0.52020263671875,0.45220947265625,-0.41058349609375,-1250,-8470,160,8,6,25
77630636,0.5985107421875,-0.51776123046875,0.4539794921875,-0.409423828125,-1262,-8475,171,9,6,26
77640616,0.60009765625,-0.5152587890625,0.4556884765625,-0.40838623046875,-1249,-8461,171,10,6,26
77650599,0.6016845703125,-0.5126953125,0.45733642578125,-0.40740966796875,-1252,-8444,175,11,6,25
77660581,0.6031494140625,-0.5101318359375,0.45892333984375,-0.40673828125,-1275,-8409,159,12,7,23
77670564,0.60443115234375,-0.50762939453125,0.46026611328125,-0.4063720703125,-1329,-8376,133,13,8,19
77680546,0.60552978515625,-0.5052490234375,0.46142578125,-0.4063720703125,-1365,-8358,96,14,9,15
77690528,0.60650634765625,-0.5029296875,0.46246337890625,-0.4066162109375,-1405,-8317,53,15,10,13
77700510,0.60736083984375,-0.5006103515625,0.46337890625,-0.4071044921875,-1425,-8278,7,16,10,11
77710495,0.60821533203125,-0.49822998046875,0.46429443359375,-0.40771484375,-1446,-8241,-10,17,11,11
77720479,0.60906982421875,-0.4957275390625,0.46527099609375,-0.408447265625,-1450,-8213,-10,18,12,12
77730461,0.6099853515625,-0.4930419921875,0.46630859375,-0.40911865234375,-1456,-8200,-4,18,13,14
77740449,0.6109619140625,-0.49017333984375,0.46759033203125,-0.40972900390625,-1479,-8179,17,19,14,16
77750433,0.6119384765625,-0.487060546875,0.46893310546875,-0.4102783203125,-1506,-8129,25,19,15,17
77760413,0.613037109375,-0.48388671875,0.47039794921875,-0.41082763671875,-1535,-8069,37,19,15,18
77770397,0.614013671875,-0.48065185546875,0.47198486328125,-0.411376953125,-1564,-8022,19,20,16,18
77780372,0.614990234375,-0.47735595703125,0.47357177734375,-0.41192626953125,-1601,-7982,-17,20,17,19
77790357,0.61590576171875,-0.4739990234375,0.47528076171875,-0.41241455078125,-1626,-7981,-52,20,17,20
77800338,0.616943359375,-0.47052001953125,0.47711181640625,-0.41278076171875,-1646,-7977,-100,20,17,22
77810321,0.61798095703125,-0.4669189453125,0.47906494140625,-0.41302490234375,-1641,-7986,-143,20,18,24
77820305,0.6190185546875,-0.463134765625,0.48126220703125,-0.4130859375,-1653,-8011,-162,20,18,27
77830286,0.62017822265625,-0.45928955078125,0.4835205078125,-0.41302490234375,-1667,-7958,-160,20,19,29
77840268,0.62139892578125,-0.45526123046875,0.48590087890625,-0.4129638671875,-1670,-7960,-150,20,19,29
77850256,0.6224365234375,-0.45135498046875,0.48822021484375,-0.41290283203125,-1678,-7935,-133,19,19,29
77860242,0.6234130859375,-0.4473876953125,0.4906005859375,-0.41290283203125,-1715,-7890,-135,19,20,27
77870223,0.62420654296875,-0.443603515625,0.4927978515625,-0.41314697265625,-1710,-7849,-121,19,21,25
77880206,0.624755859375,-0.43994140625,0.49493408203125,-0.41363525390625,-1732,-7796,-102,19,22,21
77890192,0.6251220703125,-0.4365234375,0.49688720703125,-0.41448974609375,-1754,-7778,-109,19,22,18
77900175,0.625244140625,-0.4332275390625,0.498779296875,-0.41546630859375,-1815,-7778,-103,19,23,15
77910157,0.625244140625,-0.42999267578125,0.50067138671875,-0.41656494140625,-1876,-7761,-95,18,23,14
77920128,0.6251220703125,-0.42694091796875,0.50250244140625,-0.41766357421875,-1927,-7715,-68,17,22,13
77930111,0.62506103515625,-0.4239501953125,0.5042724609375,-0.418701171875,-1965,-7628,-37,16,22,12
77940097,0.6248779296875,-0.42108154296875,0.5059814453125,-0.41973876953125,-1977,-7510,5,15,21,12
77950079,0.62469482421875,-0.41839599609375,0.50762939453125,-0.420654296875,-1975,-7415,64,13,20,11
77960060,0.62457275390625,-0.4158935546875,0.50921630859375,-0.4215087890625,-1980,-7300,152,12,19,11
77970044,0.62445068359375,-0.41351318359375,0.51068115234375,-0.42218017578125,-2014,-7206,270,11,17,11
77980026,0.62451171875,-0.41119384765625,0.5120849609375,-0.422607421875,-2103,-7126,408,9,15,12
77990008,0.6248779296875,-0.40899658203125,0.513427734375,-0.422607421875,-2252,-7085,560,8,12,14
77999995,0.62548828125,-0.40692138671875,0.51458740234375,-0.4222412109375,-2424,-7068,694,6,7,14
78009981,0.62646484375,-0.40509033203125,0.5155029296875,-0.4215087890625,-2638,-7075,849,5,2,14
78019953,0.6278076171875,-0.403564453125,0.51593017578125,-0.42047119140625,-2860,-7067,1009,4,-4,13
78029933,0.62945556640625,-0.40252685546875,0.51580810546875,-0.41912841796875,-3067,-7077,1195,3,-10,11
78039917,0.6314697265625,-0.40191650390625,0.51507568359375,-0.4176025390625,-3252,-7090,1387,2,-18,9
78049898,0.6337890625,-0.40185546875,0.51361083984375,-0.4158935546875,-3358,-7139,1593,2,-24,6
78059878,0.6363525390625,-0.40234375,0.5115966796875,-0.4140625,-3412,-7180,1782,1,-31,5
78069861,0.63916015625,-0.40325927734375,0.509033203125,-0.41204833984375,-3414,-7255,1936,0,-36,3
78079844,0.64208984375,-0.40447998046875,0.506103515625,-0.40985107421875,-3375,-7338,2065,-1,-40,3
78089823,0.645263671875,-0.406005859375,0.50274658203125,-0.407470703125,-3285,-7436,2163,-1,-44,3
78099807,0.6484375,-0.40771484375,0.499267578125,-0.40496826171875,-3192,-7565,2217,-1,-46,4
78109789,0.6517333984375,-0.4095458984375,0.49560546875,-0.40234375,-3071,-7705,2224,-1,-47,4
78119774,0.6549072265625,-0.41143798828125,0.49188232421875,-0.3997802734375,-2927,-7859,2186,0,-48,4
78129761,0.65802001953125,-0.413330078125,0.48809814453125,-0.39739990234375,-2774,-7999,2145,1,-47,3
78139745,0.66094970703125,-0.4151611328125,0.48431396484375,-0.395263671875,-2592,-8137,2055,3,-45,2
78149719,0.66363525390625,-0.4169921875,0.48046875,-0.39349365234375,-2384,-8248,1946,5,-43,0
78159705,0.66607666015625,-0.4185791015625,0.4766845703125,-0.3922119140625,-2163,-8361,1834,8,-39,0
78169688,0.66839599609375,-0.41986083984375,0.47308349609375,-0.391357421875,-1951,-8437,1752,11,-34,-1
78179668,0.6705322265625,-0.420654296875,0.4696044921875,-0.39105224609375,-1750,-8471,1705,14,-29,-1
78189657,0.672607421875,-0.42083740234375,0.4664306640625,-0.39105224609375,-1584,-8459,1689,18,-25,0
78199636,0.674560546875,-0.4205322265625,0.46356201171875,-0.39141845703125,-1439,-8397,1681,20,-19,2
78209618,0.67645263671875,-0.4195556640625,0.46112060546875,-0.39202880859375,-1322,-8259,1692,23,-14,3
78219603,0.67828369140625,-0.41815185546875,0.45904541015625,-0.39288330078125,-1258,-8104,1724,24,-9,4
78229585,0.679931640625,-0.41632080078125,0.45733642578125,-0.39398193359375,-1194,-7927,1751,25,-5,5
78239565,0.68145751953125,-0.4141845703125,0.45599365234375,-0.3951416015625,-1191,-7727,1782,26,-1,5
78249552,0.68280029296875,-0.41180419921875,0.45489501953125,-0.396484375,-1212,-7548,1823,26,2,6
78259533,0.68402099609375,-0.4093017578125,0.4541015625,-0.39794921875,-1253,-7360,1867,25,5,5
78269515,0.68505859375,-0.40667724609375,0.45355224609375,-0.39947509765625,-1299,-7198,1922,24,7,5
78279498,0.6859130859375,-0.40411376953125,0.45318603515625,-0.40106201171875,-1355,-7018,1991,23,9,4
78289481,0.6866455078125,-0.40155029296875,0.452880859375,-0.40264892578125,-1427,-6846,2083,21,10,3
78299463,0.687255859375,-0.39910888671875,0.45281982421875,-0.4041748046875,-1497,-6698,2170,18,11,3
78309449,0.6876220703125,-0.39678955078125,0.45294189453125,-0.4056396484375,-1552,-6590,2258,16,13,3
78319433,0.6878662109375,-0.3946533203125,0.4532470703125,-0.406982421875,-1615,-6508,2323,13,13,3
78329415,0.68792724609375,-0.3927001953125,0.4537353515625,-0.408203125,-1682,-6483,2363,11,14,2
78339398,0.68780517578125,-0.3909912109375,0.45440673828125,-0.4093017578125,-1737,-6500,2402,9,14,2
78349372,0.68743896484375,-0.3895263671875,0.45513916015625,-0.4105224609375,-1776,-6543,2400,6,15,0
78359356,0.68682861328125,-0.3883056640625,0.45599365234375,-0.4117431640625,-1822,-6609,2381,5,16,-1
78369334,0.68603515625,-0.38720703125,0.45697021484375,-0.41302490234375,-1866,-6714,2359,4,17,-2
78379318,0.68511962890625,-0.3861083984375,0.4581298828125,-0.41436767578125,-1915,-6829,2335,4,18,-2
78389305,0.68414306640625,-0.38494873046875,0.45941162109375,-0.41558837890625,-1950,-6946,2302,3,19,0
78399283,0.68316650390625,-0.383544921875,0.46087646484375,-0.416748046875,-2003,-7035,2286,4,20,2
78409267,0.68231201171875,-0.3819580078125,0.46258544921875,-0.4178466796875,-2045,-7115,2278,4,22,3
78419246,0.681396484375,-0.38018798828125,0.46435546875,-0.4189453125,-2094,-7192,2277,5,23,4
78429238,0.68048095703125,-0.37823486328125,0.4661865234375,-0.42010498046875,-2178,-7248,2298,6,24,4
78439224,0.6795654296875,-0.37615966796875,0.46807861328125,-0.42138671875,-2244,-7299,2324,6,25,4
78449206,0.67852783203125,-0.3740234375,0.47003173828125,-0.42279052734375,-2321,-7350,2357,7,27,3
78459192,0.6773681640625,-0.371826171875,0.471923828125,-0.4244384765625,-2404,-7374,2384,7,28,0
78469178,0.67608642578125,-0.36962890625,0.47381591796875,-0.42626953125,-2490,-7407,2406,8,28,-1
78479155,0.67474365234375,-0.36749267578125,0.47564697265625,-0.4283447265625,-2572,-7435,2429,8,29,-3
78489126,0.67327880859375,-0.36529541015625,0.4774169921875,-0.43048095703125,-2645,-7441,2453,9,30,-4
78499107,0.6717529296875,-0.363037109375,0.47918701171875,-0.43280029296875,-2702,-7437,2484,9,30,-5
78509089,0.67034912109375,-0.3607177734375,0.48095703125,-0.43499755859375,-2759,-7422,2521,10,30,-4
78519072,0.6689453125,-0.3582763671875,0.48272705078125,-0.4371337890625,-2804,-7407,2547,10,30,-3
78529056,0.66766357421875,-0.355712890625,0.484619140625,-0.43914794921875,-2865,-7411,2547,10,30,-1
78539041,0.66650390625,-0.35302734375,0.48651123046875,-0.44097900390625,-2922,-7408,2558,10,30,1
78549025,0.6654052734375,-0.35028076171875,0.4884033203125,-0.44268798828125,-2985,-7399,2563,10,29,2
78559007,0.66436767578125,-0.34747314453125,0.4903564453125,-0.44427490234375,-3040,-7384,2557,10,29,2
78568995,0.663330078125,-0.3447265625,0.49224853515625,-0.4459228515625,-3109,-7354,2562,10,28,2
78578977,0.66229248046875,-0.34210205078125,0.4940185546875,-0.44757080078125,-3193,-7323,2535,10,27,0
78588957,0.6611328125,-0.339599609375,0.49566650390625,-0.44927978515625,-3282,-7310,2499,10,26,-2
78598933,0.659912109375,-0.33734130859375,0.49725341796875,-0.45111083984375,-3337,-7290,2415,10,26,-4
78608916,0.65863037109375,-0.33514404296875,0.49871826171875,-0.45294189453125,-3392,-7258,2335,10,25,-5
78618900,0.6573486328125,-0.33306884765625,0.5,-0.45489501953125,-3419,-7220,2264,11,24,-6
78628884,0.6561279296875,-0.3310546875,0.50115966796875,-0.456787109375,-3444,-7168,2181,12,22,-6
78638864,0.655029296875,-0.32904052734375,0.50225830078125,-0.45867919921875,-3453,-7101,2114,12,21,-6
78648849,0.654052734375,-0.32696533203125,0.50323486328125,-0.46051025390625,-3472,-7042,2078,13,20,-5
78658829,0.6531982421875,-0.3248291015625,0.504150390625,-0.46221923828125,-3485,-6970,2075,13,19,-5
78668814,0.65234375,-0.32275390625,0.50494384765625,-0.4639892578125,-3538,-6896,2068,13,19,-6
78678796,0.65155029296875,-0.32073974609375,0.505615234375,-0.46575927734375,-3596,-6826,2100,13,17,-7
78688775,0.65069580078125,-0.31884765625,0.50616455078125,-0.46759033203125,-3652,-6738,2122,12,16,-9
78698767,0.6497802734375,-0.3172607421875,0.506591796875,-0.46954345703125,-3682,-6652,2134,11,15,-11
78708749,0.6488037109375,-0.31591796875,0.5069580078125,-0.47149658203125,-3719,-6559,2159,11,14,-13
78718732,0.6478271484375,-0.314697265625,0.50714111328125,-0.473388671875,-3746,-6465,2193,10,13,-14
78728707,0.64691162109375,-0.3135986328125,0.50726318359375,-0.4752197265625,-3772,-6390,2233,9,11,-14
78738690,0.64617919921875,-0.31256103515625,0.50732421875,-0.476806640625,-3798,-6323,2273,8,9,-12
78748672,0.64556884765625,-0.3116455078125,0.50732421875,-0.47821044921875,-3835,-6286,2313,7,8,-10
78758655,0.64520263671875,-0.310791015625,0.50738525390625,-0.47918701171875,-3871,-6278,2343,6,6,-8
78768637,0.64508056640625,-0.3099365234375,0.5074462890625,-0.4798583984375,-3891,-6296,2379,5,4,-5
78778623,0.64520263671875,-0.30914306640625,0.5074462890625,-0.480224609375,-3896,-6305,2403,4,2,-3
78788604,0.64544677734375,-0.3084716796875,0.5074462890625,-0.4803466796875,-3905,-6300,2417,3,-1,-2
78798585,0.6458740234375,-0.307861328125,0.50732421875,-0.48028564453125,-3919,-6312,2431,2,-2,-1
78808565,0.6463623046875,-0.3074951171875,0.50714111328125,-0.48004150390625,-3903,-6326,2423,2,-4,-1
78818549,0.64697265625,-0.30718994140625,0.5068359375,-0.479736328125,-3885,-6359,2415,2,-6,0
78828528,0.647705078125,-0.30706787109375,0.5064697265625,-0.479248046875,-3872,-6403,2379,1,-8,1
78838513,0.64862060546875,-0.3070068359375,0.5059814453125,-0.47857666015625,-3849,-6466,2334,1,-10,2
78848496,0.649658203125,-0.30706787109375,0.50537109375,-0.477783203125,-3802,-6526,2277,1,-12,3
78858478,0.65087890625,-0.30718994140625,0.504638671875,-0.47674560546875,-3735,-6584,2234,2,-14,5
78868460,0.65228271484375,-0.30731201171875,0.5037841796875,-0.47564697265625,-3668,-6598,2206,2,-16,6
78878438,0.65386962890625,-0.30755615234375,0.502685546875,-0.4744873046875,-3600,-6613,2195,2,-18,6
78888431,0.655517578125,-0.30792236328125,0.50146484375,-0.47332763671875,-3513,-6596,2182,2,-20,5
78898414,0.6571044921875,-0.3084716796875,0.49993896484375,-0.4722900390625,-3425,-6575,2191,3,-21,3
78908396,0.65875244140625,-0.3092041015625,0.498291015625,-0.47137451171875,-3329,-6554,2220,2,-22,2
78918372,0.6602783203125,-0.3101806640625,0.4964599609375,-0.470458984375,-3224,-6550,2275,2,-23,0
78928352,0.66180419921875,-0.311279296875,0.4945068359375,-0.4696044921875,-3131,-6574,2345,0,-24,0
78938335,0.663330078125,-0.3125,0.49267578125,-0.4686279296875,-3045,-6596,2422,-1,-23,1
78948316,0.664794921875,-0.313720703125,0.490966796875,-0.467529296875,-2979,-6642,2524,-3,-23,2
78958298,0.666259765625,-0.31494140625,0.48944091796875,-0.4661865234375,-2916,-6681,2641,-4,-22,4
78968280,0.66766357421875,-0.31622314453125,0.488037109375,-0.46478271484375,-2855,-6698,2770,-7,-21,4
78978264,0.66888427734375,-0.317626953125,0.48675537109375,-0.46337890625,-2800,-6726,2884,-8,-20,3
78988242,0.669921875,-0.319091796875,0.48565673828125,-0.4620361328125,-2762,-6755,3004,-10,-18,2
78998234,0.67071533203125,-0.32073974609375,0.48468017578125,-0.4608154296875,-2727,-6779,3117,-12,-17,0
79008217,0.67120361328125,-0.32244873046875,0.48382568359375,-0.4598388671875,-2688,-6791,3202,-13,-14,-2
79018193,0.67144775390625,-0.32427978515625,0.4830322265625,-0.458984375,-2667,-6811,3261,-14,-13,-4
79028185,0.67156982421875,-0.3260498046875,0.48248291015625,-0.4581298828125,-2653,-6838,3283,-14,-11,-4
79038174,0.67156982421875,-0.32781982421875,0.48211669921875,-0.45721435546875,-2652,-6879,3265,-15,-10,-3
79048144,0.67156982421875,-0.3294677734375,0.48193359375,-0.45623779296875,-2678,-6948,3218,-15,-9,-1
79058125,0.671630859375,-0.3310546875,0.48187255859375,-0.455078125,-2702,-7064,3137,-14,-10,1
79068105,0.67181396484375,-0.33251953125,0.48187255859375,-0.4537353515625,-2737,-7201,3035,-14,-10,2
79078086,0.67205810546875,-0.3338623046875,0.4818115234375,-0.452392578125,-2763,-7337,2921,-12,-10,3
79088070,0.67242431640625,-0.335205078125,0.481689453125,-0.4510498046875,-2791,-7455,2804,-11,-11,3
79098051,0.6727294921875,-0.33648681640625,0.48138427734375,-0.44989013671875,-2816,-7544,2691,-9,-12,1
79108039,0.67315673828125,-0.3377685546875,0.48089599609375,-0.44891357421875,-2860,-7595,2607,-7,-13,-1
79118015,0.67352294921875,-0.33917236328125,0.4801025390625,-0.44818115234375,-2903,-7638,2549,-5,-14,-3
79127997,0.67388916015625,-0.34051513671875,0.4791259765625,-0.44757080078125,-2961,-7665,2499,-4,-15,-5
79137987,0.67431640625,-0.3419189453125,0.47802734375,-0.44708251953125,-3010,-7677,2458,-4,-16,-6
79147962,0.67474365234375,-0.3433837890625,0.47674560546875,-0.4466552734375,-3063,-7677,2429,-3,-17,-7
79157946,0.67523193359375,-0.34490966796875,0.47540283203125,-0.4461669921875,-3119,-7693,2398,-3,-18,-7
79167928,0.6759033203125,-0.34637451171875,0.47393798828125,-0.445556640625,-3178,-7699,2371,-2,-20,-6
79177912,0.67669677734375,-0.34783935546875,0.472412109375,-0.44482421875,-3215,-7680,2344,-2,-21,-5
79187893,0.677734375,-0.3492431640625,0.4708251953125,-0.44384765625,-3223,-7651,2354,-2,-23,-3
79197878,0.67901611328125,-0.3505859375,0.468994140625,-0.44268798828125,-3203,-7615,2374,-2,-25,-1
79207865,0.68048095703125,-0.3519287109375,0.4671630859375,-0.44140625,-3163,-7568,2415,-1,-26,1
79217844,0.68206787109375,-0.35321044921875,0.4652099609375,-0.4400634765625,-3121,-7515,2464,-1,-27,2
79227827,0.6837158203125,-0.35443115234375,0.463134765625,-0.4385986328125,-3091,-7449,2513,-1,-28,2
79237811,0.6854248046875,-0.355712890625,0.4610595703125,-0.4371337890625,-3071,-7392,2534,-1,-28,1
79247793,0.68707275390625,-0.3570556640625,0.4588623046875,-0.43572998046875,-3045,-7321,2563,-1,-28,0
79257784,0.6885986328125,-0.35845947265625,0.45660400390625,-0.43450927734375,-3012,-7235,2566,0,-28,-2
79267764,0.69012451171875,-0.35992431640625,0.45428466796875,-0.433349609375,-2954,-7143,2580,-1,-28,-3
79277744,0.6915283203125,-0.3614501953125,0.451904296875,-0.4322509765625,-2888,-7065,2602,-1,-28,-3
79287720,0.6929931640625,-0.3629150390625,0.44964599609375,-0.43115234375,-2827,-7002,2627,-1,-28,-2
79297709,0.6944580078125,-0.36431884765625,0.44744873046875,-0.42987060546875,-2781,-6944,2634,-2,-27,0
79307687,0.69598388671875,-0.3656005859375,0.4454345703125,-0.4283447265625,-2725,-6918,2649,-3,-27,3
79317669,0.69757080078125,-0.36688232421875,0.443603515625,-0.42657470703125,-2674,-6903,2633,-3,-27,4
79327653,0.69915771484375,-0.36810302734375,0.44183349609375,-0.42474365234375,-2652,-6897,2616,-3,-26,5
79337636,0.70074462890625,-0.36932373046875,0.44012451171875,-0.42291259765625,-2611,-6902,2593,-3,-26,5
79347618,0.7021484375,-0.37060546875,0.43841552734375,-0.42120361328125,-2589,-6930,2594,-3,-26,4
79357598,0.70355224609375,-0.37188720703125,0.4366455078125,-0.4195556640625,-2568,-6994,2592,-3,-25,3
79367582,0.70489501953125,-0.37310791015625,0.4349365234375,-0.41790771484375,-2561,-7095,2594,-3,-25,4
79377564,0.706298828125,-0.37432861328125,0.433349609375,-0.41619873046875,-2562,-7215,2582,-2,-24,5
79387547,0.707763671875,-0.3753662109375,0.43182373046875,-0.414306640625,-2573,-7319,2565,-2,-24,8
79397529,0.7093505859375,-0.376220703125,0.430419921875,-0.41229248046875,-2569,-7385,2545,-2,-24,10
79407510,0.71099853515625,-0.376953125,0.4290771484375,-0.41015625,-2558,-7452,2507,-1,-24,11
79417499,0.71258544921875,-0.377685546875,0.427734375,-0.40814208984375,-2525,-7454,2467,0,-24,10
79427479,0.71417236328125,-0.37847900390625,0.42626953125,-0.40618896484375,-2449,-7467,2440,0,-23,9
79437461,0.71563720703125,-0.37921142578125,0.42474365234375,-0.40447998046875,-2375,-7437,2426,1,-23,8
79447449,0.717041015625,-0.37994384765625,0.4232177734375,-0.40289306640625,-2260,-7459,2426,1,-22,7
79457432,0.7183837890625,-0.38067626953125,0.42169189453125,-0.40142822265625,-2137,-7535,2428,1,-21,8
79467415,0.7197265625,-0.38128662109375,0.4202880859375,-0.39990234375,-2035,-7588,2415,2,-19,9
79477397,0.72100830078125,-0.3818359375,0.4190673828125,-0.39837646484375,-1937,-7610,2409,2,-18,10
79487374,0.72216796875,-0.38226318359375,0.41796875,-0.3970947265625,-1846,-7627,2396,2,-15,9
79497356,0.7230224609375,-0.38275146484375,0.4168701171875,-0.39617919921875,-1763,-7602,2380,2,-14,5
79507339,0.7236328125,-0.38323974609375,0.41571044921875,-0.39569091796875,-1714,-7560,2358,3,-11,1
79517321,0.72406005859375,-0.38385009765625,0.41448974609375,-0.39569091796875,-1670,-7514,2350,3,-10,-3
79527301,0.72418212890625,-0.38446044921875,0.413330078125,-0.3961181640625,-1638,-7502,2345,4,-8,-6
79537285,0.72418212890625,-0.38507080078125,0.41217041015625,-0.39666748046875,-1650,-7467,2338,4,-7,-6
79547267,0.72418212890625,-0.38555908203125,0.4111328125,-0.39727783203125,-1661,-7424,2343,5,-6,-7
79557245,0.7242431640625,-0.3858642578125,0.41021728515625,-0.39788818359375,-1683,-7344,2352,5,-5,-5
79567238,0.724365234375,-0.385986328125,0.40936279296875,-0.3983154296875,-1738,-7257,2363,5,-5,-4
79577220,0.7244873046875,-0.38623046875,0.40863037109375,-0.39874267578125,-1793,-7170,2358,5,-5,-5
79587206,0.724609375,-0.38641357421875,0.4078369140625,-0.3990478515625,-1857,-7042,2374,4,-6,-5
79597191,0.7247314453125,-0.38677978515625,0.40704345703125,-0.3994140625,-1902,-6974,2398,3,-6,-5
79607174,0.72479248046875,-0.38720703125,0.40625,-0.39959716796875,-1950,-6950,2417,2,-7,-5
79617156,0.7249755859375,-0.3876953125,0.405517578125,-0.39959716796875,-2033,-6891,2464,0,-8,-4
79627126,0.72509765625,-0.3883056640625,0.40484619140625,-0.39935302734375,-2089,-6858,2511,-2,-8,-3
79637109,0.7252197265625,-0.38916015625,0.404296875,-0.39892578125,-2170,-6860,2515,-4,-9,-2
79647090,0.72540283203125,-0.3900146484375,0.40386962890625,-0.39825439453125,-2229,-6846,2540,-5,-10,-1
79657078,0.72552490234375,-0.39105224609375,0.40350341796875,-0.39727783203125,-2312,-6857,2553,-8,-11,0
79667056,0.7257080078125,-0.39227294921875,0.4031982421875,-0.3961181640625,-2399,-6902,2561,-10,-12,1
79677039,0.72589111328125,-0.39361572265625,0.40301513671875,-0.3946533203125,-2465,-6965,2571,-11,-12,3
79687022,0.72613525390625,-0.39501953125,0.40289306640625,-0.39288330078125,-2525,-7046,2568,-13,-13,5
79697005,0.7264404296875,-0.396484375,0.40283203125,-0.39080810546875,-2578,-7137,2558,-13,-15,7
79706992,0.72686767578125,-0.3980712890625,0.40277099609375,-0.3885498046875,-2626,-7201,2555,-14,-16,7
79716975,0.727294921875,-0.399658203125,0.402587890625,-0.38623046875,-2672,-7253,2550,-14,-17,7
79726952,0.727783203125,-0.40130615234375,0.40228271484375,-0.38397216796875,-2709,-7312,2560,-14,-18,6
79736933,0.72821044921875,-0.403076171875,0.4017333984375,-0.38177490234375,-2751,-7348,2560,-13,-20,4
79746915,0.72869873046875,-0.4049072265625,0.4010009765625,-0.3797607421875,-2794,-7386,2551,-13,-21,2
79756899,0.72930908203125,-0.40667724609375,0.39996337890625,-0.3778076171875,-2820,-7410,2559,-11,-22,2
79766882,0.73004150390625,-0.40838623046875,0.39886474609375,-0.375732421875,-2849,-7434,2565,-10,-23,3
79776864,0.73095703125,-0.409912109375,0.39764404296875,-0.37347412109375,-2852,-7427,2573,-9,-25,5
79786847,0.732177734375,-0.41131591796875,0.39642333984375,-0.3709716796875,-2840,-7388,2603,-8,-26,8
79796829,0.73358154296875,-0.4124755859375,0.39508056640625,-0.36822509765625,-2799,-7319,2640,-8,-27,11
79806813,0.7352294921875,-0.41363525390625,0.39373779296875,-0.36517333984375,-2764,-7261,2682,-8,-29,13
79816794,0.7369384765625,-0.41473388671875,0.39227294921875,-0.3619384765625,-2716,-7189,2724,-8,-30,14
79826772,0.73870849609375,-0.4158935546875,0.39080810546875,-0.358642578125,-2666,-7134,2754,-8,-31,15
79836764,0.74041748046875,-0.41717529296875,0.3892822265625,-0.355224609375,-2642,-7107,2780,-9,-32,15
79846748,0.7421875,-0.4185791015625,0.3876953125,-0.35162353515625,-2624,-7093,2790,-10,-33,15
79856732,0.743896484375,-0.42010498046875,0.38604736328125,-0.347900390625,-2605,-7116,2803,-11,-34,16
79866710,0.74560546875,-0.4217529296875,0.38446044921875,-0.34405517578125,-2578,-7164,2792,-12,-35,17
79876690,0.747314453125,-0.42352294921875,0.3828125,-0.3399658203125,-2544,-7221,2780,-13,-36,18
79886672,0.74908447265625,-0.42529296875,0.38116455078125,-0.335693359375,-2516,-7282,2778,-14,-37,19
79896656,0.7508544921875,-0.42718505859375,0.37945556640625,-0.33135986328125,-2500,-7359,2765,-14,-37,19
79906637,0.7525634765625,-0.4290771484375,0.37762451171875,-0.326904296875,-2471,-7452,2752,-14,-38,20
79916621,0.75439453125,-0.43096923828125,0.3758544921875,-0.3223876953125,-2458,-7545,2730,-14,-39,21
79926604,0.7562255859375,-0.43280029296875,0.37396240234375,-0.31781005859375,-2446,-7635,2717,-13,-39,21
79936585,0.758056640625,-0.4345703125,0.3719482421875,-0.313232421875,-2413,-7691,2685,-12,-40,21
79946568,0.760009765625,-0.436279296875,0.369873046875,-0.30865478515625,-2403,-7730,2664,-11,-40,21
79956552,0.76202392578125,-0.4378662109375,0.36767578125,-0.30401611328125,-2385,-7747,2651,-10,-41,22
79966535,0.76409912109375,-0.43939208984375,0.3653564453125,-0.29931640625,-2348,-7717,2642,-9,-42,22
79976517,0.7662353515625,-0.4407958984375,0.363037109375,-0.29461669921875,-2310,-7694,2660,-9,-42,23
79986501,0.7684326171875,-0.44219970703125,0.36065673828125,-0.28973388671875,-2280,-7647,2660,-9,-43,25
79996483,0.7706298828125,-0.4434814453125,0.3582763671875,-0.28466796875,-2256,-7584,2680,-9,-43,26
80006465,0.77294921875,-0.44476318359375,0.3558349609375,-0.27947998046875,-2217,-7515,2704,-10,-45,27
80016449,0.775146484375,-0.44610595703125,0.3533935546875,-0.27410888671875,-2198,-7458,2704,-10,-45,27
80026434,0.77740478515625,-0.44757080078125,0.35089111328125,-0.268798828125,-2187,-7388,2713,-11,-46,26
80036417,0.779541015625,-0.44903564453125,0.3482666015625,-0.26336669921875,-2189,-7343,2711,-12,-47,26
80046402,0.78167724609375,-0.45062255859375,0.3455810546875,-0.2578125,-2191,-7321,2692,-12,-48,26
80056379,0.78375244140625,-0.45233154296875,0.34283447265625,-0.25225830078125,-2187,-7301,2679,-13,-48,26
80068995,0.7857666015625,-0.4541015625,0.3399658203125,-0.24658203125,-2176,-7293,2666,-14,-49,26
80076343,0.78765869140625,-0.4559326171875,0.33709716796875,-0.24090576171875,-2161,-7304,2645,-15,-49,25
80086327,0.78948974609375,-0.45794677734375,0.3341064453125,-0.23516845703125,-2139,-7330,2618,-15,-50,25
80096309,0.791259765625,-0.4599609375,0.3311767578125,-0.2294921875,-2133,-7400,2597,-15,-50,25
80106293,0.79296875,-0.4620361328125,0.32818603515625,-0.2237548828125,-2126,-7491,2586,-16,-50,25
80116275,0.79461669921875,-0.4639892578125,0.32525634765625,-0.2178955078125,-2118,-7575,2579,-15,-50,27
80126257,0.7962646484375,-0.46588134765625,0.32232666015625,-0.21209716796875,-2100,-7657,2572,-14,-49,27
80136238,0.79791259765625,-0.46759033203125,0.31951904296875,-0.206298828125,-2087,-7704,2574,-14,-48,28
80146229,0.799560546875,-0.46923828125,0.3167724609375,-0.2005615234375,-2063,-7710,2575,-13,-47,28
80156211,0.8011474609375,-0.47064208984375,0.3140869140625,-0.19488525390625,-2054,-7680,2589,-12,-46,28
80166190,0.80279541015625,-0.47186279296875,0.3114013671875,-0.18939208984375,-2059,-7649,2605,-10,-45,28
80176182,0.80438232421875,-0.47296142578125,0.30889892578125,-0.1839599609375,-2067,-7613,2619,-10,-43,27
80186165,0.80596923828125,-0.473876953125,0.30645751953125,-0.1785888671875,-2102,-7583,2615,-9,-42,27
80196140,0.8074951171875,-0.47479248046875,0.30413818359375,-0.17327880859375,-2143,-7548,2588,-9,-41,28
80206118,0.8089599609375,-0.47552490234375,0.302001953125,-0.16796875,-2202,-7483,2556,-8,-40,28
80216100,0.81036376953125,-0.47625732421875,0.2999267578125,-0.16265869140625,-2262,-7421,2529,-8,-39,28
80226082,0.811767578125,-0.4769287109375,0.29791259765625,-0.157470703125,-2316,-7348,2490,-8,-39,27
80236064,0.81304931640625,-0.47760009765625,0.29595947265625,-0.15228271484375,-2377,-7248,2454,-8,-38,27
80246051,0.8143310546875,-0.47833251953125,0.29400634765625,-0.14715576171875,-2431,-7147,2428,-8,-38,26
80256030,0.81549072265625,-0.47900390625,0.2919921875,-0.14202880859375,-2461,-7025,2424,-9,-38,26
80266012,0.816650390625,-0.47979736328125,0.29010009765625,-0.1368408203125,-2492,-6919,2412,-10,-38,27
80275996,0.81768798828125,-0.4805908203125,0.288330078125,-0.13153076171875,-2525,-6830,2421,-11,-37,28
80285982,0.818603515625,-0.48150634765625,0.28656005859375,-0.12603759765625,-2520,-6764,2435,-13,-37,29
80295959,0.8194580078125,-0.48248291015625,0.284912109375,-0.1204833984375,-2517,-6708,2458,-14,-36,29
80305940,0.82012939453125,-0.48358154296875,0.2833251953125,-0.114990234375,-2507,-6656,2477,-16,-36,29
80315923,0.8206787109375,-0.48480224609375,0.28173828125,-0.1097412109375,-2502,-6626,2501,-17,-34,26
80325904,0.821044921875,-0.48626708984375,0.28009033203125,-0.10479736328125,-2525,-6642,2534,-18,-33,23
80335888,0.8211669921875,-0.48785400390625,0.2784423828125,-0.10028076171875,-2563,-6688,2572,-19,-31,20
80345870,0.8212890625,-0.489501953125,0.27691650390625,-0.09588623046875,-2626,-6777,2602,-19,-30,19
80355853,0.8212890625,-0.49114990234375,0.27545166015625,-0.091552734375,-2682,-6899,2648,-19,-29,20
80365836,0.82122802734375,-0.49267578125,0.2742919921875,-0.08709716796875,-2753,-7021,2688,-19,-28,23
80375818,0.82122802734375,-0.49395751953125,0.27337646484375,-0.0823974609375,-2827,-7120,2714,-18,-27,25
80385803,0.82122802734375,-0.4951171875,0.27264404296875,-0.07757568359375,-2884,-7210,2739,-17,-26,27
80395784,0.8212890625,-0.49609375,0.27197265625,-0.07281494140625,-2935,-7270,2783,-16,-25,28
80405770,0.8214111328125,-0.49688720703125,0.27142333984375,-0.06805419921875,-2966,-7295,2826,-15,-24,28
80415753,0.82159423828125,-0.49761962890625,0.27081298828125,-0.0634765625,-3000,-7297,2866,-14,-24,27
80425737,0.82171630859375,-0.49822998046875,0.27020263671875,-0.05914306640625,-3038,-7311,2897,-13,-23,25
80435713,0.8218994140625,-0.498779296875,0.26947021484375,-0.0550537109375,-3078,-7305,2938,-12,-22,23
80445697,0.8221435546875,-0.499267578125,0.26861572265625,-0.05133056640625,-3108,-7292,2969,-11,-22,20
80455679,0.82232666015625,-0.49981689453125,0.26763916015625,-0.04791259765625,-3120,-7267,2994,-10,-21,17
80465660,0.822509765625,-0.5003662109375,0.2664794921875,-0.04498291015625,-3115,-7211,3006,-9,-21,13
80475644,0.82269287109375,-0.50103759765625,0.26519775390625,-0.04248046875,-3093,-7173,3001,-9,-20,10
80485626,0.82281494140625,-0.501708984375,0.2637939453125,-0.0404052734375,-3082,-7133,2981,-9,-19,6
80495608,0.82293701171875,-0.50250244140625,0.26226806640625,-0.03863525390625,-3066,-7112,2960,-8,-18,4
80505590,0.82305908203125,-0.503173828125,0.2607421875,-0.03704833984375,-3038,-7097,2938,-7,-17,3
80515574,0.82318115234375,-0.50384521484375,0.25927734375,-0.03564453125,-3016,-7094,2922,-6,-16,3
80525555,0.82330322265625,-0.50445556640625,0.2579345703125,-0.03424072265625,-2990,-7097,2905,-6,-15,3
80535542,0.823486328125,-0.50482177734375,0.2567138671875,-0.0328369140625,-2958,-7092,2913,-5,-15,4
80545522,0.82373046875,-0.505126953125,0.25555419921875,-0.03143310546875,-2942,-7090,2914,-3,-14,5
80555503,0.82403564453125,-0.50518798828125,0.2545166015625,-0.030029296875,-2942,-7075,2954,-2,-14,6
80565483,0.824462890625,-0.505126953125,0.25347900390625,-0.02874755859375,-2948,-7057,3003,-1,-13,5
80575471,0.824951171875,-0.5050048828125,0.25238037109375,-0.0277099609375,-2949,-7018,3108,0,-13,3
80585449,0.82550048828125,-0.50469970703125,0.25115966796875,-0.02703857421875,-2951,-6968,3213,1,-12,0
80595437,0.826171875,-0.50433349609375,0.249755859375,-0.026611328125,-2954,-6925,3337,2,-11,-3
80605415,0.826904296875,-0.50384521484375,0.24835205078125,-0.02642822265625,-2948,-6887,3465,3,-11,-3
80615398,0.82763671875,-0.50323486328125,0.24700927734375,-0.0262451171875,-2954,-6872,3573,4,-10,-3
80625375,0.82843017578125,-0.50250244140625,0.245849609375,-0.02593994140625,-2972,-6879,3694,5,-10,-1
80635360,0.82928466796875,-0.5015869140625,0.244873046875,-0.02545166015625,-3000,-6909,3772,6,-9,1
80645342,0.8302001953125,-0.50054931640625,0.2440185546875,-0.02484130859375,-3037,-6951,3814,6,-9,3
80655324,0.83111572265625,-0.49945068359375,0.243408203125,-0.024169921875,-3056,-6998,3784,8,-8,5
80665307,0.83197021484375,-0.49822998046875,0.24285888671875,-0.0234375,-3080,-7027,3714,9,-8,5
80675293,0.8328857421875,-0.49700927734375,0.2423095703125,-0.02294921875,-3085,-7034,3648,11,-7,3
80685273,0.8338623046875,-0.49566650390625,0.24176025390625,-0.02276611328125,-3062,-6992,3577,12,-6,2
80695256,0.83489990234375,-0.4942626953125,0.24114990234375,-0.02276611328125,-3033,-6916,3500,13,-6,0
80705245,0.8359375,-0.49267578125,0.24066162109375,-0.02294921875,-2982,-6834,3419,15,-4,0
80715228,0.83697509765625,-0.49102783203125,0.24029541015625,-0.023193359375,-2931,-6751,3354,16,-3,1
80725210,0.83807373046875,-0.4892578125,0.2401123046875,-0.02337646484375,-2876,-6650,3297,16,-2,2
80735195,0.83917236328125,-0.48736572265625,0.2401123046875,-0.02362060546875,-2829,-6548,3247,17,-1,3
80745183,0.8402099609375,-0.48541259765625,0.2403564453125,-0.02392578125,-2781,-6440,3209,18,1,3
80755164,0.84130859375,-0.4833984375,0.24072265625,-0.02435302734375,-2740,-6321,3168,18,3,3
80765139,0.84228515625,-0.48126220703125,0.2413330078125,-0.02484130859375,-2708,-6190,3174,19,5,3
80775117,0.84326171875,-0.47918701171875,0.2420654296875,-0.0255126953125,-2695,-6076,3204,18,7,2
80785099,0.84423828125,-0.47698974609375,0.24298095703125,-0.0262451171875,-2720,-5957,3259,18,8,2
80795080,0.84515380859375,-0.4747314453125,0.24407958984375,-0.0269775390625,-2739,-5837,3346,18,9,3
80805065,0.84600830078125,-0.4725341796875,0.24530029296875,-0.0277099609375,-2800,-5722,3439,17,11,3
80815051,0.8468017578125,-0.4703369140625,0.2467041015625,-0.02838134765625,-2884,-5605,3550,15,12,3
80825030,0.84747314453125,-0.46832275390625,0.2481689453125,-0.0289306640625,-2990,-5503,3684,13,12,4
80835010,0.8480224609375,-0.46649169921875,0.24969482421875,-0.0294189453125,-3100,-5407,3808,10,12,3
80844996,0.848388671875,-0.4649658203125,0.25115966796875,-0.02972412109375,-3225,-5349,3939,7,11,3
80854981,0.8486328125,-0.4637451171875,0.2525634765625,-0.02984619140625,-3344,-5318,4029,4,10,3
80864958,0.84869384765625,-0.462890625,0.25390625,-0.02984619140625,-3448,-5337,4095,0,9,3
80874940,0.8486328125,-0.46240234375,0.255126953125,-0.02978515625,-3537,-5412,4112,-2,8,3
80884920,0.848388671875,-0.46221923828125,0.2562255859375,-0.029541015625,-3603,-5528,4104,-4,6,3
80894903,0.84814453125,-0.46221923828125,0.2572021484375,-0.02923583984375,-3669,-5664,4063,-5,5,3
80904886,0.8477783203125,-0.46240234375,0.258056640625,-0.02899169921875,-3713,-5810,4003,-5,5,2
80914868,0.847412109375,-0.462646484375,0.25885009765625,-0.02874755859375,-3736,-5946,3930,-5,4,1
80924850,0.8470458984375,-0.46295166015625,0.25946044921875,-0.02862548828125,-3753,-6074,3850,-5,3,0
80934836,0.84674072265625,-0.4632568359375,0.2598876953125,-0.02880859375,-3756,-6192,3782,-4,3,-2
80944815,0.84649658203125,-0.46356201171875,0.26025390625,-0.02911376953125,-3751,-6299,3692,-3,3,-3
80954796,0.84625244140625,-0.4637451171875,0.26055908203125,-0.02960205078125,-3736,-6378,3629,-1,3,-4
80964784,0.8460693359375,-0.4638671875,0.2608642578125,-0.0301513671875,-3719,-6442,3578,0,3,-4
80974767,0.845947265625,-0.46392822265625,0.2611083984375,-0.03082275390625,-3709,-6488,3534,1,4,-5
80984753,0.8458251953125,-0.4638671875,0.261474609375,-0.0313720703125,-3724,-6515,3508,1,3,-4
80994735,0.84576416015625,-0.46368408203125,0.2618408203125,-0.0318603515625,-3747,-6548,3487,2,3,-3
81004711,0.84576416015625,-0.46356201171875,0.26214599609375,-0.03228759765625,-3770,-6575,3471,2,2,-3
81014695,0.84576416015625,-0.46337890625,0.262451171875,-0.0325927734375,-3789,-6573,3454,2,2,-2
81024675,0.84576416015625,-0.4632568359375,0.2626953125,-0.0328369140625,-3790,-6578,3435,1,1,-2
81034659,0.84576416015625,-0.463134765625,0.2628173828125,-0.032958984375,-3776,-6595,3409,1,0,-2
81044643,0.8458251953125,-0.4630126953125,0.262939453125,-0.03302001953125,-3747,-6607,3388,2,-1,-1
81054627,0.84588623046875,-0.46282958984375,0.26300048828125,-0.03302001953125,-3702,-6620,3366,2,-1,0
81064606,0.845947265625,-0.462646484375,0.26300048828125,-0.032958984375,-3648,-6613,3352,2,-1,0
81074588,0.8460693359375,-0.46246337890625,0.26300048828125,-0.03289794921875,-3590,-6619,3328,2,-1,0
81084572,0.84619140625,-0.4622802734375,0.262939453125,-0.03289794921875,-3544,-6605,3306,2,-2,0
81094554,0.84637451171875,-0.4620361328125,0.26287841796875,-0.032958984375,-3496,-6598,3308,3,-2,0
81104542,0.8465576171875,-0.461669921875,0.2628173828125,-0.0330810546875,-3446,-6590,3307,4,-1,-1
81114517,0.8468017578125,-0.4613037109375,0.2626953125,-0.033203125,-3401,-6565,3339,4,-1,-1
81124500,0.8470458984375,-0.46087646484375,0.26263427734375,-0.033447265625,-3360,-6534,3363,4,-1,-1
81134482,0.8472900390625,-0.46044921875,0.26251220703125,-0.03369140625,-3333,-6476,3408,4,-1,-2
81144468,0.8475341796875,-0.46002197265625,0.262451171875,-0.03399658203125,-3284,-6401,3424,4,0,-2
81154450,0.84771728515625,-0.45965576171875,0.26239013671875,-0.03436279296875,-3257,-6335,3474,3,1,-3
81164430,0.847900390625,-0.45941162109375,0.26226806640625,-0.03485107421875,-3209,-6265,3503,2,1,-4
81174420,0.8480224609375,-0.459228515625,0.26214599609375,-0.03546142578125,-3161,-6203,3540,2,2,-5
81184399,0.8480224609375,-0.45916748046875,0.2620849609375,-0.03619384765625,-3114,-6153,3549,0,2,-5
81194377,0.847900390625,-0.45928955078125,0.2620849609375,-0.03692626953125,-3082,-6156,3548,-1,3,-6
81204357,0.8477783203125,-0.45947265625,0.26214599609375,-0.03759765625,-3074,-6189,3546,-1,4,-4
81214341,0.8475341796875,-0.459716796875,0.26239013671875,-0.0382080078125,-3075,-6249,3527,-2,4,-3
81224324,0.8472900390625,-0.4599609375,0.26275634765625,-0.03857421875,-3080,-6317,3495,-2,5,-1
