subject,Joshua Spiesman
arm,right
label,2
hz,100.17691585500238
time,5.260693

timestamp_us,q0,q1,q2,q3,ax,ay,az,gx,gy,gz
252912525,0.00189208984375,0.07275390625,0.685546875,-0.724365234375,-802,-7664,222,-2,7,1
252922506,0.00140380859375,0.07366943359375,0.68572998046875,-0.72412109375,-792,-7667,227,-2,8,2
252932489,0.0010986328125,0.0748291015625,0.68597412109375,-0.7237548828125,-791,-7665,209,-3,8,5
252942466,0.0009765625,0.0762939453125,0.68621826171875,-0.723388671875,-792,-7636,202,-3,9,8
252952458,0.0010986328125,0.07806396484375,0.68646240234375,-0.72296142578125,-807,-7627,194,-4,10,11
252962440,0.0013427734375,0.08001708984375,0.68670654296875,-0.7225341796875,-828,-7639,193,-4,10,12
252972424,0.0015869140625,0.0821533203125,0.68695068359375,-0.7220458984375,-876,-7701,188,-4,11,13
252982398,0.001708984375,0.0843505859375,0.687255859375,-0.72149658203125,-909,-7796,181,-4,12,12
252992385,0.0015869140625,0.0865478515625,0.68756103515625,-0.720947265625,-931,-7887,157,-5,13,11
253002364,0.0013427734375,0.08868408203125,0.6878662109375,-0.72039794921875,-959,-7973,144,-5,14,10
253012346,0.00091552734375,0.0908203125,0.688232421875,-0.71978759765625,-988,-8042,127,-5,15,9
253022328,0.00030517578125,0.09295654296875,0.6885986328125,-0.71917724609375,-1015,-8111,111,-5,16,8
253032311,-0.00042724609375,0.09521484375,0.68890380859375,-0.71856689453125,-1043,-8180,110,-4,17,8
253042292,-0.00128173828125,0.09747314453125,0.689208984375,-0.71795654296875,-1066,-8247,82,-4,18,7
253052273,-0.002197265625,0.099853515625,0.689453125,-0.7174072265625,-1094,-8324,62,-3,19,8
253062264,-0.0030517578125,0.10235595703125,0.68963623046875,-0.71685791015625,-1130,-8386,61,-3,20,8
253072247,-0.0040283203125,0.10498046875,0.68975830078125,-0.71636962890625,-1150,-8448,57,-2,21,9
253082226,-0.0048828125,0.10772705078125,0.68975830078125,-0.7159423828125,-1171,-8486,37,-2,21,11
253092222,-0.00579833984375,0.1107177734375,0.68963623046875,-0.715576171875,-1207,-8511,42,0,22,11
253102200,-0.00665283203125,0.11370849609375,0.689453125,-0.71533203125,-1234,-8552,47,0,23,12
253112177,-0.00750732421875,0.11688232421875,0.68914794921875,-0.715087890625,-1260,-8591,40,2,23,13
253122153,-0.00836181640625,0.1201171875,0.68865966796875,-0.7149658203125,-1294,-8610,41,3,24,14
253132135,-0.00927734375,0.12347412109375,0.6881103515625,-0.7149658203125,-1325,-8640,49,4,24,14
253142117,-0.01019287109375,0.1268310546875,0.68743896484375,-0.7149658203125,-1356,-8638,37,5,25,14
253152100,-0.01116943359375,0.1302490234375,0.6866455078125,-0.715087890625,-1386,-8633,33,7,25,14
253162085,-0.01214599609375,0.1336669921875,0.685791015625,-0.71533203125,-1419,-8598,34,8,25,14
253172068,-0.01324462890625,0.13702392578125,0.684814453125,-0.71563720703125,-1463,-8571,39,8,25,13
253182050,-0.01434326171875,0.14044189453125,0.6837158203125,-0.7159423828125,-1511,-8531,47,10,25,13
253192032,-0.01544189453125,0.1439208984375,0.6824951171875,-0.71636962890625,-1567,-8466,55,11,26,14
253202021,-0.0164794921875,0.1474609375,0.68121337890625,-0.71685791015625,-1620,-8418,35,12,26,14
253211997,-0.0174560546875,0.151123046875,0.6798095703125,-0.7174072265625,-1681,-8370,34,13,26,15
253221980,-0.0184326171875,0.15478515625,0.6783447265625,-0.718017578125,-1737,-8321,27,13,26,15
253231963,-0.01934814453125,0.158447265625,0.6767578125,-0.71868896484375,-1797,-8265,41,14,26,16
253241946,-0.02020263671875,0.1622314453125,0.6751708984375,-0.7193603515625,-1868,-8245,54,14,25,17
253251928,-0.02093505859375,0.166015625,0.6734619140625,-0.72003173828125,-1958,-8255,67,15,25,17
253261912,-0.021728515625,0.1697998046875,0.67169189453125,-0.72076416015625,-2044,-8289,70,15,25,17
253271893,-0.02239990234375,0.17352294921875,0.66986083984375,-0.7215576171875,-2138,-8312,78,16,25,17
253281876,-0.02313232421875,0.17730712890625,0.66796875,-0.72235107421875,-2215,-8363,90,17,25,17
253291860,-0.02374267578125,0.18115234375,0.66607666015625,-0.72314453125,-2296,-8386,86,17,25,19
253301840,-0.02423095703125,0.1851806640625,0.6640625,-0.7239990234375,-2372,-8383,87,17,25,21
253311822,-0.02435302734375,0.189453125,0.66192626953125,-0.72479248046875,-2446,-8365,94,17,24,24
253321801,-0.02410888671875,0.19403076171875,0.65966796875,-0.72564697265625,-2541,-8347,100,17,24,28
253331793,-0.02349853515625,0.198974609375,0.6573486328125,-0.7264404296875,-2645,-8332,97,18,24,32
253341776,-0.0225830078125,0.2042236328125,0.65484619140625,-0.727294921875,-2766,-8367,106,18,24,35
253351752,-0.0213623046875,0.209716796875,0.6522216796875,-0.7281494140625,-2905,-8418,127,18,24,39
253361734,-0.0198974609375,0.21539306640625,0.64935302734375,-0.72906494140625,-3061,-8483,153,19,24,41
253371718,-0.01812744140625,0.22125244140625,0.64642333984375,-0.72998046875,-3238,-8587,176,19,24,44
253381699,-0.01617431640625,0.227294921875,0.643310546875,-0.73089599609375,-3443,-8734,208,20,24,46
253391683,-0.01409912109375,0.2335205078125,0.6400146484375,-0.73187255859375,-3668,-8932,238,21,24,47
253401663,-0.0120849609375,0.23968505859375,0.63665771484375,-0.73284912109375,-3875,-9163,287,22,24,48
253411646,-0.00982666015625,0.24603271484375,0.63299560546875,-0.73394775390625,-4090,-9385,352,24,24,51
253421629,-0.00714111328125,0.2529296875,0.62896728515625,-0.735107421875,-4322,-9595,416,25,24,58
253431611,-0.00347900390625,0.2606201171875,0.6243896484375,-0.736328125,-4551,-9737,479,27,24,70
253441594,0.0013427734375,0.26934814453125,0.619140625,-0.7376708984375,-4796,-9756,560,29,24,84
253451577,0.0074462890625,0.27911376953125,0.61309814453125,-0.739013671875,-5038,-9710,684,30,24,99
253461559,0.0147705078125,0.2896728515625,0.6063232421875,-0.74041748046875,-5253,-9622,831,31,23,111
253471541,0.02288818359375,0.30084228515625,0.59893798828125,-0.74176025390625,-5486,-9514,999,33,23,120
253481523,0.03143310546875,0.31219482421875,0.59100341796875,-0.74310302734375,-5730,-9432,1183,34,22,123
253491505,0.039794921875,0.32330322265625,0.5828857421875,-0.744384765625,-5998,-9375,1341,35,22,121
253501486,0.0477294921875,0.333984375,0.57464599609375,-0.74560546875,-6267,-9305,1435,36,22,116
253511467,0.0550537109375,0.34423828125,0.5665283203125,-0.7467041015625,-6491,-9171,1499,38,22,111
253521459,0.06201171875,0.35430908203125,0.5582275390625,-0.7476806640625,-6659,-8961,1572,39,23,110
253531441,0.069091796875,0.364501953125,0.54962158203125,-0.74847412109375,-6828,-8694,1648,39,24,112
253541424,0.07666015625,0.375,0.54058837890625,-0.7491455078125,-7010,-8417,1737,39,24,119
253551401,0.0849609375,0.38592529296875,0.531005859375,-0.74957275390625,-7176,-8117,1831,40,24,127
253561385,0.093994140625,0.397216796875,0.5208740234375,-0.749755859375,-7317,-7812,1939,40,23,136
253571363,0.1038818359375,0.4088134765625,0.51007080078125,-0.74957275390625,-7464,-7479,2040,39,23,144
253581346,0.1142578125,0.4205322265625,0.4989013671875,-0.7491455078125,-7576,-7078,2124,39,22,149
253591328,0.12493896484375,0.43212890625,0.48748779296875,-0.74835205078125,-7643,-6662,2190,38,21,150
253601312,0.13555908203125,0.44342041015625,0.4759521484375,-0.74725341796875,-7698,-6203,2244,37,21,149
253611292,0.14599609375,0.4542236328125,0.46466064453125,-0.7459716796875,-7728,-5737,2308,35,20,144
253621273,0.15606689453125,0.4644775390625,0.45361328125,-0.744384765625,-7750,-5290,2345,33,20,139
253631265,0.165771484375,0.47418212890625,0.44293212890625,-0.74261474609375,-7765,-4903,2377,30,19,134
253641245,0.17510986328125,0.48333740234375,0.43267822265625,-0.7406005859375,-7775,-4616,2383,28,18,129
253651225,0.1842041015625,0.49200439453125,0.4227294921875,-0.7384033203125,-7786,-4391,2352,26,17,126
253661218,0.1932373046875,0.50042724609375,0.412841796875,-0.73602294921875,-7771,-4178,2306,25,16,127
253671200,0.20269775390625,0.50872802734375,0.4027099609375,-0.73345947265625,-7706,-3957,2251,25,15,133
253681174,0.21295166015625,0.51715087890625,0.3919677734375,-0.73046875,-7674,-3718,2206,24,13,141
253691151,0.223876953125,0.52557373046875,0.38067626953125,-0.72711181640625,-7702,-3499,2149,24,12,148
253701133,0.2349853515625,0.53369140625,0.36932373046875,-0.72357177734375,-7794,-3319,2099,22,10,147
253711118,0.24554443359375,0.54119873046875,0.3583984375,-0.719970703125,-7885,-3127,2051,22,8,139
253721100,0.2552490234375,0.5479736328125,0.3480224609375,-0.716552734375,-7920,-2969,1989,21,7,130
253731085,0.26434326171875,0.55413818359375,0.33819580078125,-0.71319580078125,-7961,-2772,1936,20,6,123
253741062,0.27313232421875,0.5599365234375,0.32861328125,-0.7098388671875,-7948,-2561,1876,19,4,120
253751047,0.28228759765625,0.56549072265625,0.31878662109375,-0.706298828125,-7950,-2345,1798,17,3,126
253761031,0.2923583984375,0.57110595703125,0.30841064453125,-0.7022705078125,-7947,-2111,1749,15,1,135
253771015,0.30352783203125,0.5767822265625,0.29730224609375,-0.69769287109375,-7941,-1862,1696,13,0,146
253780989,0.3154296875,0.58233642578125,0.2857666015625,-0.69256591796875,-7933,-1624,1653,10,-1,152
253790971,0.3275146484375,0.5875244140625,0.27435302734375,-0.68719482421875,-7966,-1376,1615,7,-2,151
253800953,0.3392333984375,0.5921630859375,0.26348876953125,-0.6817626953125,-8030,-1163,1583,4,-3,144
253810938,0.3502197265625,0.59619140625,0.2535400390625,-0.67645263671875,-8094,-943,1545,2,-3,134
253820917,0.36077880859375,0.59979248046875,0.24420166015625,-0.671142578125,-8116,-750,1503,-1,-3,130
253830897,0.3717041015625,0.6031494140625,0.23492431640625,-0.66546630859375,-8059,-531,1457,-4,-3,134
253840879,0.38348388671875,0.60650634765625,0.22503662109375,-0.65911865234375,-7950,-332,1409,-7,-4,146
253850861,0.396240234375,0.60986328125,0.21435546875,-0.6519775390625,-7844,-143,1367,-9,-4,157
253860842,0.40960693359375,0.61309814453125,0.2032470703125,-0.6441650390625,-7786,2,1317,-10,-4,164
253870825,0.42279052734375,0.6160888671875,0.1922607421875,-0.63616943359375,-7796,115,1292,-12,-4,162
253880805,0.43524169921875,0.61859130859375,0.18194580078125,-0.62823486328125,-7817,189,1250,-12,-3,153
253890797,0.44671630859375,0.6207275390625,0.172607421875,-0.6207275390625,-7811,291,1232,-13,-3,142
253900781,0.45745849609375,0.62255859375,0.163818359375,-0.6134033203125,-7724,439,1200,-13,-2,135
253910756,0.46807861328125,0.624267578125,0.15496826171875,-0.60595703125,-7551,645,1202,-13,-2,136
253920739,0.47906494140625,0.6258544921875,0.14556884765625,-0.5980224609375,-7337,881,1205,-13,-3,143
253930718,0.490478515625,0.62725830078125,0.13555908203125,-0.58953857421875,-7158,1098,1204,-14,-3,149
253940702,0.502197265625,0.62841796875,0.12518310546875,-0.58062744140625,-7013,1283,1227,-15,-4,153
253950684,0.5137939453125,0.62933349609375,0.11480712890625,-0.57159423828125,-6870,1481,1224,-15,-5,153
253960670,0.5250244140625,0.62994384765625,0.1046142578125,-0.5626220703125,-6707,1675,1223,-16,-5,148
253970648,0.53570556640625,0.63018798828125,0.09490966796875,-0.55389404296875,-6542,1843,1231,-16,-6,140
253980632,0.5455322265625,0.630126953125,0.08599853515625,-0.5457763671875,-6396,1982,1255,-16,-6,130
253990614,0.55462646484375,0.62982177734375,0.0777587890625,-0.53814697265625,-6218,2141,1283,-16,-6,121
254000597,0.5634765625,0.62933349609375,0.06964111328125,-0.5306396484375,-6037,2321,1308,-16,-7,121
254010578,0.57244873046875,0.628662109375,0.061279296875,-0.5228271484375,-5867,2495,1346,-17,-7,124
254020559,0.58160400390625,0.6278076171875,0.05255126953125,-0.5145263671875,-5678,2652,1346,-17,-7,128
254030543,0.5908203125,0.62689208984375,0.0435791015625,-0.50592041015625,-5488,2776,1340,-17,-7,131
254040523,0.59991455078125,0.6258544921875,0.03466796875,-0.4971923828125,-5280,2901,1333,-17,-7,129
254050509,0.60845947265625,0.62469482421875,0.02618408203125,-0.4886474609375,-5087,3019,1338,-17,-6,123
254060490,0.6163330078125,0.62347412109375,0.018310546875,-0.4805908203125,-4908,3107,1322,-16,-5,114
254070467,0.62371826171875,0.62225341796875,0.01092529296875,-0.47283935546875,-4724,3194,1294,-16,-5,109
254080461,0.630859375,0.62103271484375,0.003662109375,-0.46502685546875,-4535,3262,1254,-15,-4,110
254090442,0.6380615234375,0.61993408203125,-0.00408935546875,-0.45660400390625,-4328,3354,1222,-13,-3,116
254100426,0.64544677734375,0.6187744140625,-0.0123291015625,-0.447509765625,-4089,3429,1190,-13,-2,122
254110401,0.65283203125,0.61773681640625,-0.0208740234375,-0.4378662109375,-3832,3513,1147,-11,-1,124
254120390,0.65985107421875,0.61669921875,-0.02947998046875,-0.42816162109375,-3541,3595,1123,-9,0,122
254130369,0.66644287109375,0.61578369140625,-0.0377197265625,-0.4185791015625,-3203,3713,1122,-7,1,116
254140351,0.67254638671875,0.6148681640625,-0.04559326171875,-0.4093017578125,-2806,3870,1159,-6,3,109
254150333,0.67816162109375,0.614013671875,-0.05303955078125,-0.40032958984375,-2375,4046,1213,-5,4,102
254160315,0.68341064453125,0.6131591796875,-0.06005859375,-0.39154052734375,-1910,4210,1263,-4,6,95
254170297,0.68829345703125,0.61236572265625,-0.06671142578125,-0.383056640625,-1422,4396,1300,-4,7,89
254180275,0.69287109375,0.61163330078125,-0.0728759765625,-0.374755859375,-905,4562,1319,-4,9,82
254193030,0.69708251953125,0.61090087890625,-0.07855224609375,-0.36688232421875,-364,4678,1346,-3,10,74
254200251,0.7008056640625,0.6103515625,-0.08349609375,-0.359619140625,156,4749,1408,-3,12,63
254210240,0.70391845703125,0.60992431640625,-0.08740234375,-0.353271484375,674,4826,1487,-1,14,48
254220223,0.70635986328125,0.60968017578125,-0.090087890625,-0.34820556640625,1145,4906,1600,0,15,30
254230208,0.7078857421875,0.60968017578125,-0.09136962890625,-0.34454345703125,1561,4980,1698,1,16,12
254240181,0.708740234375,0.61004638671875,-0.0914306640625,-0.34222412109375,1917,5062,1796,2,18,-5
254250152,0.70904541015625,0.610595703125,-0.09039306640625,-0.34088134765625,2196,5159,1872,2,19,-17
254260134,0.7088623046875,0.611328125,-0.08843994140625,-0.34039306640625,2387,5229,1918,2,21,-28
254270118,0.708251953125,0.6123046875,-0.08551025390625,-0.3406982421875,2493,5260,1929,2,23,-39
254280101,0.70709228515625,0.613525390625,-0.08154296875,-0.3419189453125,2518,5258,1906,3,24,-51
254290085,0.7052001953125,0.614990234375,-0.0762939453125,-0.34429931640625,2453,5213,1873,3,25,-66
254300065,0.70257568359375,0.61676025390625,-0.06951904296875,-0.34808349609375,2324,5171,1800,3,27,-83
254310048,0.698974609375,0.61871337890625,-0.061279296875,-0.35321044921875,2118,5149,1717,4,29,-100
254320030,0.69464111328125,0.6209716796875,-0.0517578125,-0.359375,1864,5154,1619,4,30,-113
254330018,0.68963623046875,0.62322998046875,-0.041259765625,-0.3663330078125,1521,5104,1504,4,32,-122
254339998,0.6839599609375,0.62567138671875,-0.02978515625,-0.3739013671875,1137,4970,1364,5,33,-131
254349980,0.67755126953125,0.6280517578125,-0.01739501953125,-0.3822021484375,687,4736,1218,5,34,-141
254359962,0.67022705078125,0.6304931640625,-0.00384521484375,-0.391357421875,153,4451,1075,7,35,-152
254369944,0.66180419921875,0.63299560546875,0.0108642578125,-0.4014892578125,-450,4144,909,9,36,-164
254379927,0.65216064453125,0.63543701171875,0.0267333984375,-0.4124755859375,-1074,3842,737,11,37,-175
254389912,0.6416015625,0.6378173828125,0.04315185546875,-0.42376708984375,-1682,3585,575,13,37,-180
254399892,0.63055419921875,0.64007568359375,0.05938720703125,-0.43487548828125,-2315,3320,417,15,36,-176
254409875,0.6192626953125,0.6422119140625,0.0750732421875,-0.44537353515625,-2992,3019,278,18,35,-166
254419856,0.6080322265625,0.64422607421875,0.08978271484375,-0.455078125,-3674,2735,161,20,33,-156
254429840,0.59674072265625,0.64617919921875,0.103759765625,-0.46429443359375,-4350,2476,58,23,32,-149
254439821,0.58502197265625,0.64801025390625,0.1173095703125,-0.47332763671875,-4968,2302,-26,25,30,-148
254449801,0.5728759765625,0.649658203125,0.13067626953125,-0.48236083984375,-5539,2230,-91,28,29,-150
254459792,0.56024169921875,0.6510009765625,0.14398193359375,-0.491455078125,-6069,2219,-134,29,28,-152
254469775,0.54754638671875,0.652099609375,0.15679931640625,-0.5003662109375,-6613,2218,-164,30,25,-148
254479750,0.5350341796875,0.6527099609375,0.16900634765625,-0.509033203125,-7176,2141,-173,28,22,-142
254489732,0.52276611328125,0.65277099609375,0.18072509765625,-0.517578125,-7794,1975,-231,27,18,-139
254499715,0.510009765625,0.65228271484375,0.19268798828125,-0.5264892578125,-8305,1763,-277,27,15,-146
254509699,0.49676513671875,0.65118408203125,0.2049560546875,-0.535888671875,-8594,1617,-307,27,12,-154
254519680,0.48321533203125,0.64947509765625,0.21710205078125,-0.54547119140625,-8765,1552,-320,26,9,-156
254529663,0.47015380859375,0.64739990234375,0.228515625,-0.55462646484375,-8819,1620,-298,25,6,-150
254539647,0.45819091796875,0.64501953125,0.23858642578125,-0.56304931640625,-8868,1660,-245,23,1,-136
254549627,0.44757080078125,0.64239501953125,0.247314453125,-0.57086181640625,-9058,1528,-199,20,-4,-121
254559606,0.4375,0.63922119140625,0.255615234375,-0.5784912109375,-9347,1288,-193,17,-8,-119
254569590,0.4268798828125,0.6351318359375,0.2646484375,-0.5867919921875,-9590,974,-167,15,-12,-131
254579577,0.41522216796875,0.63006591796875,0.27471923828125,-0.59588623046875,-9656,729,-108,13,-14,-147
254589555,0.40283203125,0.62420654296875,0.2855224609375,-0.60546875,-9510,580,-52,12,-17,-158
254599537,0.3905029296875,0.6177978515625,0.29608154296875,-0.61492919921875,-9173,544,34,11,-18,-157
254609518,0.37939453125,0.61138916015625,0.3055419921875,-0.62359619140625,-8806,467,142,8,-21,-142
254619500,0.36981201171875,0.60528564453125,0.3134765625,-0.63134765625,-8582,255,210,7,-23,-122
254629484,0.36138916015625,0.5992431640625,0.32049560546875,-0.63836669921875,-8516,-101,266,5,-25,-110
254639471,0.3529052734375,0.59295654296875,0.32763671875,-0.64532470703125,-8623,-551,316,4,-25,-113
254649453,0.34295654296875,0.5859375,0.33599853515625,-0.65277099609375,-8673,-952,374,4,-23,-132
254659437,0.33135986328125,0.57818603515625,0.34564208984375,-0.66064453125,-8538,-1186,426,4,-21,-151
254669412,0.31890869140625,0.57000732421875,0.3558349609375,-0.66839599609375,-8233,-1244,483,3,-19,-158
254679396,0.30694580078125,0.56195068359375,0.3656005859375,-0.67547607421875,-7875,-1276,543,2,-17,-149
254689374,0.29632568359375,0.5545654296875,0.374267578125,-0.68157958984375,-7597,-1412,618,0,-16,-130
254699355,0.28717041015625,0.54779052734375,0.38189697265625,-0.68670654296875,-7513,-1703,716,-3,-14,-114
254709337,0.27838134765625,0.54132080078125,0.389404296875,-0.6912841796875,-7553,-2056,778,-4,-11,-110
254719319,0.2689208984375,0.53466796875,0.39739990234375,-0.69561767578125,-7588,-2409,814,-5,-8,-119
254729303,0.258056640625,0.5274658203125,0.406494140625,-0.699951171875,-7537,-2695,840,-5,-4,-134
254739290,0.24591064453125,0.5198974609375,0.41632080078125,-0.7042236328125,-7406,-2889,850,-6,0,-145
254749274,0.2333984375,0.51226806640625,0.42626953125,-0.70806884765625,-7275,-3056,884,-7,3,-145
254759256,0.2213134765625,0.5050048828125,0.4359130859375,-0.7113037109375,-7276,-3396,935,-9,6,-137
254769240,0.20977783203125,0.49822998046875,0.4451904296875,-0.7138671875,-7468,-3918,959,-9,9,-128
254779227,0.1982421875,0.49169921875,0.45428466796875,-0.71588134765625,-7762,-4537,955,-10,12,-126
254789210,0.18634033203125,0.4853515625,0.46343994140625,-0.71759033203125,-8021,-5126,928,-9,15,-128
254799194,0.174072265625,0.4791259765625,0.47247314453125,-0.718994140625,-8160,-5600,883,-8,18,-127
254809163,0.162353515625,0.47344970703125,0.48077392578125,-0.71990966796875,-8204,-5900,834,-6,20,-118
254819144,0.1514892578125,0.4686279296875,0.48828125,-0.72039794921875,-8235,-6143,793,-6,22,-106
254829127,0.14129638671875,0.46441650390625,0.4951171875,-0.7205810546875,-8353,-6388,746,-6,23,-100
254839108,0.13104248046875,0.4603271484375,0.5018310546875,-0.720458984375,-8478,-6612,711,-6,25,-102
254849091,0.1201171875,0.45599365234375,0.50885009765625,-0.72021484375,-8554,-6741,694,-6,27,-110
254859074,0.10870361328125,0.451416015625,0.5159912109375,-0.71978759765625,-8523,-6780,666,-6,29,-114
254869055,0.09722900390625,0.44683837890625,0.52301025390625,-0.71923828125,-8351,-6821,668,-6,29,-111
254879037,0.08660888671875,0.44268798828125,0.52935791015625,-0.71856689453125,-8215,-6758,665,-6,29,-103
254889025,0.07684326171875,0.43902587890625,0.5350341796875,-0.7176513671875,-8153,-6817,657,-5,27,-94
254899009,0.06781005859375,0.43560791015625,0.54010009765625,-0.71685791015625,-8179,-6945,680,-4,26,-88
254908986,0.05889892578125,0.43206787109375,0.54486083984375,-0.7161865234375,-8269,-7141,684,-2,23,-89
254918973,0.0494384765625,0.427978515625,0.5496826171875,-0.7156982421875,-8363,-7359,651,0,22,-97
254928954,0.03912353515625,0.423095703125,0.5546875,-0.71539306640625,-8402,-7540,610,3,20,-108
254938935,0.0279541015625,0.41741943359375,0.559814453125,-0.71527099609375,-8443,-7724,544,6,19,-117
254948918,0.01611328125,0.41107177734375,0.56494140625,-0.71527099609375,-8414,-7856,518,9,18,-124
254958903,0.0042724609375,0.404541015625,0.5697021484375,-0.71533203125,-8389,-7940,516,11,16,-123
254968883,-0.0069580078125,0.3983154296875,0.5738525390625,-0.71551513671875,-8352,-8011,526,13,15,-114
254978865,-0.016845703125,0.392822265625,0.5770263671875,-0.71588134765625,-8258,-8106,599,14,13,-99
254988847,-0.02520751953125,0.38836669921875,0.5791015625,-0.71636962890625,-8163,-8203,697,15,11,-81
254998830,-0.0318603515625,0.3848876953125,0.58038330078125,-0.71697998046875,-8186,-8297,758,15,9,-67
255008808,-0.03753662109375,0.38189697265625,0.5810546875,-0.71771240234375,-8344,-8375,751,16,7,-60
255018800,-0.04290771484375,0.3790283203125,0.58160400390625,-0.718505859375,-8483,-8445,739,17,5,-61
255028784,-0.04833984375,0.37603759765625,0.5821533203125,-0.71929931640625,-8623,-8478,670,18,5,-62
255038766,-0.05340576171875,0.37322998046875,0.58251953125,-0.7200927734375,-8667,-8473,645,18,4,-58
255048743,-0.05731201171875,0.3712158203125,0.58221435546875,-0.7210693359375,-8614,-8412,676,17,3,-41
255058726,-0.05889892578125,0.37091064453125,0.5809326171875,-0.72216796875,-8543,-8309,728,16,2,-14
255068706,-0.05755615234375,0.3726806640625,0.578369140625,-0.723388671875,-8486,-8141,784,14,1,18
255078688,-0.05316162109375,0.37646484375,0.57464599609375,-0.7247314453125,-8475,-7904,851,10,-2,48
255088670,-0.04638671875,0.38177490234375,0.57012939453125,-0.72601318359375,-8536,-7634,897,7,-3,68
255098649,-0.03826904296875,0.3876953125,0.5653076171875,-0.72711181640625,-8592,-7366,921,3,-5,76
255108630,-0.0299072265625,0.39349365234375,0.56060791015625,-0.72802734375,-8601,-7104,950,1,-6,76
255118615,-0.02166748046875,0.3988037109375,0.55633544921875,-0.7286376953125,-8587,-6880,974,-2,-8,72
255128594,-0.0135498046875,0.40380859375,0.55230712890625,-0.72918701171875,-8528,-6689,1018,-4,-8,70
255138577,-0.0052490234375,0.40875244140625,0.54840087890625,-0.7294921875,-8481,-6582,1043,-6,-9,73
255148558,0.00360107421875,0.4140625,0.54443359375,-0.7294921875,-8513,-6602,1027,-8,-9,80
255158541,0.0130615234375,0.41961669921875,0.54022216796875,-0.72930908203125,-8586,-6707,1007,-10,-9,86
255168525,0.0228271484375,0.42529296875,0.53594970703125,-0.72894287109375,-8670,-6922,947,-11,-9,89
255178507,0.032470703125,0.43084716796875,0.53173828125,-0.7283935546875,-8791,-7193,881,-10,-9,90
255188489,0.04205322265625,0.4364013671875,0.5274658203125,-0.72772216796875,-8903,-7455,813,-9,-9,91
255198467,0.05194091796875,0.442138671875,0.522705078125,-0.72705078125,-8954,-7701,758,-8,-9,99
255208459,0.0628662109375,0.4486083984375,0.51715087890625,-0.7261962890625,-9011,-7879,699,-7,-9,115
255218442,0.0751953125,0.45611572265625,0.51043701171875,-0.72509765625,-9084,-7995,639,-5,-8,134
255228425,0.08892822265625,0.46453857421875,0.5025634765625,-0.72369384765625,-9155,-8031,577,-5,-8,150
255238401,0.103515625,0.47344970703125,0.49395751953125,-0.72186279296875,-9233,-7968,544,-5,-8,160
255248385,0.1181640625,0.48223876953125,0.48504638671875,-0.7198486328125,-9331,-7858,565,-5,-8,158
255258366,0.13201904296875,0.49029541015625,0.47637939453125,-0.7177734375,-9414,-7759,584,-4,-8,150
255268348,0.14501953125,0.4976806640625,0.46807861328125,-0.71563720703125,-9462,-7634,577,-4,-9,142
255278329,0.157470703125,0.504638671875,0.4599609375,-0.71343994140625,-9484,-7545,560,-2,-9,140
255288312,0.1697998046875,0.511474609375,0.45159912109375,-0.7110595703125,-9507,-7503,509,-1,-9,143
255298299,0.1822509765625,0.5184326171875,0.44281005859375,-0.70843505859375,-9530,-7430,453,1,-9,148
255308277,0.19482421875,0.52557373046875,0.43341064453125,-0.70562744140625,-9509,-7323,404,3,-9,153
255318268,0.2073974609375,0.5325927734375,0.423583984375,-0.70269775390625,-9505,-7141,373,5,-9,154
255328249,0.2197265625,0.53948974609375,0.41351318359375,-0.69970703125,-9526,-6903,365,7,-10,154
255338230,0.2320556640625,0.5462646484375,0.403076171875,-0.69659423828125,-9530,-6600,352,8,-10,155
255348220,0.24468994140625,0.552978515625,0.39202880859375,-0.6932373046875,-9534,-6261,335,9,-12,161
255358202,0.25787353515625,0.55975341796875,0.38031005859375,-0.6895751953125,-9549,-5949,317,9,-13,168
255368180,0.271484375,0.5665283203125,0.3680419921875,-0.68548583984375,-9546,-5586,304,10,-15,173
255378155,0.2852783203125,0.57305908203125,0.35540771484375,-0.68109130859375,-9491,-5179,311,9,-16,175
255388138,0.2989501953125,0.57916259765625,0.3426513671875,-0.6766357421875,-9393,-4724,356,9,-17,173
255398122,0.3123779296875,0.584716796875,0.32989501953125,-0.6719970703125,-9293,-4251,418,8,-19,169
255408103,0.32568359375,0.58978271484375,0.31732177734375,-0.6673583984375,-9143,-3758,475,6,-20,166
255418085,0.33905029296875,0.5943603515625,0.30462646484375,-0.66253662109375,-8967,-3322,536,4,-22,167
255428068,0.35260009765625,0.5986328125,0.29180908203125,-0.6573486328125,-8776,-2947,571,2,-23,170
255438050,0.36639404296875,0.60260009765625,0.27880859375,-0.65185546875,-8558,-2623,580,1,-24,173
255448035,0.38018798828125,0.60626220703125,0.265625,-0.64599609375,-8330,-2322,561,0,-25,174
255458022,0.39385986328125,0.60955810546875,0.25244140625,-0.6400146484375,-8085,-1967,582,0,-26,172
255467999,0.4073486328125,0.61248779296875,0.23919677734375,-0.6337890625,-7804,-1570,599,-1,-26,170
255477977,0.420654296875,0.614990234375,0.2259521484375,-0.62750244140625,-7572,-1174,625,-2,-27,167
255487961,0.4337158203125,0.6170654296875,0.21295166015625,-0.62109375,-7352,-810,651,-4,-28,164
255497943,0.44677734375,0.61865234375,0.19989013671875,-0.614501953125,-7092,-440,678,-6,-29,164
255507925,0.4600830078125,0.61993408203125,0.18670654296875,-0.6075439453125,-6808,-78,697,-8,-30,167
255517912,0.47357177734375,0.62078857421875,0.17333984375,-0.6002197265625,-6543,223,723,-11,-32,169
255527892,0.48699951171875,0.62115478515625,0.1600341796875,-0.59271240234375,-6343,463,743,-13,-32,167
255537874,0.49981689453125,0.62103271484375,0.1474609375,-0.58544921875,-6190,666,751,-14,-33,158
255547856,0.5115966796875,0.620361328125,0.13580322265625,-0.5787353515625,-6077,831,769,-16,-33,145
255557847,0.5223388671875,0.61920166015625,0.1253662109375,-0.57275390625,-5974,950,797,-16,-33,131
255567825,0.53204345703125,0.61773681640625,0.1158447265625,-0.56732177734375,-5901,1023,795,-16,-32,120
255577806,0.54083251953125,0.61614990234375,0.1070556640625,-0.56243896484375,-5840,1058,785,-15,-32,112
255587798,0.54925537109375,0.614501953125,0.0986328125,-0.5576171875,-5741,1115,799,-14,-31,109
255597780,0.5576171875,0.6129150390625,0.08990478515625,-0.552490234375,-5624,1200,822,-13,-30,113
255607756,0.56622314453125,0.6114501953125,0.08062744140625,-0.54681396484375,-5479,1321,868,-12,-29,119
255617738,0.57513427734375,0.6099853515625,0.07073974609375,-0.5404052734375,-5326,1501,944,-11,-28,126
255627722,0.584228515625,0.60858154296875,0.06048583984375,-0.533447265625,-5170,1708,1040,-10,-27,130
255637703,0.5931396484375,0.607177734375,0.05029296875,-0.52630615234375,-5041,1904,1141,-9,-24,127
255647685,0.6014404296875,0.605712890625,0.040771484375,-0.519287109375,-4981,2071,1222,-9,-22,120
255657670,0.60894775390625,0.60430908203125,0.0321044921875,-0.5126953125,-4945,2207,1300,-8,-20,111
255667650,0.61578369140625,0.60308837890625,0.02410888671875,-0.50640869140625,-4892,2325,1331,-7,-17,105
255677632,0.62237548828125,0.60198974609375,0.01617431640625,-0.5,-4795,2430,1364,-5,-16,105
255687615,0.6290283203125,0.60101318359375,0.0079345703125,-0.492919921875,-4633,2543,1393,-4,-13,111
255697596,0.6361083984375,0.60015869140625,-0.00103759765625,-0.48486328125,-4408,2669,1421,-2,-12,122
255707584,0.6435546875,0.59942626953125,-0.01092529296875,-0.47576904296875,-4107,2809,1454,0,-10,131
255717564,0.6512451171875,0.5987548828125,-0.02154541015625,-0.46563720703125,-3747,3000,1469,2,-9,140
255727546,0.6591796875,0.5980224609375,-0.0328369140625,-0.4547119140625,-3331,3240,1499,3,-8,145
255737529,0.6669921875,0.59722900390625,-0.04449462890625,-0.44317626953125,-2884,3495,1526,5,-7,147
255747509,0.674560546875,0.59625244140625,-0.0562744140625,-0.4315185546875,-2408,3719,1560,5,-7,146
255757493,0.68182373046875,0.59515380859375,-0.0679931640625,-0.4197998046875,-1899,3956,1569,5,-7,142
255767473,0.68865966796875,0.59393310546875,-0.07952880859375,-0.408203125,-1349,4192,1576,5,-7,137
255777464,0.69512939453125,0.59246826171875,-0.09088134765625,-0.39678955078125,-764,4422,1594,5,-7,131
255787446,0.701171875,0.59075927734375,-0.101806640625,-0.3858642578125,-166,4649,1632,5,-7,123
255797428,0.706787109375,0.58892822265625,-0.11224365234375,-0.37548828125,441,4865,1694,4,-7,114
255807405,0.7119140625,0.5869140625,-0.1219482421875,-0.3658447265625,1035,5062,1785,3,-7,102
255817386,0.7164306640625,0.58477783203125,-0.13067626953125,-0.35723876953125,1571,5222,1875,1,-7,88
255827370,0.72039794921875,0.5826416015625,-0.1383056640625,-0.34979248046875,2049,5370,1944,-1,-6,73
255837349,0.7237548828125,0.58056640625,-0.144775390625,-0.3436279296875,2543,5487,2031,-2,-6,58
255847330,0.72674560546875,0.57843017578125,-0.1502685546875,-0.33856201171875,2993,5587,2120,-4,-5,44
255857311,0.72930908203125,0.57635498046875,-0.1546630859375,-0.33453369140625,3372,5659,2200,-6,-3,31
255867295,0.7314453125,0.57440185546875,-0.157958984375,-0.33172607421875,3672,5697,2282,-8,-3,17
255877277,0.73309326171875,0.5726318359375,-0.16009521484375,-0.330078125,3913,5723,2325,-9,-1,2
255887259,0.734130859375,0.5711669921875,-0.160888671875,-0.32989501953125,4056,5739,2349,-10,0,-15
255897240,0.73443603515625,0.5701904296875,-0.16015625,-0.331298828125,4123,5707,2350,-9,2,-34
255907225,0.73394775390625,0.56964111328125,-0.15789794921875,-0.33447265625,4086,5626,2319,-10,3,-55
255917208,0.73248291015625,0.56964111328125,-0.1539306640625,-0.33941650390625,3978,5521,2261,-9,5,-75
255927190,0.7301025390625,0.57025146484375,-0.14837646484375,-0.34600830078125,3794,5420,2207,-8,6,-95
255937160,0.7266845703125,0.57135009765625,-0.141357421875,-0.35418701171875,3545,5344,2154,-6,8,-112
255947143,0.72235107421875,0.5728759765625,-0.133056640625,-0.36370849609375,3258,5244,2094,-5,9,-128
255957127,0.71710205078125,0.57476806640625,-0.12359619140625,-0.37432861328125,2901,5101,1997,-3,10,-142
255967111,0.71075439453125,0.57696533203125,-0.11285400390625,-0.38616943359375,2457,4962,1889,-2,11,-156
255977097,0.7034912109375,0.5794677734375,-0.1011962890625,-0.3988037109375,2040,4725,1773,1,12,-167
255987076,0.69512939453125,0.5821533203125,-0.0885009765625,-0.412353515625,1527,4493,1650,3,13,-178
255997058,0.68572998046875,0.58502197265625,-0.074951171875,-0.42645263671875,998,4244,1554,6,14,-187
256007041,0.67535400390625,0.587890625,-0.06085205078125,-0.44097900390625,410,4036,1448,8,14,-192
256017030,0.664306640625,0.5908203125,-0.04638671875,-0.45538330078125,-195,3834,1351,10,15,-192
256027012,0.65283203125,0.59368896484375,-0.03204345703125,-0.4693603515625,-773,3656,1247,12,16,-189
256036988,0.6409912109375,0.596435546875,-0.01800537109375,-0.4827880859375,-1339,3496,1170,14,16,-184
256046970,0.62884521484375,0.59912109375,-0.004150390625,-0.49554443359375,-1953,3279,1074,17,17,-180
256056953,0.6160888671875,0.6016845703125,0.00982666015625,-0.5081787109375,-2575,3055,1006,18,17,-181
256066935,0.60272216796875,0.6041259765625,0.02398681640625,-0.52069091796875,-3212,2871,948,20,18,-183
256076919,0.58868408203125,0.60650634765625,0.03839111328125,-0.53302001953125,-3844,2732,910,22,19,-184
256086899,0.57427978515625,0.60858154296875,0.0528564453125,-0.54498291015625,-4448,2635,895,22,20,-184
256096881,0.55975341796875,0.61029052734375,0.0672607421875,-0.55645751953125,-4986,2567,908,20,21,-181
256106863,0.5452880859375,0.61163330078125,0.08148193359375,-0.5673828125,-5592,2435,890,19,21,-177
256116846,0.5306396484375,0.61260986328125,0.09588623046875,-0.57781982421875,-6241,2219,857,17,22,-177
256126830,0.5155029296875,0.61328125,0.1107177734375,-0.588134765625,-6853,1985,831,16,22,-179
256136809,0.5001220703125,0.6134033203125,0.125732421875,-0.59808349609375,-7381,1782,817,14,23,-180
256146801,0.4849853515625,0.61322021484375,0.14044189453125,-0.607421875,-7727,1711,819,12,23,-174
256156782,0.47125244140625,0.61273193359375,0.1539306640625,-0.61541748046875,-7934,1773,871,8,22,-157
256166758,0.45941162109375,0.612060546875,0.16583251953125,-0.6219482421875,-8238,1747,933,3,21,-134
256176741,0.44903564453125,0.611083984375,0.1768798828125,-0.62738037109375,-8666,1583,941,-2,20,-120
256186722,0.43902587890625,0.6097412109375,0.18804931640625,-0.63250732421875,-9051,1341,930,-6,18,-121
256196704,0.4285888671875,0.60772705078125,0.20001220703125,-0.637939453125,-9294,1039,898,-9,16,-130
256206686,0.417236328125,0.60498046875,0.21282958984375,-0.64385986328125,-9314,783,885,-10,16,-143
256216670,0.40533447265625,0.60174560546875,0.2261962890625,-0.64996337890625,-9191,589,879,-12,16,-150
256226651,0.39349365234375,0.59820556640625,0.23944091796875,-0.65576171875,-9143,430,890,-14,15,-148
256236633,0.38226318359375,0.59442138671875,0.252197265625,-0.66094970703125,-9139,259,927,-16,14,-140
256246615,0.3721923828125,0.590576171875,0.26422119140625,-0.66546630859375,-9248,11,963,-20,13,-127
256256596,0.36328125,0.58660888671875,0.27557373046875,-0.6693115234375,-9395,-286,970,-23,10,-116
256266580,0.35498046875,0.58245849609375,0.28656005859375,-0.67279052734375,-9446,-582,960,-25,8,-111
256276562,0.34716796875,0.57806396484375,0.297119140625,-0.676025390625,-9358,-849,927,-26,6,-106
256286542,0.339599609375,0.573486328125,0.30743408203125,-0.67913818359375,-9212,-1130,913,-26,5,-105
256296524,0.33172607421875,0.56866455078125,0.31781005859375,-0.68231201171875,-9096,-1409,884,-25,4,-110
256306506,0.32293701171875,0.5633544921875,0.3287353515625,-0.68572998046875,-9015,-1709,861,-25,5,-119
256316489,0.31317138671875,0.5576171875,0.34027099609375,-0.6893310546875,-9018,-2047,846,-24,6,-129
256326473,0.30242919921875,0.5513916015625,0.35235595703125,-0.69305419921875,-9026,-2362,863,-24,6,-138
256336464,0.29144287109375,0.5447998046875,0.36444091796875,-0.6966552734375,-8964,-2626,881,-24,7,-139
256346446,0.2806396484375,0.538330078125,0.37615966796875,-0.699951171875,-8859,-2910,852,-23,7,-133
256356428,0.27032470703125,0.53204345703125,0.38726806640625,-0.70269775390625,-8730,-3186,828,-23,7,-126
256366404,0.2603759765625,0.5260009765625,0.3978271484375,-0.70513916015625,-8580,-3470,815,-22,8,-121
256376388,0.25042724609375,0.5201416015625,0.4080810546875,-0.70721435546875,-8392,-3705,796,-21,10,-119
256386371,0.240478515625,0.514404296875,0.41802978515625,-0.70904541015625,-8192,-3846,819,-20,12,-118
256396353,0.2305908203125,0.5089111328125,0.4276123046875,-0.7105712890625,-7997,-3967,847,-19,14,-115
256406333,0.22100830078125,0.50360107421875,0.43682861328125,-0.7117919921875,-7835,-4107,904,-19,15,-110
256416314,0.211669921875,0.49847412109375,0.44573974609375,-0.71270751953125,-7802,-4359,927,-20,16,-107
256426297,0.20208740234375,0.49334716796875,0.4547119140625,-0.71343994140625,-7855,-4683,917,-19,17,-109
256436278,0.191650390625,0.48779296875,0.46392822265625,-0.71417236328125,-7873,-5022,897,-18,19,-117
256446270,0.18023681640625,0.48193359375,0.47344970703125,-0.71490478515625,-7811,-5303,852,-16,21,-125
256456254,0.16815185546875,0.47576904296875,0.48297119140625,-0.715576171875,-7661,-5492,826,-14,22,-129
256466240,0.156005859375,0.4698486328125,0.4920654296875,-0.716064453125,-7449,-5592,802,-12,24,-126
256476222,0.14434814453125,0.46435546875,0.50048828125,-0.71624755859375,-7262,-5643,784,-11,25,-117
256486208,0.133544921875,0.4595947265625,0.508056640625,-0.71612548828125,-7116,-5776,770,-10,26,-107
256496188,0.12335205078125,0.455322265625,0.51495361328125,-0.71575927734375,-7014,-5939,766,-9,27,-98
256506160,0.1136474609375,0.4515380859375,0.52130126953125,-0.71514892578125,-6996,-6108,721,-8,28,-93
256516144,0.10400390625,0.447998046875,0.52734375,-0.71435546875,-6967,-6246,680,-7,29,-92
256526125,0.09405517578125,0.4444580078125,0.5333251953125,-0.71356201171875,-6901,-6330,640,-6,31,-94
256536107,0.08380126953125,0.4407958984375,0.53924560546875,-0.712646484375,-6772,-6367,588,-5,32,-97
256546088,0.07354736328125,0.437255859375,0.54498291015625,-0.71160888671875,-6596,-6335,567,-4,32,-95
256556072,0.06353759765625,0.433837890625,0.5504150390625,-0.71044921875,-6430,-6313,539,-4,33,-92
256566052,0.053955078125,0.4307861328125,0.555419921875,-0.709228515625,-6352,-6369,526,-3,33,-86
256576035,0.044677734375,0.4278564453125,0.56011962890625,-0.70794677734375,-6363,-6480,510,-3,33,-85
256586025,0.03515625,0.42474365234375,0.5648193359375,-0.70660400390625,-6392,-6647,472,-3,33,-88
256595995,0.0252685546875,0.42132568359375,0.569580078125,-0.70526123046875,-6395,-6816,425,-1,32,-93
256605982,0.01495361328125,0.41748046875,0.57440185546875,-0.7039794921875,-6340,-6975,370,0,32,-97
256615964,0.0042724609375,0.41326904296875,0.5792236328125,-0.70263671875,-6207,-7106,314,1,31,-101
256625946,-0.006591796875,0.4088134765625,0.583984375,-0.7012939453125,-6041,-7238,252,2,30,-102
256635926,-0.01763916015625,0.404052734375,0.58868408203125,-0.69989013671875,-5892,-7390,169,3,30,-104
256645912,-0.02874755859375,0.39923095703125,0.59332275390625,-0.6983642578125,-5803,-7578,85,3,30,-105
256655892,-0.0400390625,0.39410400390625,0.59796142578125,-0.69677734375,-5766,-7775,6,3,29,-109
256665874,-0.05157470703125,0.3887939453125,0.60260009765625,-0.69500732421875,-5735,-7978,-50,3,30,-112
256675855,-0.063232421875,0.38323974609375,0.6072998046875,-0.69305419921875,-5716,-8193,-116,2,30,-114
256685841,-0.07470703125,0.37774658203125,0.61187744140625,-0.69091796875,-5605,-8306,-149,2,30,-112
256695821,-0.08587646484375,0.37237548828125,0.6162109375,-0.6885986328125,-5477,-8391,-176,0,30,-108
256705802,-0.0960693359375,0.36767578125,0.6202392578125,-0.68621826171875,-5342,-8454,-215,-1,29,-99
256715790,-0.1053466796875,0.36358642578125,0.62371826171875,-0.683837890625,-5145,-8481,-243,-2,28,-86
256725774,-0.11309814453125,0.360595703125,0.6265869140625,-0.68157958984375,-4939,-8433,-265,-3,27,-71
256735750,-0.11944580078125,0.358642578125,0.62884521484375,-0.679443359375,-4808,-8419,-294,-4,25,-55
256745730,-0.1243896484375,0.35760498046875,0.63055419921875,-0.677490234375,-4655,-8405,-311,-5,24,-42
256755712,-0.1282958984375,0.35736083984375,0.63189697265625,-0.6756591796875,-4585,-8439,-369,-6,22,-32
256765695,-0.1314697265625,0.3575439453125,0.63299560546875,-0.6739501953125,-4522,-8419,-402,-6,21,-27
256775678,-0.1343994140625,0.35772705078125,0.634033203125,-0.6722412109375,-4464,-8412,-444,-7,20,-27
256785660,-0.13739013671875,0.357666015625,0.63525390625,-0.6705322265625,-4402,-8395,-492,-7,18,-29
256795641,-0.14056396484375,0.357177734375,0.63665771484375,-0.6688232421875,-4329,-8360,-550,-7,17,-33
256805625,-0.14398193359375,0.35626220703125,0.6383056640625,-0.6669921875,-4230,-8310,-585,-7,16,-37
256815608,-0.1475830078125,0.35498046875,0.64007568359375,-0.66522216796875,-4130,-8273,-583,-8,15,-40
256825590,-0.1512451171875,0.3533935546875,0.64190673828125,-0.6634521484375,-4030,-8231,-590,-7,13,-42
256835577,-0.15472412109375,0.35174560546875,0.64373779296875,-0.6617431640625,-3914,-8219,-599,-7,12,-40
256845557,-0.15789794921875,0.35015869140625,0.64556884765625,-0.66009521484375,-3814,-8222,-640,-8,10,-37
256855538,-0.16058349609375,0.34881591796875,0.64715576171875,-0.6585693359375,-3706,-8219,-687,-8,9,-32
256865520,-0.1627197265625,0.347900390625,0.64862060546875,-0.6571044921875,-3602,-8188,-734,-7,8,-26
256875504,-0.164306640625,0.3472900390625,0.6497802734375,-0.6558837890625,-3522,-8134,-791,-8,6,-20
256885484,-0.165283203125,0.3470458984375,0.6507568359375,-0.65478515625,-3442,-8090,-826,-7,5,-15
256895467,-0.16583251953125,0.3470458984375,0.65155029296875,-0.65386962890625,-3368,-8063,-844,-7,4,-11
256905455,-0.166015625,0.34716796875,0.6522216796875,-0.65301513671875,-3300,-8054,-855,-7,3,-8
256915437,-0.16607666015625,0.34735107421875,0.65289306640625,-0.65228271484375,-3228,-8084,-856,-7,2,-7
256925414,-0.166015625,0.347412109375,0.653564453125,-0.65155029296875,-3180,-8113,-865,-8,1,-7
256935393,-0.16595458984375,0.34735107421875,0.654296875,-0.65087890625,-3123,-8100,-874,-7,0,-8
256945377,-0.16595458984375,0.3470458984375,0.65509033203125,-0.6502685546875,-3047,-8084,-877,-7,-1,-9
256955357,-0.16619873046875,0.3465576171875,0.656005859375,-0.64959716796875,-2968,-8037,-883,-7,-1,-12
256965341,-0.16656494140625,0.3458251953125,0.656982421875,-0.64886474609375,-2888,-7981,-883,-7,-1,-15
256975327,-0.167236328125,0.34478759765625,0.65814208984375,-0.6480712890625,-2800,-7951,-891,-7,-1,-17
256985304,-0.1680908203125,0.34368896484375,0.65936279296875,-0.647216796875,-2705,-7959,-893,-7,-1,-19
256995293,-0.1690673828125,0.34246826171875,0.66058349609375,-0.64630126953125,-2599,-7987,-873,-7,0,-19
257005275,-0.17010498046875,0.34136962890625,0.66180419921875,-0.64544677734375,-2498,-8001,-868,-7,0,-18
257015259,-0.1710205078125,0.3404541015625,0.66290283203125,-0.64453125,-2416,-8026,-885,-8,1,-15
257025242,-0.1717529296875,0.33984375,0.66387939453125,-0.64361572265625,-2349,-8023,-892,-7,2,-13
257035221,-0.1722412109375,0.33953857421875,0.66473388671875,-0.642822265625,-2285,-8001,-908,-8,2,-9
257045212,-0.172607421875,0.3394775390625,0.66546630859375,-0.6419677734375,-2220,-7961,-925,-7,3,-7
257055192,-0.1728515625,0.339599609375,0.66607666015625,-0.64117431640625,-2165,-7932,-926,-8,4,-5
257065163,-0.17303466796875,0.3399658203125,0.6666259765625,-0.640380859375,-2114,-7916,-919,-8,4,-3
257075147,-0.17327880859375,0.3404541015625,0.6671142578125,-0.6395263671875,-2063,-7908,-920,-8,5,-2
257085130,-0.17333984375,0.34112548828125,0.6676025390625,-0.638671875,-2031,-7887,-932,-8,6,-1
257095116,-0.17333984375,0.34197998046875,0.66796875,-0.6378173828125,-2009,-7849,-960,-9,6,2
257105096,-0.17315673828125,0.3431396484375,0.66827392578125,-0.63690185546875,-1985,-7834,-990,-9,7,4
257115078,-0.17279052734375,0.344482421875,0.66851806640625,-0.63604736328125,-1976,-7811,-1027,-9,7,6
257125059,-0.17242431640625,0.34600830078125,0.668701171875,-0.6351318359375,-1972,-7799,-1064,-9,8,8
257135042,-0.171875,0.34759521484375,0.6688232421875,-0.63427734375,-1976,-7823,-1089,-9,7,8
257145029,-0.17132568359375,0.3492431640625,0.6689453125,-0.6334228515625,-1978,-7839,-1134,-9,7,9
257155013,-0.1707763671875,0.350830078125,0.6690673828125,-0.63250732421875,-1996,-7869,-1174,-10,7,8
257164990,-0.1702880859375,0.35235595703125,0.6693115234375,-0.631591796875,-2008,-7898,-1212,-9,7,7
257174971,-0.169921875,0.35369873046875,0.66961669921875,-0.630615234375,-2018,-7908,-1257,-10,7,5
257184953,-0.1695556640625,0.3548583984375,0.66998291015625,-0.629638671875,-2033,-7922,-1287,-10,6,4
257194936,-0.1693115234375,0.35577392578125,0.67047119140625,-0.62860107421875,-2061,-7934,-1311,-10,5,1
257204920,-0.16925048828125,0.35650634765625,0.67108154296875,-0.62762451171875,-2078,-7964,-1344,-10,5,-1
257214898,-0.169189453125,0.35699462890625,0.6717529296875,-0.62664794921875,-2080,-7999,-1370,-10,3,-2
257224880,-0.16912841796875,0.35736083984375,0.67242431640625,-0.625732421875,-2072,-8021,-1393,-9,3,-2
257234864,-0.16888427734375,0.35772705078125,0.67303466796875,-0.6248779296875,-2059,-8006,-1412,-9,2,-1
257244850,-0.16851806640625,0.35821533203125,0.67352294921875,-0.62420654296875,-2044,-7981,-1411,-8,1,1
257254827,-0.16802978515625,0.3587646484375,0.6739501953125,-0.62359619140625,-2030,-7960,-1436,-8,1,3
257264807,-0.16729736328125,0.35943603515625,0.67425537109375,-0.623046875,-2027,-7937,-1451,-7,0,4
257274800,-0.16656494140625,0.36004638671875,0.6744384765625,-0.6226806640625,-2030,-7917,-1443,-6,-1,4
257284779,-0.16595458984375,0.36053466796875,0.6746826171875,-0.622314453125,-2009,-7915,-1434,-5,-1,4
257294756,-0.1654052734375,0.36090087890625,0.67486572265625,-0.6220703125,-1990,-7911,-1433,-5,-1,3
257304739,-0.1650390625,0.36114501953125,0.675048828125,-0.621826171875,-1969,-7919,-1434,-4,-1,2
257314723,-0.1646728515625,0.361328125,0.6751708984375,-0.62164306640625,-1961,-7921,-1431,-3,-1,1
257324703,-0.1644287109375,0.36151123046875,0.6751708984375,-0.62158203125,-1941,-7912,-1425,-2,-1,1
257334684,-0.1641845703125,0.36163330078125,0.6751708984375,-0.62164306640625,-1928,-7870,-1430,-1,-1,2
257344672,-0.1640625,0.36181640625,0.675048828125,-0.6217041015625,-1924,-7820,-1410,0,-1,1
257354654,-0.16400146484375,0.36187744140625,0.6749267578125,-0.62176513671875,-1913,-7757,-1394,0,0,0
257364638,-0.16400146484375,0.3619384765625,0.6748046875,-0.621826171875,-1913,-7695,-1387,1,0,-1
257374616,-0.16424560546875,0.36181640625,0.67474365234375,-0.6219482421875,-1905,-7680,-1372,1,0,-3
257384601,-0.16455078125,0.36151123046875,0.67474365234375,-0.62200927734375,-1915,-7699,-1373,1,0,-4
257394582,-0.1650390625,0.3612060546875,0.67474365234375,-0.6220703125,-1916,-7736,-1382,2,0,-5
257404561,-0.1656494140625,0.36077880859375,0.67486572265625,-0.6220703125,-1908,-7783,-1408,2,1,-6
257414540,-0.16632080078125,0.36029052734375,0.67486572265625,-0.62213134765625,-1912,-7842,-1400,2,1,-6
257424524,-0.16693115234375,0.35986328125,0.6749267578125,-0.62213134765625,-1922,-7870,-1427,2,1,-6
257434506,-0.16748046875,0.35955810546875,0.6749267578125,-0.6221923828125,-1921,-7891,-1438,2,1,-6
257444488,-0.16815185546875,0.35919189453125,0.6749267578125,-0.6221923828125,-1923,-7906,-1440,2,1,-5
257454472,-0.16864013671875,0.3590087890625,0.6749267578125,-0.62225341796875,-1941,-7918,-1439,2,1,-5
257464463,-0.16912841796875,0.35882568359375,0.67486572265625,-0.62225341796875,-1942,-7938,-1436,2,2,-4
257474445,-0.16961669921875,0.35870361328125,0.67474365234375,-0.622314453125,-1942,-7953,-1427,2,1,-4
257484428,-0.16998291015625,0.358642578125,0.67462158203125,-0.62237548828125,-1943,-7969,-1431,2,1,-3
257494403,-0.17022705078125,0.358642578125,0.67449951171875,-0.6224365234375,-1944,-7984,-1415,2,1,-2
257504394,-0.17034912109375,0.35870361328125,0.67431640625,-0.62255859375,-1953,-7997,-1414,1,0,0
257514370,-0.17041015625,0.35882568359375,0.67413330078125,-0.6226806640625,-1957,-7985,-1409,1,0,0
257524352,-0.17034912109375,0.3590087890625,0.67388916015625,-0.62286376953125,-1951,-7967,-1409,1,0,2
257534335,-0.17022705078125,0.3592529296875,0.67364501953125,-0.623046875,-1953,-7933,-1421,1,0,2
257544317,-0.16998291015625,0.35955810546875,0.67333984375,-0.62322998046875,-1954,-7898,-1418,2,0,3
257554302,-0.169677734375,0.35992431640625,0.6729736328125,-0.62347412109375,-1954,-7846,-1407,2,-1,3
257564277,-0.16943359375,0.36016845703125,0.67266845703125,-0.623779296875,-1959,-7800,-1386,2,-1,3
257574266,-0.16925048828125,0.36041259765625,0.67236328125,-0.6240234375,-1962,-7755,-1376,2,-1,2
257584250,-0.16912841796875,0.36053466796875,0.67205810546875,-0.624267578125,-1963,-7743,-1355,2,-1,1
257594240,-0.16912841796875,0.3604736328125,0.671875,-0.62451171875,-1951,-7731,-1354,2,-1,-1
257604219,-0.169189453125,0.3603515625,0.6717529296875,-0.62469482421875,-1937,-7755,-1353,2,-1,-2
257614200,-0.16943359375,0.36016845703125,0.67169189453125,-0.62481689453125,-1922,-7767,-1361,2,-1,-3
257624179,-0.16961669921875,0.35992431640625,0.671630859375,-0.62493896484375,-1913,-7778,-1359,2,-1,-3
257634155,-0.16986083984375,0.3597412109375,0.6715087890625,-0.6251220703125,-1898,-7780,-1353,2,-1,-2
257644142,-0.1700439453125,0.359619140625,0.67138671875,-0.62530517578125,-1883,-7762,-1347,2,0,-2
257654122,-0.170166015625,0.35955810546875,0.6712646484375,-0.62542724609375,-1872,-7723,-1358,2,0,-1
257664108,-0.17022705078125,0.35955810546875,0.671142578125,-0.62554931640625,-1864,-7686,-1363,2,0,0
257674092,-0.17034912109375,0.359619140625,0.6710205078125,-0.6256103515625,-1843,-7666,-1350,1,0,0
257684071,-0.17041015625,0.359619140625,0.6708984375,-0.62567138671875,-1845,-7665,-1353,1,0,-1
257694049,-0.17059326171875,0.35968017578125,0.67083740234375,-0.625732421875,-1849,-7672,-1353,1,1,-1
257704031,-0.17071533203125,0.35968017578125,0.67083740234375,-0.62567138671875,-1845,-7681,-1347,0,0,-2
257714020,-0.1708984375,0.35968017578125,0.67083740234375,-0.62567138671875,-1848,-7706,-1347,0,0,-1
257723996,-0.17095947265625,0.35968017578125,0.67083740234375,-0.62554931640625,-1856,-7745,-1359,-1,0,-1
257733974,-0.1710205078125,0.3597412109375,0.6708984375,-0.62548828125,-1847,-7790,-1379,-1,0,-1
257743966,-0.17095947265625,0.35980224609375,0.67095947265625,-0.62542724609375,-1858,-7813,-1389,-1,0,0
257753944,-0.1708984375,0.35986328125,0.6710205078125,-0.62530517578125,-1865,-7830,-1398,-1,0,0
257763927,-0.17071533203125,0.36004638671875,0.67108154296875,-0.625244140625,-1859,-7824,-1415,-1,-1,1
257773912,-0.17034912109375,0.36029052734375,0.6710205078125,-0.62518310546875,-1871,-7796,-1421,-1,-1,2
257783887,-0.169921875,0.360595703125,0.67095947265625,-0.62518310546875,-1880,-7782,-1422,-1,-2,3
257793870,-0.16937255859375,0.36090087890625,0.6708984375,-0.625244140625,-1896,-7786,-1419,-2,-2,4
257803852,-0.1688232421875,0.3612060546875,0.67083740234375,-0.62530517578125,-1905,-7783,-1420,-2,-2,3
257813836,-0.16827392578125,0.36138916015625,0.6708984375,-0.62530517578125,-1909,-7797,-1423,-2,-3,3
257823819,-0.16778564453125,0.3614501953125,0.67095947265625,-0.6253662109375,-1906,-7809,-1429,-2,-4,2
257833806,-0.16729736328125,0.36138916015625,0.6710205078125,-0.62542724609375,-1918,-7802,-1436,-1,-4,1
257843787,-0.1668701171875,0.361328125,0.67108154296875,-0.62548828125,-1915,-7787,-1422,-1,-4,1
257853771,-0.1663818359375,0.36114501953125,0.67120361328125,-0.6256103515625,-1903,-7782,-1400,-1,-5,1
257863746,-0.166015625,0.36090087890625,0.67132568359375,-0.625732421875,-1901,-7783,-1390,-1,-5,0
257873737,-0.1656494140625,0.360595703125,0.67138671875,-0.62591552734375,-1884,-7813,-1397,0,-5,-1
257883712,-0.16534423828125,0.36016845703125,0.67156982421875,-0.62603759765625,-1883,-7830,-1403,0,-5,-2
257893695,-0.16510009765625,0.3597412109375,0.67169189453125,-0.626220703125,-1881,-7845,-1416,0,-5,-2
257903677,-0.16497802734375,0.35919189453125,0.671875,-0.6263427734375,-1867,-7855,-1424,0,-5,-3
257913660,-0.16497802734375,0.35858154296875,0.67205810546875,-0.62652587890625,-1841,-7853,-1426,1,-5,-4
257923640,-0.1649169921875,0.3580322265625,0.67218017578125,-0.626708984375,-1832,-7824,-1412,1,-5,-3
257933623,-0.1649169921875,0.357421875,0.67230224609375,-0.62689208984375,-1812,-7810,-1391,1,-4,-3
257943605,-0.1649169921875,0.35693359375,0.67242431640625,-0.62713623046875,-1788,-7797,-1374,1,-4,-3
257953588,-0.1649169921875,0.3564453125,0.6724853515625,-0.6273193359375,-1783,-7783,-1364,1,-4,-3
257963570,-0.16485595703125,0.35595703125,0.67254638671875,-0.6275634765625,-1789,-7767,-1340,1,-4,-3
257973553,-0.164794921875,0.35552978515625,0.67254638671875,-0.62774658203125,-1797,-7760,-1336,1,-4,-2
257983535,-0.16473388671875,0.35516357421875,0.67266845703125,-0.62786865234375,-1795,-7754,-1327,0,-3,-2
257993516,-0.16461181640625,0.35479736328125,0.67279052734375,-0.62799072265625,-1801,-7750,-1321,0,-3,-2
258003504,-0.16455078125,0.3544921875,0.67291259765625,-0.6280517578125,-1804,-7753,-1313,0,-3,-2
258013486,-0.16455078125,0.3541259765625,0.67303466796875,-0.62811279296875,-1791,-7751,-1315,0,-3,-2
258023470,-0.1644287109375,0.35382080078125,0.6732177734375,-0.62811279296875,-1789,-7736,-1328,-1,-3,-2
258033450,-0.16436767578125,0.35357666015625,0.67340087890625,-0.62811279296875,-1783,-7744,-1325,-1,-2,-2
258043432,-0.16424560546875,0.3533935546875,0.6734619140625,-0.62811279296875,-1795,-7749,-1324,-1,-2,-1
258053413,-0.1640625,0.35333251953125,0.673583984375,-0.62811279296875,-1799,-7753,-1317,-1,-2,0
258063394,-0.163818359375,0.35333251953125,0.673583984375,-0.628173828125,-1802,-7783,-1294,-1,-2,1
258073375,-0.16351318359375,0.3533935546875,0.673583984375,-0.62823486328125,-1816,-7792,-1292,-1,-2,1
258083357,-0.16326904296875,0.35345458984375,0.673583984375,-0.6282958984375,-1822,-7811,-1292,-1,-2,1
258093341,-0.16302490234375,0.35357666015625,0.67352294921875,-0.6282958984375,-1817,-7828,-1308,-1,-2,2
258103327,-0.16278076171875,0.35369873046875,0.6734619140625,-0.62835693359375,-1831,-7833,-1318,-1,-1,2
258113307,-0.16253662109375,0.353759765625,0.6734619140625,-0.62841796875,-1832,-7824,-1319,0,-1,1
258123290,-0.162353515625,0.35382080078125,0.67333984375,-0.62847900390625,-1831,-7817,-1313,0,-1,1
258133276,-0.16229248046875,0.3538818359375,0.67333984375,-0.6285400390625,-1830,-7818,-1309,0,-1,0
258143264,-0.16229248046875,0.3538818359375,0.67327880859375,-0.6285400390625,-1834,-7833,-1314,0,-1,-1
258153240,-0.16229248046875,0.35382080078125,0.67327880859375,-0.62860107421875,-1845,-7844,-1322,0,-1,-1
258163229,-0.162353515625,0.353759765625,0.67327880859375,-0.62860107421875,-1842,-7847,-1299,0,-1,-1
258173218,-0.162353515625,0.353759765625,0.6732177734375,-0.62872314453125,-1853,-7842,-1294,0,-1,0
