subject,Joshua Spiesman
arm,right
label,2
hz,100.17178288184839
time,5.969745

timestamp_us,q0,q1,q2,q3,ax,ay,az,gx,gy,gz
180419449,0.6636962890625,0.19476318359375,-0.714599609375,0.1046142578125,9988,475,-429,12,17,71
180429432,0.66424560546875,0.18853759765625,-0.7144775390625,0.11260986328125,10150,214,-295,11,17,73
180439415,0.66485595703125,0.18231201171875,-0.71429443359375,0.12060546875,10316,-24,-172,11,18,73
180449397,0.6654052734375,0.176025390625,-0.71392822265625,0.12860107421875,10450,-231,-73,12,19,74
180459375,0.66595458984375,0.16943359375,-0.71343994140625,0.13690185546875,10524,-425,19,12,20,78
180469357,0.66632080078125,0.1622314453125,-0.7130126953125,0.145751953125,10520,-636,108,12,20,87
180479339,0.66644287109375,0.154052734375,-0.71270751953125,0.155517578125,10487,-849,192,12,20,98
180489323,0.6661376953125,0.14483642578125,-0.7125244140625,0.16619873046875,10460,-1041,256,12,20,110
180499305,0.6654052734375,0.13494873046875,-0.71240234375,0.177490234375,10486,-1213,307,12,19,118
180509293,0.66448974609375,0.12457275390625,-0.712158203125,0.18902587890625,10549,-1353,355,11,19,122
180519271,0.6634521484375,0.11419677734375,-0.71173095703125,0.20050048828125,10642,-1487,368,11,20,121
180529256,0.66229248046875,0.10394287109375,-0.711181640625,0.211669921875,10708,-1631,366,10,21,120
180539242,0.6611328125,0.09381103515625,-0.7103271484375,0.22247314453125,10770,-1754,379,10,21,118
180549226,0.659912109375,0.083740234375,-0.7093505859375,0.23309326171875,10791,-1876,367,9,22,117
180559209,0.65863037109375,0.0736083984375,-0.70819091796875,0.2435302734375,10777,-2020,350,8,23,118
180569190,0.6571044921875,0.0633544921875,-0.7069091796875,0.25390625,10745,-2136,326,7,23,120
180579184,0.65533447265625,0.05267333984375,-0.70556640625,0.264404296875,10686,-2256,311,6,23,125
180589166,0.6531982421875,0.0413818359375,-0.70416259765625,0.2752685546875,10571,-2372,292,5,23,132
180599144,0.650634765625,0.029296875,-0.70263671875,0.28643798828125,10482,-2480,275,3,23,141
180609121,0.647705078125,0.0166015625,-0.70098876953125,0.29791259765625,10478,-2613,242,2,24,147
180619100,0.6446533203125,0.00372314453125,-0.6990966796875,0.3092041015625,10553,-2788,206,0,26,146
180629085,0.64178466796875,-0.0087890625,-0.697021484375,0.31964111328125,10656,-3004,152,-2,28,138
180639065,0.63934326171875,-0.0206298828125,-0.69464111328125,0.32904052734375,10678,-3222,114,-3,30,127
180649053,0.63726806640625,-0.0318603515625,-0.69207763671875,0.33746337890625,10607,-3423,62,-5,32,120
180659036,0.63531494140625,-0.04315185546875,-0.6893310546875,0.34552001953125,10475,-3629,11,-6,34,119
180669017,0.633056640625,-0.05499267578125,-0.68634033203125,0.353759765625,10270,-3836,-31,-7,36,126
180679002,0.63018798828125,-0.06805419921875,-0.68310546875,0.36273193359375,9987,-4036,-67,-8,36,140
180688991,0.62640380859375,-0.0823974609375,-0.67950439453125,0.37286376953125,9618,-4252,-92,-8,37,155
180698966,0.621826171875,-0.09771728515625,-0.675537109375,0.3839111328125,9261,-4470,-102,-7,36,166
180708951,0.61688232421875,-0.11328125,-0.6712646484375,0.39508056640625,8998,-4723,-124,-7,37,167
180718931,0.612060546875,-0.128173828125,-0.666748046875,0.405517578125,8781,-5005,-147,-6,38,157
180728916,0.6077880859375,-0.14190673828125,-0.66217041015625,0.41473388671875,8554,-5255,-161,-6,38,143
180738898,0.60400390625,-0.15460205078125,-0.657470703125,0.42303466796875,8269,-5456,-174,-5,39,132
180748880,0.60028076171875,-0.1669921875,-0.6527099609375,0.43096923828125,7980,-5652,-203,-4,39,130
180758865,0.5963134765625,-0.1795654296875,-0.6475830078125,0.4390869140625,7681,-5828,-196,-3,40,135
180768847,0.5919189453125,-0.192626953125,-0.64190673828125,0.44775390625,7392,-5997,-180,-1,41,144
180778835,0.58685302734375,-0.20623779296875,-0.6357421875,0.45703125,7062,-6154,-172,0,42,152
180788815,0.5814208984375,-0.22015380859375,-0.6290283203125,0.4666748046875,6793,-6305,-162,3,42,157
180798799,0.57598876953125,-0.2337646484375,-0.6219482421875,0.4761962890625,6634,-6446,-168,5,43,154
180808784,0.57086181640625,-0.24664306640625,-0.61480712890625,0.485107421875,6478,-6561,-196,7,44,147
180818769,0.56610107421875,-0.25897216796875,-0.60748291015625,0.493408203125,6261,-6608,-218,8,46,142
180828753,0.56134033203125,-0.27105712890625,-0.599853515625,0.5015869140625,6008,-6629,-239,10,47,142
180838734,0.556396484375,-0.283203125,-0.591796875,0.50982666015625,5757,-6657,-243,11,48,145
180848714,0.55133056640625,-0.29534912109375,-0.58331298828125,0.5181884765625,5540,-6739,-259,14,48,146
180858694,0.54638671875,-0.30706787109375,-0.57452392578125,0.5263671875,5359,-6799,-253,16,49,144
180868678,0.54156494140625,-0.3184814453125,-0.56549072265625,0.5343017578125,5131,-6814,-255,18,50,141
180878664,0.53692626953125,-0.32952880859375,-0.55615234375,0.54205322265625,4861,-6755,-241,21,51,139
180888647,0.5323486328125,-0.34033203125,-0.5465087890625,0.54962158203125,4579,-6662,-238,22,52,138
180898628,0.52764892578125,-0.35107421875,-0.5364990234375,0.55718994140625,4350,-6581,-227,24,52,139
180908611,0.52294921875,-0.3616943359375,-0.5263671875,0.56451416015625,4119,-6476,-237,24,53,138
180918594,0.51812744140625,-0.3721923828125,-0.5159912109375,0.57159423828125,3814,-6361,-213,24,54,137
180928577,0.51324462890625,-0.382568359375,-0.50537109375,0.57861328125,3481,-6261,-161,25,53,137
180938559,0.50823974609375,-0.39276123046875,-0.49456787109375,0.58544921875,3134,-6155,-100,25,53,136
180948546,0.503173828125,-0.40277099609375,-0.483642578125,0.5921630859375,2798,-6065,-30,26,52,134
180958529,0.49822998046875,-0.41229248046875,-0.47265625,0.5986328125,2499,-5974,25,27,51,130
180968511,0.493408203125,-0.4215087890625,-0.46185302734375,0.6046142578125,2221,-5860,71,26,51,126
180978493,0.48870849609375,-0.43035888671875,-0.45111083984375,0.61029052734375,1914,-5728,115,25,51,122
180988476,0.48388671875,-0.4390869140625,-0.44036865234375,0.61572265625,1560,-5586,166,25,50,120
180998459,0.47882080078125,-0.4476318359375,-0.4295654296875,0.62115478515625,1174,-5439,227,25,48,121
181008437,0.47332763671875,-0.45611572265625,-0.41851806640625,0.626708984375,775,-5311,284,24,46,123
181018431,0.46734619140625,-0.46453857421875,-0.40728759765625,0.63232421875,408,-5231,347,24,44,126
181028415,0.4610595703125,-0.47271728515625,-0.39599609375,0.6380615234375,100,-5163,420,24,42,126
181038396,0.45458984375,-0.48052978515625,-0.384765625,0.64373779296875,-167,-5081,493,24,39,125
181048374,0.4481201171875,-0.48797607421875,-0.37359619140625,0.64923095703125,-431,-4988,556,24,37,122
181058358,0.441650390625,-0.4949951171875,-0.3626708984375,0.65447998046875,-657,-4928,615,24,36,119
181068339,0.4354248046875,-0.50164794921875,-0.3521728515625,0.65936279296875,-809,-4874,655,23,35,114
181078321,0.429443359375,-0.50787353515625,-0.3421630859375,0.66375732421875,-943,-4839,709,21,34,108
181088304,0.42364501953125,-0.5137939453125,-0.33245849609375,0.66778564453125,-1128,-4818,781,20,33,104
181098293,0.41766357421875,-0.5196533203125,-0.3228759765625,0.6717529296875,-1363,-4777,842,18,31,105
181108270,0.41107177734375,-0.5255126953125,-0.31298828125,0.6759033203125,-1631,-4736,917,17,30,109
181118256,0.40380859375,-0.53143310546875,-0.30279541015625,0.6802978515625,-1917,-4684,987,17,28,115
181128241,0.39593505859375,-0.53729248046875,-0.292236328125,0.6849365234375,-2179,-4582,1094,16,27,120
181138224,0.38751220703125,-0.54315185546875,-0.28143310546875,0.68963623046875,-2446,-4547,1154,15,26,124
181148210,0.37860107421875,-0.54888916015625,-0.2703857421875,0.6944580078125,-2720,-4493,1209,15,24,127
181158188,0.36932373046875,-0.554443359375,-0.25909423828125,0.6993408203125,-2988,-4405,1260,15,23,130
181168179,0.35968017578125,-0.55975341796875,-0.24761962890625,0.7042236328125,-3241,-4319,1333,15,22,132
181178162,0.3497314453125,-0.56494140625,-0.23602294921875,0.7091064453125,-3494,-4206,1402,15,21,133
181188139,0.339599609375,-0.56988525390625,-0.22442626953125,0.71380615234375,-3743,-4052,1444,14,20,133
181198115,0.329345703125,-0.5745849609375,-0.2127685546875,0.7183837890625,-4001,-3880,1458,14,19,132
181208099,0.31890869140625,-0.57916259765625,-0.201171875,0.7227783203125,-4272,-3677,1481,13,18,132
181218080,0.3082275390625,-0.58355712890625,-0.18951416015625,0.72698974609375,-4546,-3446,1492,12,18,132
181228064,0.29730224609375,-0.58782958984375,-0.1778564453125,0.73101806640625,-4798,-3220,1503,11,17,132
181238051,0.2862548828125,-0.59185791015625,-0.166259765625,0.73492431640625,-5052,-3006,1535,10,16,132
181248031,0.27484130859375,-0.59564208984375,-0.15460205078125,0.73876953125,-5323,-2797,1618,9,15,133
181258013,0.263427734375,-0.59906005859375,-0.1429443359375,0.74249267578125,-5585,-2606,1723,9,14,132
181267995,0.25201416015625,-0.60223388671875,-0.13140869140625,0.7459716796875,-5844,-2398,1812,9,13,130
181277985,0.24066162109375,-0.60516357421875,-0.1199951171875,0.74932861328125,-6113,-2168,1887,8,12,127
181287963,0.2294921875,-0.60772705078125,-0.10888671875,0.75238037109375,-6371,-1924,1938,8,12,123
181297944,0.21868896484375,-0.61004638671875,-0.09814453125,0.75518798828125,-6577,-1663,1966,7,10,118
181307927,0.208251953125,-0.61212158203125,-0.08782958984375,0.75775146484375,-6742,-1405,1994,6,10,112
181317910,0.19818115234375,-0.6138916015625,-0.07818603515625,0.76007080078125,-6886,-1168,2051,5,9,106
181327893,0.188720703125,-0.61541748046875,-0.069091796875,0.76214599609375,-7047,-956,2119,4,8,99
181337878,0.17974853515625,-0.61669921875,-0.06060791015625,0.76397705078125,-7190,-757,2148,4,8,91
181347859,0.17156982421875,-0.61785888671875,-0.05291748046875,0.7655029296875,-7324,-578,2165,3,7,82
181357843,0.16424560546875,-0.61883544921875,-0.0460205078125,0.76678466796875,-7382,-388,2153,2,7,72
181367819,0.15771484375,-0.61981201171875,-0.03997802734375,0.7677001953125,-7419,-201,2113,1,7,62
181377803,0.15191650390625,-0.62066650390625,-0.03472900390625,0.7684326171875,-7442,-43,2075,-1,7,54
181387784,0.146484375,-0.62152099609375,-0.030029296875,0.76898193359375,-7461,113,2046,-2,7,48
181397772,0.14129638671875,-0.622314453125,-0.02581787109375,0.76947021484375,-7508,218,2025,-4,7,45
181407754,0.13623046875,-0.62310791015625,-0.02191162109375,0.7698974609375,-7547,304,2009,-5,6,44
181417737,0.13104248046875,-0.623779296875,-0.0181884765625,0.77032470703125,-7602,377,2005,-7,5,44
181427713,0.1258544921875,-0.6243896484375,-0.0146484375,0.770751953125,-7639,426,2007,-7,5,43
181437698,0.12066650390625,-0.62493896484375,-0.01129150390625,0.771240234375,-7684,476,2021,-8,4,42
181447679,0.11553955078125,-0.6253662109375,-0.00811767578125,0.77166748046875,-7730,536,2058,-10,4,40
181457662,0.1104736328125,-0.62567138671875,-0.00531005859375,0.772216796875,-7780,571,2076,-11,2,39
181467645,0.10552978515625,-0.62591552734375,-0.00274658203125,0.772705078125,-7860,570,2117,-12,2,37
181477622,0.1007080078125,-0.62603759765625,-0.00042724609375,0.77325439453125,-7963,561,2157,-13,1,35
181487605,0.09619140625,-0.6260986328125,0.00146484375,0.77374267578125,-8023,536,2205,-13,0,32
181497588,0.092041015625,-0.6260986328125,0.0029296875,0.7742919921875,-8088,499,2246,-14,0,27
181507571,0.08843994140625,-0.62591552734375,0.00384521484375,0.77484130859375,-8145,446,2294,-15,-1,21
181517553,0.08538818359375,-0.625732421875,0.00421142578125,0.77532958984375,-8177,377,2331,-15,-2,15
181527542,0.08294677734375,-0.62542724609375,0.0040283203125,0.77581787109375,-8217,277,2358,-15,-3,10
181537517,0.080810546875,-0.6251220703125,0.00347900390625,0.77630615234375,-8231,177,2368,-16,-4,6
181547500,0.0789794921875,-0.624755859375,0.002685546875,0.77679443359375,-8229,72,2344,-16,-4,4
181557484,0.07733154296875,-0.6243896484375,0.001708984375,0.77728271484375,-8206,-39,2333,-16,-4,4
181567467,0.07568359375,-0.62396240234375,0.0006103515625,0.77777099609375,-8163,-155,2311,-16,-5,3
181577449,0.07421875,-0.62353515625,-0.00054931640625,0.77825927734375,-8112,-265,2291,-16,-5,2
181587438,0.07281494140625,-0.62310791015625,-0.0018310546875,0.77874755859375,-8068,-391,2266,-16,-5,1
181597422,0.071533203125,-0.6226806640625,-0.003173828125,0.7791748046875,-8022,-504,2248,-16,-5,1
181607404,0.0701904296875,-0.62225341796875,-0.00445556640625,0.7796630859375,-7986,-616,2220,-15,-5,2
181617381,0.06878662109375,-0.62188720703125,-0.0057373046875,0.780029296875,-7936,-712,2170,-15,-5,3
181627364,0.06744384765625,-0.62158203125,-0.0069580078125,0.7803955078125,-7880,-797,2126,-15,-4,3
181637350,0.0662841796875,-0.62139892578125,-0.00830078125,0.7806396484375,-7796,-879,2058,-15,-3,1
181647326,0.06524658203125,-0.621337890625,-0.00970458984375,0.78076171875,-7733,-923,1998,-15,-2,-1
181657304,0.06451416015625,-0.62139892578125,-0.01129150390625,0.78076171875,-7671,-971,1943,-14,-1,-3
181667293,0.06402587890625,-0.62158203125,-0.01300048828125,0.7806396484375,-7641,-1030,1905,-14,0,-5
181677274,0.0635986328125,-0.621826171875,-0.01470947265625,0.78045654296875,-7627,-1095,1880,-13,2,-5
181687257,0.063232421875,-0.62213134765625,-0.01641845703125,0.7801513671875,-7624,-1161,1864,-13,3,-5
181697237,0.0628662109375,-0.62255859375,-0.01800537109375,0.77984619140625,-7606,-1212,1836,-12,3,-4
181707228,0.06256103515625,-0.623046875,-0.01947021484375,0.7794189453125,-7583,-1248,1802,-11,4,-5
181717210,0.06243896484375,-0.6236572265625,-0.02093505859375,0.7789306640625,-7554,-1289,1764,-10,5,-5
181727189,0.0623779296875,-0.6243896484375,-0.02239990234375,0.7783203125,-7557,-1322,1731,-10,6,-6
181737182,0.0623779296875,-0.6251220703125,-0.02374267578125,0.77764892578125,-7580,-1357,1692,-9,7,-5
181747166,0.062255859375,-0.6259765625,-0.02496337890625,0.7769775390625,-7626,-1395,1674,-8,7,-3
181757155,0.0618896484375,-0.6268310546875,-0.0257568359375,0.7762451171875,-7675,-1414,1668,-7,7,0
181767120,0.06134033203125,-0.62762451171875,-0.0262451171875,0.775634765625,-7726,-1418,1664,-6,7,3
181777103,0.0606689453125,-0.62847900390625,-0.0264892578125,0.7750244140625,-7779,-1425,1654,-5,7,5
181787086,0.05987548828125,-0.6292724609375,-0.02642822265625,0.7744140625,-7839,-1412,1630,-4,7,7
181797069,0.05902099609375,-0.630126953125,-0.0262451171875,0.7738037109375,-7891,-1404,1609,-3,7,8
181807051,0.05816650390625,-0.630859375,-0.02587890625,0.77325439453125,-7956,-1365,1592,-2,7,8
181817039,0.057373046875,-0.63165283203125,-0.02532958984375,0.772705078125,-8031,-1323,1580,-1,6,8
181827025,0.056640625,-0.63232421875,-0.02471923828125,0.77227783203125,-8084,-1274,1597,0,6,8
181837008,0.05609130859375,-0.63287353515625,-0.0240478515625,0.7718505859375,-8148,-1234,1613,1,5,7
181846995,0.0556640625,-0.6334228515625,-0.0234375,0.77142333984375,-8193,-1185,1630,1,5,5
181856980,0.0555419921875,-0.6339111328125,-0.02294921875,0.77105712890625,-8234,-1146,1621,2,4,2
181866959,0.0557861328125,-0.6343994140625,-0.02264404296875,0.77069091796875,-8247,-1092,1620,3,4,-1
181876938,0.056396484375,-0.634765625,-0.0225830078125,0.770263671875,-8218,-1037,1601,3,4,-5
181886921,0.057373046875,-0.63519287109375,-0.022705078125,0.76983642578125,-8203,-1002,1577,3,4,-8
181896905,0.05859375,-0.6356201171875,-0.02301025390625,0.7694091796875,-8197,-970,1554,4,4,-11
181906885,0.05999755859375,-0.635986328125,-0.02349853515625,0.76904296875,-8179,-938,1562,4,4,-13
181916869,0.06146240234375,-0.63623046875,-0.02398681640625,0.7686767578125,-8177,-906,1560,4,3,-13
181926851,0.06292724609375,-0.63641357421875,-0.02435302734375,0.76837158203125,-8145,-900,1569,5,2,-12
181936833,0.064208984375,-0.63653564453125,-0.02459716796875,0.76812744140625,-8121,-871,1564,5,2,-10
181946818,0.0654296875,-0.63665771484375,-0.02471923828125,0.7679443359375,-8072,-841,1554,4,1,-10
181956800,0.0665283203125,-0.63671875,-0.02484130859375,0.76776123046875,-8026,-801,1544,5,1,-9
181966775,0.067626953125,-0.63677978515625,-0.02484130859375,0.7677001953125,-7996,-769,1548,5,0,-9
181976767,0.06866455078125,-0.63677978515625,-0.02490234375,0.767578125,-7963,-730,1551,4,0,-9
181986751,0.0697021484375,-0.63671875,-0.0250244140625,0.76751708984375,-7949,-708,1575,4,0,-9
181996734,0.07073974609375,-0.63665771484375,-0.02508544921875,0.7674560546875,-7935,-668,1572,4,0,-9
182006710,0.07177734375,-0.6365966796875,-0.02520751953125,0.76739501953125,-7940,-627,1576,4,0,-10
182016694,0.07281494140625,-0.63653564453125,-0.02532958984375,0.76739501953125,-7906,-568,1555,4,-1,-10
182026679,0.0738525390625,-0.636474609375,-0.0255126953125,0.767333984375,-7866,-507,1533,4,0,-11
182036658,0.074951171875,-0.63641357421875,-0.02581787109375,0.76727294921875,-7843,-465,1534,3,-1,-12
182046645,0.07635498046875,-0.6363525390625,-0.02630615234375,0.76715087890625,-7800,-430,1537,3,0,-15
182056624,0.0780029296875,-0.63629150390625,-0.027099609375,0.76702880859375,-7758,-400,1547,3,0,-19
182066607,0.0799560546875,-0.63629150390625,-0.02813720703125,0.76678466796875,-7737,-365,1556,2,1,-23
182076591,0.082275390625,-0.63629150390625,-0.02947998046875,0.7664794921875,-7718,-337,1561,2,1,-26
182086573,0.08477783203125,-0.63629150390625,-0.03106689453125,0.76617431640625,-7688,-311,1571,2,1,-29
182096557,0.08758544921875,-0.63629150390625,-0.03289794921875,0.7657470703125,-7657,-286,1582,2,2,-33
182106542,0.09063720703125,-0.63629150390625,-0.03497314453125,0.76531982421875,-7616,-256,1574,1,2,-36
182116521,0.09393310546875,-0.6363525390625,-0.03729248046875,0.7647705078125,-7602,-233,1577,1,2,-39
182126502,0.09765625,-0.6363525390625,-0.03997802734375,0.76416015625,-7586,-266,1596,1,3,-44
182136488,0.101806640625,-0.6363525390625,-0.0430908203125,0.763427734375,-7566,-310,1613,1,3,-49
182146471,0.10638427734375,-0.63629150390625,-0.04656982421875,0.76263427734375,-7580,-333,1644,0,3,-53
182156452,0.1112060546875,-0.63616943359375,-0.05023193359375,0.7618408203125,-7596,-351,1650,0,2,-56
182166436,0.11627197265625,-0.63604736328125,-0.05413818359375,0.76092529296875,-7615,-364,1636,0,2,-59
182176431,0.1214599609375,-0.6357421875,-0.0582275390625,0.760009765625,-7607,-374,1619,0,1,-61
182186411,0.126708984375,-0.6353759765625,-0.06243896484375,0.7591552734375,-7598,-390,1601,-1,0,-62
182196393,0.13201904296875,-0.6348876953125,-0.0667724609375,0.75830078125,-7587,-421,1596,-1,-1,-63
182206366,0.1373291015625,-0.63421630859375,-0.0711669921875,0.75750732421875,-7585,-449,1601,-1,-3,-65
182216350,0.142822265625,-0.63330078125,-0.0758056640625,0.7568359375,-7581,-500,1626,-1,-4,-66
182226332,0.1484375,-0.6322021484375,-0.08062744140625,0.75616455078125,-7541,-550,1631,-2,-6,-69
182236316,0.154296875,-0.630859375,-0.0858154296875,0.75555419921875,-7486,-589,1615,-2,-8,-73
182246298,0.1605224609375,-0.6292724609375,-0.09130859375,0.7548828125,-7427,-620,1585,-3,-10,-78
182256280,0.1671142578125,-0.62738037109375,-0.09735107421875,0.7542724609375,-7349,-659,1573,-3,-13,-83
182266265,0.1741943359375,-0.62518310546875,-0.1038818359375,0.753662109375,-7226,-735,1596,-4,-14,-89
182276244,0.18206787109375,-0.62261962890625,-0.11114501953125,0.75286865234375,-7051,-831,1598,-4,-16,-98
182286236,0.1907958984375,-0.61968994140625,-0.11932373046875,0.75189208984375,-6835,-930,1578,-4,-18,-109
182296218,0.20062255859375,-0.61639404296875,-0.12841796875,0.75054931640625,-6592,-1029,1545,-5,-19,-122
182306206,0.21142578125,-0.61273193359375,-0.1385498046875,0.748779296875,-6348,-1124,1503,-5,-20,-133
182316190,0.22314453125,-0.608642578125,-0.14947509765625,0.74664306640625,-6091,-1239,1485,-5,-21,-143
182326174,0.2354736328125,-0.6041259765625,-0.16094970703125,0.74407958984375,-5820,-1390,1451,-5,-21,-150
182336157,0.248291015625,-0.59930419921875,-0.1728515625,0.74114990234375,-5495,-1562,1430,-6,-21,-155
182346127,0.26141357421875,-0.59417724609375,-0.18511962890625,0.73779296875,-5114,-1738,1390,-6,-22,-158
182356110,0.27459716796875,-0.5887451171875,-0.197509765625,0.734130859375,-4737,-1936,1356,-6,-22,-159
182366094,0.287841796875,-0.58306884765625,-0.20989990234375,0.7301025390625,-4366,-2104,1330,-6,-21,-160
182376075,0.30096435546875,-0.57733154296875,-0.22222900390625,0.72576904296875,-4028,-2257,1309,-6,-20,-159
182386057,0.31396484375,-0.5714111328125,-0.23443603515625,0.7210693359375,-3683,-2451,1274,-6,-19,-158
182396040,0.32684326171875,-0.5654296875,-0.24652099609375,0.71600341796875,-3301,-2650,1242,-6,-17,-157
182406024,0.33953857421875,-0.55938720703125,-0.25848388671875,0.71063232421875,-2919,-2838,1198,-7,-16,-154
182416006,0.35198974609375,-0.55340576171875,-0.27020263671875,0.704833984375,-2576,-2994,1157,-7,-14,-152
182425996,0.364013671875,-0.54742431640625,-0.28167724609375,0.69891357421875,-2238,-3118,1127,-8,-13,-148
182435979,0.37554931640625,-0.54150390625,-0.2928466796875,0.69281005859375,-1901,-3300,1083,-9,-12,-144
182445956,0.386962890625,-0.53558349609375,-0.30389404296875,0.68634033203125,-1550,-3581,1077,-9,-10,-143
182455938,0.3985595703125,-0.52947998046875,-0.31494140625,0.679443359375,-1124,-3955,1046,-9,-9,-144
182465921,0.4107666015625,-0.52301025390625,-0.3265380859375,0.67156982421875,-594,-4405,984,-9,-6,-153
182475903,0.42401123046875,-0.51605224609375,-0.33892822265625,0.66259765625,-30,-4882,911,-9,-4,-165
182485887,0.43817138671875,-0.5084228515625,-0.3519287109375,0.65240478515625,401,-5259,847,-9,-2,-176
182495869,0.45257568359375,-0.50030517578125,-0.364990234375,0.6416015625,641,-5516,806,-9,-2,-181
182505853,0.46649169921875,-0.49188232421875,-0.37762451171875,0.6307373046875,770,-5761,831,-8,-4,-179
182515835,0.479736328125,-0.48333740234375,-0.3895263671875,0.62005615234375,955,-6089,867,-6,-5,-171
182525818,0.4923095703125,-0.47467041015625,-0.40093994140625,0.60955810546875,1290,-6407,855,-5,-5,-165
182535802,0.5045166015625,-0.4658203125,-0.41204833984375,0.598876953125,1681,-6637,773,-4,-5,-163
182545784,0.5166015625,-0.456787109375,-0.4229736328125,0.58782958984375,1994,-6738,677,-3,-4,-164
182555772,0.52850341796875,-0.4476318359375,-0.43365478515625,0.576416015625,2156,-6726,610,-4,-4,-165
182565756,0.539794921875,-0.4384765625,-0.44384765625,0.56512451171875,2211,-6722,615,-4,-4,-161
182575741,0.55047607421875,-0.42938232421875,-0.45355224609375,0.553955078125,2383,-6876,673,-4,-5,-157
182585717,0.56097412109375,-0.41998291015625,-0.463134765625,0.5426025390625,2771,-7125,735,-4,-5,-157
182595701,0.5716552734375,-0.4097900390625,-0.47308349609375,0.530517578125,3222,-7346,773,-4,-6,-166
182605682,0.5828857421875,-0.39874267578125,-0.48345947265625,0.51727294921875,3602,-7404,791,-4,-6,-178
182615664,0.59442138671875,-0.38690185546875,-0.49407958984375,0.50286865234375,3808,-7298,793,-5,-6,-190
182625648,0.60577392578125,-0.37457275390625,-0.50469970703125,0.48785400390625,3887,-7122,783,-7,-6,-195
182635635,0.6165771484375,-0.36224365234375,-0.5150146484375,0.47259521484375,4045,-7045,782,-8,-7,-194
182645614,0.62689208984375,-0.34967041015625,-0.525146484375,0.45709228515625,4472,-7128,827,-9,-8,-192
182655596,0.6368408203125,-0.33660888671875,-0.5352783203125,0.441162109375,5117,-7318,880,-9,-9,-194
182665580,0.6466064453125,-0.322998046875,-0.54534912109375,0.4244384765625,5743,-7443,909,-10,-10,-199
182675562,0.65594482421875,-0.30902099609375,-0.5552978515625,0.40728759765625,6113,-7393,907,-10,-11,-201
182685545,0.66448974609375,-0.2952880859375,-0.564697265625,0.39031982421875,6193,-7197,890,-11,-12,-195
182695527,0.671875,-0.28228759765625,-0.5733642578125,0.37432861328125,6198,-6995,876,-12,-14,-183
182705512,0.6781005859375,-0.27008056640625,-0.58148193359375,0.359375,6335,-6843,877,-12,-17,-169
182715495,0.683349609375,-0.2584228515625,-0.58917236328125,0.34515380859375,6664,-6773,885,-13,-19,-159
182725479,0.68780517578125,-0.2470703125,-0.5966796875,0.33135986328125,7067,-6724,875,-14,-21,-154
182735461,0.69183349609375,-0.2357177734375,-0.60418701171875,0.3173828125,7407,-6614,854,-15,-23,-155
182745449,0.69549560546875,-0.2242431640625,-0.611572265625,0.30328369140625,7571,-6430,809,-16,-25,-156
182755437,0.6986083984375,-0.212890625,-0.618896484375,0.2891845703125,7584,-6192,749,-17,-26,-154
182765419,0.70123291015625,-0.20172119140625,-0.6259765625,0.27520751953125,7592,-5946,683,-18,-28,-152
182775402,0.70343017578125,-0.19073486328125,-0.6328125,0.261474609375,7686,-5756,644,-18,-29,-149
182785380,0.70526123046875,-0.1796875,-0.63946533203125,0.24774169921875,7941,-5625,649,-19,-30,-149
182795362,0.7069091796875,-0.16839599609375,-0.64599609375,0.2337646484375,8328,-5504,641,-18,-30,-151
182805350,0.70831298828125,-0.15667724609375,-0.65240478515625,0.21929931640625,8718,-5340,640,-18,-31,-156
182815327,0.7095947265625,-0.14459228515625,-0.6585693359375,0.20440673828125,8985,-5122,604,-19,-30,-160
182825310,0.710693359375,-0.13232421875,-0.66455078125,0.18927001953125,9143,-4850,545,-19,-30,-162
182835293,0.71142578125,-0.12005615234375,-0.670166015625,0.174072265625,9222,-4557,468,-19,-30,-161
182845277,0.71185302734375,-0.10809326171875,-0.67547607421875,0.15911865234375,9302,-4280,389,-19,-29,-157
182855259,0.71197509765625,-0.0965576171875,-0.68035888671875,0.1446533203125,9423,-4020,357,-19,-29,-151
182865238,0.7117919921875,-0.08551025390625,-0.68475341796875,0.13067626953125,9655,-3777,343,-19,-28,-145
182875230,0.71148681640625,-0.0748291015625,-0.68878173828125,0.1171875,9947,-3519,361,-19,-27,-140
182885213,0.7110595703125,-0.064453125,-0.69244384765625,0.10394287109375,10200,-3267,363,-19,-26,-137
182895193,0.71051025390625,-0.0543212890625,-0.6956787109375,0.0909423828125,10374,-3016,332,-18,-24,-134
182905185,0.7098388671875,-0.04437255859375,-0.69854736328125,0.07818603515625,10479,-2773,296,-18,-22,-132
182915167,0.70916748046875,-0.03460693359375,-0.70111083984375,0.065673828125,10567,-2543,242,-17,-20,-130
182925146,0.70843505859375,-0.025146484375,-0.70330810546875,0.05352783203125,10622,-2332,203,-16,-19,-127
182935124,0.70770263671875,-0.01593017578125,-0.70513916015625,0.041748046875,10695,-2114,191,-16,-16,-123
182945106,0.70697021484375,-0.00701904296875,-0.70654296875,0.0303955078125,10784,-1901,190,-15,-15,-119
182955088,0.706298828125,0.00164794921875,-0.7076416015625,0.0194091796875,10867,-1696,226,-14,-13,-117
182965070,0.7056884765625,0.01019287109375,-0.7083740234375,0.00860595703125,10923,-1485,259,-14,-11,-115
182975055,0.70513916015625,0.01861572265625,-0.70880126953125,-0.00201416015625,10934,-1302,318,-14,-9,-114
182985038,0.70465087890625,0.0269775390625,-0.70892333984375,-0.0125732421875,10903,-1142,369,-13,-7,-115
182995021,0.7042236328125,0.03521728515625,-0.708740234375,-0.02294921875,10839,-1007,426,-12,-5,-114
183005005,0.703857421875,0.04339599609375,-0.708251953125,-0.03314208984375,10762,-874,494,-12,-4,-112
183014991,0.70355224609375,0.05126953125,-0.70751953125,-0.04290771484375,10672,-756,569,-11,-2,-109
183024979,0.703369140625,0.0587158203125,-0.70648193359375,-0.05224609375,10564,-658,669,-11,0,-104
183034951,0.7032470703125,0.0657958984375,-0.70526123046875,-0.06097412109375,10475,-562,764,-10,1,-99
183044936,0.7032470703125,0.07244873046875,-0.703857421875,-0.06915283203125,10404,-473,851,-9,3,-94
183054920,0.70330810546875,0.0787353515625,-0.70233154296875,-0.07684326171875,10333,-393,923,-8,4,-90
183064901,0.70343017578125,0.0848388671875,-0.70068359375,-0.08416748046875,10252,-318,977,-7,5,-87
183074885,0.70355224609375,0.0908203125,-0.69891357421875,-0.09124755859375,10173,-227,1009,-7,6,-87
183084866,0.70367431640625,0.09674072265625,-0.697021484375,-0.0982666015625,10089,-194,1074,-7,6,-87
183094848,0.7037353515625,0.10260009765625,-0.695068359375,-0.10528564453125,9966,-162,1143,-7,6,-87
183104834,0.70379638671875,0.1082763671875,-0.693115234375,-0.1121826171875,9815,-123,1194,-7,5,-85
183114816,0.70367431640625,0.11376953125,-0.691162109375,-0.11895751953125,9681,-90,1220,-8,5,-83
183124798,0.70355224609375,0.11871337890625,-0.6893310546875,-0.12542724609375,9529,-30,1230,-9,3,-78
183134784,0.7032470703125,0.12310791015625,-0.68768310546875,-0.131591796875,9349,41,1206,-10,2,-73
183144770,0.70281982421875,0.1270751953125,-0.686279296875,-0.13739013671875,9125,135,1147,-10,0,-68
183154754,0.7022705078125,0.130615234375,-0.68511962890625,-0.14288330078125,8942,264,1080,-10,-2,-64
183164736,0.70135498046875,0.1339111328125,-0.6842041015625,-0.148193359375,8809,434,987,-10,-5,-61
183174712,0.7003173828125,0.13714599609375,-0.68359375,-0.15325927734375,8741,634,907,-9,-7,-58
183184694,0.6990966796875,0.14007568359375,-0.68316650390625,-0.157958984375,8711,896,838,-8,-9,-53
183194676,0.69769287109375,0.1424560546875,-0.68316650390625,-0.161865234375,8647,1183,718,-6,-10,-43
183204658,0.6964111328125,0.1439208984375,-0.68353271484375,-0.16461181640625,8578,1492,585,-5,-12,-28
183214642,0.6951904296875,0.1441650390625,-0.68438720703125,-0.1658935546875,8512,1778,415,-3,-13,-10
183224624,0.69415283203125,0.14306640625,-0.685791015625,-0.16552734375,8424,2009,264,-1,-15,8
183234604,0.6932373046875,0.14080810546875,-0.6876220703125,-0.16363525390625,8332,2165,122,1,-16,23
183244589,0.69244384765625,0.13763427734375,-0.68975830078125,-0.1605224609375,8235,2265,31,3,-17,36
183254571,0.6917724609375,0.1339111328125,-0.692138671875,-0.1563720703125,8163,2346,-31,6,-17,44
183264557,0.6910400390625,0.1300048828125,-0.69464111328125,-0.15155029296875,8135,2433,-78,9,-18,49
183274542,0.6903076171875,0.12615966796875,-0.69720458984375,-0.146484375,8145,2540,-104,11,-18,50
183284518,0.689453125,0.12274169921875,-0.69976806640625,-0.1412353515625,8136,2644,-132,14,-18,49
183294502,0.6884765625,0.11968994140625,-0.7022705078125,-0.13604736328125,8114,2706,-170,16,-18,46
183304486,0.6873779296875,0.1171875,-0.7047119140625,-0.13092041015625,8055,2735,-224,19,-18,43
183314467,0.68621826171875,0.11517333984375,-0.70709228515625,-0.12591552734375,7965,2739,-273,21,-17,39
183324450,0.6849365234375,0.11376953125,-0.7093505859375,-0.12115478515625,7849,2715,-325,23,-17,35
183334431,0.68365478515625,0.11279296875,-0.7115478515625,-0.1165771484375,7728,2693,-387,24,-16,31
183344422,0.6822509765625,0.11236572265625,-0.71368408203125,-0.11224365234375,7656,2684,-454,26,-16,26
183354405,0.68084716796875,0.1124267578125,-0.71563720703125,-0.1082763671875,7577,2699,-528,26,-15,22
183364389,0.679443359375,0.1129150390625,-0.71746826171875,-0.1044921875,7523,2730,-602,27,-13,19
183374365,0.67803955078125,0.1136474609375,-0.7191162109375,-0.10101318359375,7492,2773,-684,27,-12,16
183384350,0.6767578125,0.11468505859375,-0.72064208984375,-0.0977783203125,7478,2805,-746,26,-11,13
183394330,0.675537109375,0.11590576171875,-0.72198486328125,-0.09478759765625,7476,2822,-780,26,-10,10
183404314,0.6744384765625,0.1175537109375,-0.72308349609375,-0.09222412109375,7483,2860,-811,25,-8,6
183414296,0.67340087890625,0.11956787109375,-0.72393798828125,-0.0902099609375,7511,2901,-837,24,-6,0
183424279,0.6724853515625,0.12213134765625,-0.72454833984375,-0.0888671875,7567,2967,-854,23,-5,-8
183434261,0.67169189453125,0.12530517578125,-0.724853515625,-0.08819580078125,7669,3048,-880,22,-3,-15
183444238,0.6708984375,0.12908935546875,-0.724853515625,-0.08831787109375,7774,3136,-889,20,-1,-23
183454233,0.6702880859375,0.13330078125,-0.72454833984375,-0.08917236328125,7860,3213,-894,18,1,-30
183464213,0.66986083984375,0.1378173828125,-0.7239990234375,-0.09051513671875,7939,3267,-881,16,3,-34
183474195,0.66949462890625,0.1424560546875,-0.72314453125,-0.0921630859375,7987,3323,-863,15,4,-36
183484186,0.66937255859375,0.14703369140625,-0.72216796875,-0.0941162109375,8044,3395,-835,13,6,-37
183494174,0.66937255859375,0.1514892578125,-0.720947265625,-0.09619140625,8114,3482,-819,11,7,-37
183504144,0.66949462890625,0.15570068359375,-0.7196044921875,-0.0982666015625,8155,3560,-789,9,9,-35
183514121,0.66986083984375,0.15948486328125,-0.71820068359375,-0.10028076171875,8176,3628,-742,7,10,-32
183524107,0.67041015625,0.16278076171875,-0.7166748046875,-0.10205078125,8159,3667,-707,5,11,-28
183534088,0.67120361328125,0.16546630859375,-0.71514892578125,-0.103515625,8151,3686,-651,3,12,-23
183544070,0.672119140625,0.16754150390625,-0.713623046875,-0.1046142578125,8120,3698,-589,2,13,-17
183554054,0.67315673828125,0.16912841796875,-0.71209716796875,-0.10552978515625,8083,3693,-537,1,14,-13
183564036,0.67431640625,0.1702880859375,-0.71063232421875,-0.10614013671875,8053,3672,-499,-1,14,-10
183574017,0.67559814453125,0.17108154296875,-0.709228515625,-0.10662841796875,8022,3640,-469,-2,14,-7
183583999,0.6768798828125,0.17144775390625,-0.7078857421875,-0.10687255859375,7968,3571,-430,-3,14,-3
183593995,0.67822265625,0.17138671875,-0.70654296875,-0.10693359375,7888,3482,-390,-4,14,0
183603974,0.67962646484375,0.1708984375,-0.705322265625,-0.1068115234375,7802,3383,-321,-5,13,4
183613950,0.68109130859375,0.1700439453125,-0.7042236328125,-0.10638427734375,7729,3287,-257,-6,13,7
183623933,0.6824951171875,0.1689453125,-0.70318603515625,-0.10589599609375,7692,3221,-212,-6,12,9
183633916,0.68377685546875,0.16778564453125,-0.7022705078125,-0.10540771484375,7710,3192,-167,-7,11,9
183643899,0.68505859375,0.16656494140625,-0.70135498046875,-0.10504150390625,7816,3162,-147,-7,10,8
183653882,0.68621826171875,0.16534423828125,-0.7005615234375,-0.104736328125,7951,3118,-122,-8,9,7
183663865,0.68731689453125,0.16387939453125,-0.69989013671875,-0.1043701171875,8060,3036,-93,-8,8,9
183673847,0.6884765625,0.161865234375,-0.69940185546875,-0.10345458984375,8148,2938,-85,-8,7,17
183683830,0.68963623046875,0.15875244140625,-0.69915771484375,-0.10162353515625,8229,2789,-53,-9,6,29
183693812,0.69097900390625,0.15435791015625,-0.6993408203125,-0.09857177734375,8320,2630,3,-9,5,44
183703798,0.6923828125,0.14849853515625,-0.6998291015625,-0.09405517578125,8440,2437,51,-9,4,60
183713784,0.69384765625,0.141357421875,-0.70062255859375,-0.08831787109375,8576,2233,96,-8,3,73
183723767,0.6953125,0.1331787109375,-0.7015380859375,-0.08148193359375,8739,2015,171,-8,3,85
183733753,0.69677734375,0.12420654296875,-0.70257568359375,-0.07379150390625,8870,1763,236,-7,2,93
183743737,0.6981201171875,0.1146240234375,-0.70367431640625,-0.06536865234375,8967,1484,307,-7,1,100
183753714,0.69940185546875,0.10467529296875,-0.70477294921875,-0.056396484375,9039,1168,393,-6,1,104
183763697,0.7005615234375,0.094482421875,-0.70574951171875,-0.0469970703125,9085,814,475,-4,1,107
183773679,0.70159912109375,0.084228515625,-0.70660400390625,-0.0372314453125,9147,454,572,-2,0,108
183783667,0.702392578125,0.07415771484375,-0.70733642578125,-0.02728271484375,9245,107,646,0,0,107
183793647,0.70306396484375,0.06439208984375,-0.7080078125,-0.0174560546875,9390,-232,709,1,-1,104
183803635,0.70355224609375,0.05523681640625,-0.70849609375,-0.0079345703125,9534,-533,753,3,0,97
183813614,0.703857421875,0.0467529296875,-0.70880126953125,0.00128173828125,9633,-796,770,4,-1,92
183823594,0.70404052734375,0.0386962890625,-0.708984375,0.01019287109375,9706,-1026,786,5,-1,89
183833576,0.70416259765625,0.03076171875,-0.70916748046875,0.01910400390625,9756,-1226,793,6,-1,89
183843565,0.7041015625,0.022705078125,-0.70916748046875,0.0283203125,9808,-1397,785,7,0,93
183853542,0.7039794921875,0.01434326171875,-0.70904541015625,0.03790283203125,9884,-1532,769,7,0,98
183863526,0.70367431640625,0.00555419921875,-0.70892333984375,0.0479736328125,9995,-1679,708,7,0,105
183873508,0.703125,-0.00372314453125,-0.7086181640625,0.05865478515625,10118,-1844,644,8,0,111
183883492,0.70245361328125,-0.0135498046875,-0.7081298828125,0.0699462890625,10270,-2042,575,9,1,118
183893476,0.7015380859375,-0.02392578125,-0.70745849609375,0.0819091796875,10424,-2237,500,10,2,127
183903457,0.700439453125,-0.034912109375,-0.70654296875,0.0946044921875,10604,-2416,410,10,3,135
183913438,0.69903564453125,-0.04638671875,-0.705322265625,0.10791015625,10763,-2612,327,11,3,143
183923430,0.69744873046875,-0.0582275390625,-0.70379638671875,0.12176513671875,10935,-2833,243,13,4,148
183933413,0.69561767578125,-0.07025146484375,-0.701904296875,0.13592529296875,11070,-3048,175,14,6,151
183943395,0.69366455078125,-0.0821533203125,-0.69964599609375,0.15020751953125,11156,-3276,104,15,7,153
183953373,0.6915283203125,-0.09405517578125,-0.697021484375,0.16455078125,11170,-3505,36,17,9,154
183963356,0.6893310546875,-0.10577392578125,-0.69403076171875,0.178955078125,11169,-3729,-43,18,10,155
183973338,0.68701171875,-0.11724853515625,-0.69061279296875,0.193359375,11123,-3943,-93,21,12,154
183983322,0.6845703125,-0.12841796875,-0.68682861328125,0.20770263671875,11053,-4138,-155,23,13,153
183993305,0.68206787109375,-0.1392822265625,-0.6827392578125,0.221923828125,10989,-4331,-206,24,15,153
184003293,0.6795654296875,-0.1497802734375,-0.67828369140625,0.23583984375,10954,-4552,-253,26,17,150
184013272,0.67706298828125,-0.159912109375,-0.67352294921875,0.2496337890625,10921,-4766,-291,28,18,148
184023256,0.674560546875,-0.1697998046875,-0.66839599609375,0.2633056640625,10847,-4989,-323,30,20,147
184033244,0.6719970703125,-0.179443359375,-0.6629638671875,0.2769775390625,10754,-5183,-342,32,21,148
184043227,0.6693115234375,-0.18902587890625,-0.6571044921875,0.29071044921875,10585,-5324,-353,34,23,150
184053211,0.6663818359375,-0.19873046875,-0.65081787109375,0.30474853515625,10345,-5420,-368,35,24,155
184063190,0.6632080078125,-0.2086181640625,-0.64410400390625,0.31903076171875,10085,-5504,-367,37,25,159
184073182,0.65972900390625,-0.21856689453125,-0.63690185546875,0.3336181640625,9825,-5600,-341,39,26,163
184083164,0.6561279296875,-0.2283935546875,-0.6292724609375,0.3482666015625,9546,-5707,-308,40,27,163
184093141,0.65240478515625,-0.23797607421875,-0.62139892578125,0.36273193359375,9310,-5808,-278,42,28,161
184103121,0.64874267578125,-0.2471923828125,-0.61322021484375,0.376708984375,9096,-5913,-270,42,29,158
184113104,0.64508056640625,-0.256103515625,-0.60491943359375,0.39031982421875,8873,-6017,-268,43,30,156
184123087,0.641357421875,-0.26483154296875,-0.59637451171875,0.40362548828125,8618,-6082,-249,43,32,155
184133069,0.63739013671875,-0.27362060546875,-0.58740234375,0.41693115234375,8270,-6104,-223,44,33,158
184143053,0.63299560546875,-0.28271484375,-0.5780029296875,0.430419921875,7872,-6130,-173,44,33,162
184155995,0.6282958984375,-0.2919921875,-0.568115234375,0.44415283203125,7452,-6135,-127,45,34,166
184163018,0.6231689453125,-0.30126953125,-0.55792236328125,0.45782470703125,7075,-6125,-52,44,34,167
184173001,0.61798095703125,-0.310302734375,-0.54742431640625,0.4713134765625,6749,-6137,19,45,34,165
184182988,0.61279296875,-0.3189697265625,-0.5369873046875,0.484130859375,6461,-6164,85,45,34,160
184192966,0.6077880859375,-0.3270263671875,-0.5267333984375,0.4962158203125,6199,-6199,168,44,34,152
184202949,0.6031494140625,-0.33447265625,-0.5166015625,0.50738525390625,5916,-6203,257,43,35,143
184212933,0.5986328125,-0.34161376953125,-0.506591796875,0.51788330078125,5597,-6163,315,42,35,139
184222914,0.59405517578125,-0.3487548828125,-0.49652099609375,0.52813720703125,5252,-6098,390,41,36,138
184232898,0.589111328125,-0.35601806640625,-0.4862060546875,0.538330078125,4949,-6062,495,39,36,141
184242882,0.583740234375,-0.36346435546875,-0.47564697265625,0.54852294921875,4631,-5993,584,38,36,145
184252864,0.5777587890625,-0.37127685546875,-0.4647216796875,0.55889892578125,4257,-5898,698,36,36,150
184262848,0.57098388671875,-0.37945556640625,-0.45343017578125,0.56951904296875,3881,-5827,807,35,35,157
184272832,0.563720703125,-0.3878173828125,-0.44189453125,0.5802001953125,3533,-5787,904,33,35,160
184282815,0.5560302734375,-0.3961181640625,-0.43023681640625,0.590576171875,3159,-5732,1006,32,35,159
184292795,0.5482177734375,-0.40423583984375,-0.418701171875,0.60064697265625,2790,-5670,1109,30,33,156
184302784,0.5404052734375,-0.41204833984375,-0.4073486328125,0.61016845703125,2433,-5630,1214,28,33,150
184312769,0.53271484375,-0.41949462890625,-0.39630126953125,0.6190185546875,2115,-5595,1284,26,32,144
184322751,0.52508544921875,-0.4266357421875,-0.38568115234375,0.62725830078125,1796,-5558,1341,25,31,140
184332734,0.517333984375,-0.43365478515625,-0.3751220703125,0.63531494140625,1451,-5490,1392,23,30,139
184342710,0.5091552734375,-0.44061279296875,-0.3643798828125,0.643310546875,1067,-5409,1473,22,29,141
184352692,0.5003662109375,-0.4476318359375,-0.35333251953125,0.6514892578125,710,-5331,1551,21,28,145
184362677,0.490966796875,-0.45465087890625,-0.3421630859375,0.65966796875,419,-5283,1630,20,26,149
184372659,0.48126220703125,-0.46148681640625,-0.33099365234375,0.667724609375,211,-5272,1697,19,25,150
184382642,0.471435546875,-0.468017578125,-0.32000732421875,0.67547607421875,38,-5256,1744,18,24,148
184392625,0.46160888671875,-0.47430419921875,-0.30914306640625,0.68292236328125,-208,-5169,1781,17,23,145
184402607,0.45159912109375,-0.48046875,-0.29833984375,0.6900634765625,-538,-5032,1819,16,23,144
184412591,0.441162109375,-0.486572265625,-0.28729248046875,0.69720458984375,-926,-4840,1847,15,21,145
184422574,0.43017578125,-0.4925537109375,-0.27606201171875,0.704345703125,-1333,-4650,1877,15,20,148
184432557,0.418701171875,-0.4984130859375,-0.2645263671875,0.7115478515625,-1697,-4464,1918,15,18,152
184442542,0.40673828125,-0.5040283203125,-0.2528076171875,0.71875,-2026,-4274,1958,15,17,154
184452523,0.39447021484375,-0.50927734375,-0.240966796875,0.72589111328125,-2323,-4114,2018,15,15,154
184462504,0.38214111328125,-0.5142822265625,-0.22918701171875,0.7327880859375,-2584,-3971,2074,14,14,153
184472488,0.36981201171875,-0.51885986328125,-0.217529296875,0.7393798828125,-2814,-3796,2144,14,13,149
184482469,0.35784912109375,-0.5230712890625,-0.206298828125,0.7454833984375,-2998,-3636,2161,13,12,143
184492454,0.3463134765625,-0.5269775390625,-0.19549560546875,0.7510986328125,-3173,-3451,2155,13,12,136
184502432,0.33526611328125,-0.53057861328125,-0.18511962890625,0.75616455078125,-3363,-3281,2150,12,12,129
184512426,0.3245849609375,-0.53399658203125,-0.17510986328125,0.76080322265625,-3596,-3120,2179,11,11,123
184522408,0.3143310546875,-0.53704833984375,-0.16552734375,0.76513671875,-3816,-2991,2262,11,11,117
184532392,0.304443359375,-0.53973388671875,-0.15625,0.76910400390625,-4012,-2893,2369,10,10,112
184542372,0.2950439453125,-0.542236328125,-0.1473388671875,0.7728271484375,-4175,-2797,2466,10,10,107
184552352,0.28594970703125,-0.54449462890625,-0.138671875,0.77618408203125,-4314,-2674,2553,10,10,103
184562338,0.277099609375,-0.54669189453125,-0.1302490234375,0.779296875,-4476,-2536,2628,9,11,100
184572320,0.26849365234375,-0.54888916015625,-0.12200927734375,0.78216552734375,-4606,-2379,2655,9,12,97
184582305,0.2598876953125,-0.5511474609375,-0.1138916015625,0.78466796875,-4728,-2234,2657,8,13,95
184592293,0.25128173828125,-0.553466796875,-0.10577392578125,0.7869873046875,-4857,-2073,2658,7,14,95
184602270,0.242431640625,-0.5557861328125,-0.0975341796875,0.7891845703125,-5032,-1933,2696,7,15,97
184612256,0.23321533203125,-0.55816650390625,-0.089111328125,0.791259765625,-5249,-1819,2761,7,17,100
184622241,0.22369384765625,-0.560546875,-0.08038330078125,0.79327392578125,-5481,-1713,2841,7,17,104
184632224,0.21368408203125,-0.5628662109375,-0.0712890625,0.79522705078125,-5723,-1568,2899,7,17,108
184642207,0.2032470703125,-0.56512451171875,-0.06201171875,0.79718017578125,-5960,-1429,2937,7,17,111
184652187,0.1923828125,-0.5672607421875,-0.05242919921875,0.79901123046875,-6194,-1264,2950,7,17,115
184662180,0.1812744140625,-0.5693359375,-0.042724609375,0.80072021484375,-6413,-1098,2934,6,16,116
184672163,0.170166015625,-0.57135009765625,-0.03314208984375,0.80218505859375,-6582,-944,2903,6,17,115
184682139,0.15936279296875,-0.57330322265625,-0.0238037109375,0.8033447265625,-6715,-792,2859,5,17,110
184692116,0.14910888671875,-0.57513427734375,-0.01495361328125,0.80419921875,-6844,-647,2800,6,17,104
184702098,0.13934326171875,-0.576904296875,-0.0064697265625,0.8048095703125,-6960,-462,2743,5,17,99
184712082,0.1298828125,-0.57855224609375,0.001708984375,0.80523681640625,-7092,-271,2698,5,17,95
184722064,0.1207275390625,-0.580078125,0.0096435546875,0.8055419921875,-7207,-80,2672,5,16,92
184732051,0.11181640625,-0.58135986328125,0.0174560546875,0.80572509765625,-7328,81,2694,5,15,89
184742029,0.10345458984375,-0.58245849609375,0.02484130859375,0.80584716796875,-7432,254,2726,6,14,83
184752012,0.09588623046875,-0.58343505859375,0.03173828125,0.80584716796875,-7490,398,2741,6,14,75
184761995,0.0892333984375,-0.584228515625,0.0379638671875,0.80572509765625,-7547,547,2732,7,13,66
184771984,0.08349609375,-0.58502197265625,0.0435791015625,0.8055419921875,-7616,726,2714,7,12,56
184781961,0.07855224609375,-0.585693359375,0.04864501953125,0.80523681640625,-7678,908,2702,7,11,48
184791942,0.07427978515625,-0.58624267578125,0.05316162109375,0.80499267578125,-7714,1080,2699,6,9,42
184801928,0.0706787109375,-0.586669921875,0.05706787109375,0.80474853515625,-7725,1207,2698,6,8,35
184811910,0.067626953125,-0.58697509765625,0.06048583984375,0.80450439453125,-7712,1329,2687,5,7,29
184821893,0.0650634765625,-0.5872802734375,0.0634765625,0.80426025390625,-7694,1419,2670,5,6,23
184831878,0.0631103515625,-0.5875244140625,0.0660400390625,0.80401611328125,-7676,1488,2631,5,5,18
184841857,0.06158447265625,-0.58782958984375,0.068115234375,0.80377197265625,-7637,1553,2582,4,5,13
184851841,0.0604248046875,-0.58819580078125,0.06988525390625,0.80340576171875,-7612,1592,2526,4,5,9
184861823,0.05950927734375,-0.58856201171875,0.07135009765625,0.80303955078125,-7572,1610,2469,3,5,6
184871807,0.058837890625,-0.589111328125,0.07244873046875,0.80267333984375,-7540,1595,2415,2,6,4
184881788,0.058349609375,-0.589599609375,0.07330322265625,0.80224609375,-7505,1548,2409,2,6,1
184891767,0.05816650390625,-0.5902099609375,0.07391357421875,0.80169677734375,-7508,1468,2396,1,7,-1
184901748,0.05810546875,-0.5909423828125,0.07427978515625,0.8011474609375,-7536,1364,2386,1,8,-2
184911732,0.0582275390625,-0.591796875,0.07452392578125,0.80047607421875,-7560,1283,2371,1,9,-4
184921710,0.05865478515625,-0.59283447265625,0.074462890625,0.7996826171875,-7572,1202,2324,1,10,-8
184931693,0.0594482421875,-0.59405517578125,0.07415771484375,0.79876708984375,-7569,1125,2269,1,12,-11
184941674,0.06048583984375,-0.595458984375,0.07342529296875,0.7977294921875,-7573,1022,2252,0,12,-15
184951656,0.06201171875,-0.596923828125,0.0723876953125,0.79656982421875,-7591,888,2229,-1,14,-19
184961638,0.06378173828125,-0.59857177734375,0.0709228515625,0.79534912109375,-7639,744,2225,-1,14,-22
184971620,0.065673828125,-0.60015869140625,0.06939697265625,0.79412841796875,-7699,601,2239,-1,15,-22
184981605,0.06756591796875,-0.601806640625,0.06787109375,0.7928466796875,-7750,453,2248,-1,15,-21
184991586,0.06927490234375,-0.60345458984375,0.06640625,0.7916259765625,-7765,340,2245,-1,15,-19
185001570,0.07080078125,-0.6051025390625,0.06512451171875,0.79034423828125,-7752,238,2229,-1,16,-17
185011552,0.0721435546875,-0.606689453125,0.06390380859375,0.7890625,-7737,127,2204,-2,15,-15
185021536,0.07318115234375,-0.60833740234375,0.06292724609375,0.78778076171875,-7742,21,2168,-2,16,-12
185031518,0.0738525390625,-0.6099853515625,0.0621337890625,0.7864990234375,-7776,-82,2138,-2,16,-8
185041501,0.073974609375,-0.61151123046875,0.0616455078125,0.78533935546875,-7860,-170,2110,-2,15,-2
185051487,0.07354736328125,-0.6129150390625,0.061767578125,0.7843017578125,-7939,-233,2076,-2,14,5
185061469,0.07257080078125,-0.61419677734375,0.06231689453125,0.7833251953125,-8020,-277,2041,-2,13,11
185071451,0.071044921875,-0.6153564453125,0.063232421875,0.782470703125,-8055,-280,1999,-1,12,15
185081432,0.0693359375,-0.616455078125,0.06439208984375,0.78167724609375,-8071,-280,1956,-2,11,17
185091424,0.0675048828125,-0.61737060546875,0.06561279296875,0.781005859375,-8096,-268,1936,-2,10,18
185101406,0.065673828125,-0.61822509765625,0.0667724609375,0.7803955078125,-8141,-257,1904,-2,9,18
185111391,0.06396484375,-0.61895751953125,0.06787109375,0.77984619140625,-8223,-222,1872,-2,8,16
185121366,0.06231689453125,-0.61956787109375,0.0689697265625,0.7794189453125,-8333,-190,1867,-1,6,16
185131350,0.06085205078125,-0.6199951171875,0.0699462890625,0.77911376953125,-8424,-147,1840,-2,4,15
185141332,0.0594482421875,-0.62030029296875,0.07086181640625,0.77886962890625,-8462,-78,1804,-2,2,13
185151310,0.058349609375,-0.62042236328125,0.071533203125,0.77880859375,-8467,-19,1766,-1,1,10
185161293,0.05767822265625,-0.6204833984375,0.07196044921875,0.77874755859375,-8448,28,1741,-1,-1,6
185171276,0.057373046875,-0.62042236328125,0.07208251953125,0.77880859375,-8437,61,1723,-1,-2,2
185181259,0.05731201171875,-0.6202392578125,0.07196044921875,0.77899169921875,-8440,100,1719,-1,-4,0
185191240,0.057373046875,-0.61993408203125,0.07177734375,0.77923583984375,-8445,130,1718,-1,-5,-1
185201230,0.05731201171875,-0.61944580078125,0.07177734375,0.7796630859375,-8441,164,1716,-1,-7,1
185211211,0.05694580078125,-0.6187744140625,0.07196044921875,0.78021240234375,-8418,193,1722,-1,-9,5
185221190,0.05633544921875,-0.61785888671875,0.07244873046875,0.7808837890625,-8379,233,1731,-1,-10,8
185231183,0.05535888671875,-0.61688232421875,0.07318115234375,0.78167724609375,-8347,264,1750,-1,-12,11
185241165,0.05419921875,-0.6156005859375,0.0740966796875,0.78265380859375,-8320,299,1806,-1,-13,14
185251153,0.0528564453125,-0.6142578125,0.07513427734375,0.78375244140625,-8293,337,1840,0,-14,16
185261129,0.05133056640625,-0.61279296875,0.07635498046875,0.78485107421875,-8261,395,1868,0,-15,16
185271109,0.04986572265625,-0.6112060546875,0.07757568359375,0.78607177734375,-8229,440,1908,0,-15,17
185281097,0.04833984375,-0.60955810546875,0.07879638671875,0.78729248046875,-8167,500,1955,0,-16,16
185291079,0.046875,-0.60791015625,0.07989501953125,0.78857421875,-8108,550,1991,0,-16,15
185301059,0.045654296875,-0.606201171875,0.0809326171875,0.78985595703125,-8039,596,2009,-1,-16,13
185311042,0.04461669921875,-0.60455322265625,0.081787109375,0.79107666015625,-7969,639,2041,0,-16,11
185321028,0.04376220703125,-0.60296630859375,0.08245849609375,0.79229736328125,-7904,672,2085,0,-16,8
185331011,0.0433349609375,-0.6014404296875,0.0828857421875,0.79339599609375,-7841,694,2131,0,-15,5
185340995,0.0430908203125,-0.5999755859375,0.0831298828125,0.7945556640625,-7803,733,2184,0,-15,2
185350974,0.0430908203125,-0.59857177734375,0.08319091796875,0.7955322265625,-7743,773,2234,0,-14,0
185360953,0.04315185546875,-0.59722900390625,0.083251953125,0.79656982421875,-7700,825,2273,0,-13,-1
185370930,0.04339599609375,-0.5960693359375,0.08331298828125,0.79742431640625,-7646,878,2305,1,-12,-2
185380915,0.043701171875,-0.59490966796875,0.08331298828125,0.7982177734375,-7587,927,2333,0,-11,-4
185390897,0.044189453125,-0.593994140625,0.08319091796875,0.7989501953125,-7527,950,2359,1,-9,-6
185400879,0.044921875,-0.5931396484375,0.08282470703125,0.799560546875,-7454,977,2387,1,-8,-9
185410861,0.0460205078125,-0.59246826171875,0.082275390625,0.800048828125,-7382,1017,2423,1,-6,-12
185420846,0.04742431640625,-0.59197998046875,0.08154296875,0.8004150390625,-7324,1057,2466,1,-5,-16
185430828,0.049072265625,-0.591552734375,0.08056640625,0.80072021484375,-7272,1111,2522,1,-4,-19
185440812,0.05096435546875,-0.59124755859375,0.0794677734375,0.8009033203125,-7218,1180,2569,1,-3,-22
185450794,0.05303955078125,-0.591064453125,0.0782470703125,0.801025390625,-7170,1256,2618,1,-2,-24
185460784,0.0552978515625,-0.59100341796875,0.076904296875,0.801025390625,-7139,1344,2659,1,0,-26
185470767,0.0576171875,-0.59112548828125,0.0755615234375,0.80096435546875,-7122,1430,2687,1,1,-27
185480751,0.0599365234375,-0.59124755859375,0.07415771484375,0.80078125,-7100,1510,2698,1,2,-28
185490732,0.062255859375,-0.5914306640625,0.07281494140625,0.8006591796875,-7072,1608,2723,0,2,-28
185500710,0.06451416015625,-0.5916748046875,0.071533203125,0.8004150390625,-7056,1714,2753,0,3,-28
185510693,0.0667724609375,-0.59185791015625,0.07025146484375,0.8001708984375,-7015,1813,2791,0,3,-29
185520676,0.069091796875,-0.592041015625,0.06890869140625,0.7999267578125,-6974,1916,2812,0,3,-31
185530659,0.07177734375,-0.59228515625,0.0672607421875,0.7996826171875,-6924,2000,2827,-1,3,-35
185540639,0.074951171875,-0.59259033203125,0.065185546875,0.79937744140625,-6866,2080,2835,-1,3,-42
185550623,0.07879638671875,-0.5928955078125,0.06256103515625,0.7989501953125,-6817,2144,2832,-2,3,-49
185560604,0.08343505859375,-0.59332275390625,0.059326171875,0.79840087890625,-6745,2213,2817,-2,3,-58
185570589,0.08880615234375,-0.59375,0.05535888671875,0.79779052734375,-6651,2252,2793,-3,3,-67
185580574,0.09503173828125,-0.59417724609375,0.0506591796875,0.79705810546875,-6556,2273,2780,-4,3,-77
185590556,0.1021728515625,-0.5946044921875,0.045166015625,0.79620361328125,-6435,2273,2744,-5,2,-87
185600542,0.11016845703125,-0.59503173828125,0.0389404296875,0.795166015625,-6339,2256,2694,-5,2,-96
185610522,0.1190185546875,-0.59539794921875,0.0318603515625,0.79388427734375,-6239,2217,2649,-7,2,-106
185620506,0.128662109375,-0.59576416015625,0.02410888671875,0.7923583984375,-6150,2155,2582,-8,2,-115
185630488,0.13909912109375,-0.5960693359375,0.0155029296875,0.79058837890625,-6029,2076,2509,-9,1,-124
185640478,0.15020751953125,-0.5963134765625,0.00628662109375,0.78851318359375,-5899,1975,2414,-10,1,-132
185650455,0.16180419921875,-0.59649658203125,-0.003662109375,0.7861328125,-5776,1863,2332,-11,1,-139
185660437,0.1739501953125,-0.59649658203125,-0.01416015625,0.78338623046875,-5628,1721,2251,-13,0,-144
185670428,0.18634033203125,-0.59625244140625,-0.02508544921875,0.78045654296875,-5479,1590,2182,-14,0,-149
185680410,0.1990966796875,-0.5958251953125,-0.03662109375,0.77716064453125,-5261,1412,2088,-15,-1,-154
185690391,0.21209716796875,-0.59515380859375,-0.04864501953125,0.7735595703125,-5032,1220,1984,-17,-2,-158
185700368,0.2255859375,-0.59423828125,-0.061279296875,0.76959228515625,-4794,1019,1889,-18,-2,-164
185710351,0.23931884765625,-0.5931396484375,-0.07440185546875,0.76507568359375,-4572,799,1789,-20,-2,-169
185720334,0.25341796875,-0.591796875,-0.088134765625,0.7601318359375,-4342,553,1688,-21,-2,-174
185730316,0.26776123046875,-0.59014892578125,-0.1024169921875,0.754638671875,-4112,266,1584,-23,-3,-178
185740300,0.28228759765625,-0.58831787109375,-0.1171875,0.7486572265625,-3873,-53,1476,-24,-3,-182
185750283,0.29693603515625,-0.58612060546875,-0.13238525390625,0.74212646484375,-3622,-415,1367,-25,-4,-185
185760266,0.31201171875,-0.58349609375,-0.1480712890625,0.7349853515625,-3316,-835,1271,-26,-3,-190
185770245,0.32763671875,-0.58050537109375,-0.1644287109375,0.72705078125,-2931,-1273,1162,-26,-3,-198
185780236,0.3441162109375,-0.5770263671875,-0.18170166015625,0.71807861328125,-2458,-1749,1005,-27,-2,-209
185790224,0.36151123046875,-0.572998046875,-0.199951171875,0.707763671875,-1904,-2216,802,-27,0,-221
185800206,0.37982177734375,-0.5684814453125,-0.21917724609375,0.69610595703125,-1350,-2753,615,-28,2,-233
185810194,0.39892578125,-0.563232421875,-0.2391357421875,0.68292236328125,-808,-3345,441,-29,4,-244
185820176,0.4185791015625,-0.5572509765625,-0.25982666015625,0.66839599609375,-235,-4000,323,-29,6,-253
185830160,0.438720703125,-0.55035400390625,-0.2808837890625,0.6524658203125,394,-4691,261,-29,7,-261
185840130,0.459228515625,-0.54254150390625,-0.30230712890625,0.63507080078125,1039,-5277,173,-28,9,-269
185850113,0.479736328125,-0.533935546875,-0.32379150390625,0.61639404296875,1652,-5712,36,-28,11,-275
185860098,0.5,-0.524658203125,-0.34515380859375,0.5963134765625,2227,-6119,-99,-30,13,-279
185870082,0.51947021484375,-0.51495361328125,-0.365966796875,0.57537841796875,2753,-6507,-199,-30,15,-276
185880064,0.5377197265625,-0.50494384765625,-0.38592529296875,0.55401611328125,3267,-6960,-251,-31,15,-267
185890051,0.5546875,-0.49468994140625,-0.40472412109375,0.53265380859375,3858,-7443,-290,-30,16,-256
185900029,0.5703125,-0.484375,-0.42254638671875,0.51141357421875,4433,-7859,-341,-30,16,-245
185910014,0.58453369140625,-0.47418212890625,-0.43896484375,0.49066162109375,4818,-8076,-372,-29,15,-232
185919997,0.5972900390625,-0.4642333984375,-0.45404052734375,0.470703125,5019,-8137,-348,-28,14,-219
185929985,0.60858154296875,-0.45477294921875,-0.46771240234375,0.45172119140625,5199,-8144,-338,-29,13,-204
185939962,0.6185302734375,-0.44573974609375,-0.48028564453125,0.43359375,5398,-8181,-357,-28,12,-190
185949944,0.62744140625,-0.43707275390625,-0.49200439453125,0.41619873046875,5605,-8221,-345,-28,11,-179
185959929,0.63531494140625,-0.4287109375,-0.5029296875,0.39947509765625,5708,-8243,-311,-28,10,-170
185969911,0.642333984375,-0.42059326171875,-0.51312255859375,0.38360595703125,5673,-8177,-255,-28,7,-162
185979893,0.6484375,-0.41278076171875,-0.52276611328125,0.3685302734375,5497,-8052,-204,-28,3,-155
185989878,0.65374755859375,-0.4051513671875,-0.531982421875,0.354248046875,5306,-7905,-130,-27,0,-150
185999859,0.65850830078125,-0.397216796875,-0.54107666015625,0.34027099609375,5318,-7799,-80,-26,-4,-149
186009840,0.66314697265625,-0.38848876953125,-0.550537109375,0.325927734375,5570,-7783,-68,-26,-7,-156
186019824,0.667724609375,-0.37860107421875,-0.560791015625,0.31036376953125,5933,-7763,-111,-26,-10,-170
186029806,0.67230224609375,-0.367431640625,-0.57159423828125,0.293701171875,6225,-7713,-145,-26,-13,-184
186039789,0.67669677734375,-0.3553466796875,-0.58251953125,0.2764892578125,6337,-7603,-138,-25,-16,-192
186049769,0.6805419921875,-0.34283447265625,-0.59332275390625,0.2593994140625,6430,-7485,-129,-23,-20,-192
186059762,0.6837158203125,-0.330078125,-0.6038818359375,0.2427978515625,6671,-7384,-138,-21,-23,-188
186069744,0.68621826171875,-0.31707763671875,-0.6141357421875,0.22662353515625,7008,-7260,-152,-19,-27,-184
186079721,0.68817138671875,-0.30401611328125,-0.6241455078125,0.2108154296875,7353,-7075,-176,-18,-29,-180
186089704,0.68951416015625,-0.29083251953125,-0.6339111328125,0.1953125,7642,-6858,-221,-17,-31,-178
186099685,0.69024658203125,-0.27777099609375,-0.64337158203125,0.18023681640625,7827,-6600,-278,-16,-33,-174
186109669,0.6905517578125,-0.26495361328125,-0.65228271484375,0.165771484375,7988,-6299,-332,-15,-34,-166
186119650,0.69024658203125,-0.25274658203125,-0.66070556640625,0.15216064453125,8301,-6047,-414,-15,-35,-156
186129635,0.68951416015625,-0.240966796875,-0.668701171875,0.13922119140625,8754,-5869,-490,-14,-36,-149
186139617,0.68841552734375,-0.22955322265625,-0.67626953125,0.12677001953125,9254,-5716,-548,-14,-36,-144
186149599,0.68707275390625,-0.2183837890625,-0.6834716796875,0.1146240234375,9655,-5521,-607,-14,-36,-139
186159582,0.68548583984375,-0.2076416015625,-0.690185546875,0.10296630859375,9844,-5314,-662,-14,-35,-134
186169565,0.6837158203125,-0.19769287109375,-0.6964111328125,0.09197998046875,9854,-5088,-679,-14,-34,-125
186179548,0.681884765625,-0.1884765625,-0.7020263671875,0.08184814453125,9794,-4865,-664,-14,-33,-116
186189530,0.679931640625,-0.1800537109375,-0.7071533203125,0.07244873046875,9824,-4655,-665,-14,-31,-107
186199515,0.67791748046875,-0.1719970703125,-0.7119140625,0.06353759765625,9956,-4461,-683,-13,-30,-104
186209498,0.676025390625,-0.1639404296875,-0.71636962890625,0.0545654296875,10123,-4270,-714,-13,-28,-104
186219482,0.6741943359375,-0.1556396484375,-0.7205810546875,0.04541015625,10276,-4088,-748,-13,-26,-107
186229464,0.67242431640625,-0.1470947265625,-0.7244873046875,0.03594970703125,10383,-3880,-770,-13,-24,-110
186239449,0.67083740234375,-0.1383056640625,-0.7281494140625,0.02642822265625,10447,-3672,-793,-12,-22,-111
186249437,0.66925048828125,-0.12945556640625,-0.73150634765625,0.016845703125,10486,-3466,-816,-11,-20,-112
186259419,0.66778564453125,-0.1204833984375,-0.7344970703125,0.00732421875,10522,-3254,-860,-11,-17,-112
186269401,0.66644287109375,-0.111572265625,-0.7371826171875,-0.00213623046875,10534,-3050,-892,-10,-15,-112
186279378,0.6651611328125,-0.1026611328125,-0.73956298828125,-0.01141357421875,10556,-2834,-904,-9,-13,-110
186289361,0.66400146484375,-0.0938720703125,-0.74151611328125,-0.0203857421875,10572,-2620,-893,-8,-11,-107
186299344,0.6629638671875,-0.08538818359375,-0.74322509765625,-0.0289306640625,10579,-2421,-879,-7,-9,-104
186309329,0.6619873046875,-0.07708740234375,-0.74462890625,-0.037109375,10543,-2233,-852,-6,-7,-100
186319311,0.66119384765625,-0.06903076171875,-0.7457275390625,-0.04486083984375,10483,-2045,-834,-5,-6,-96
186329293,0.660400390625,-0.06121826171875,-0.74664306640625,-0.0521240234375,10399,-1873,-824,-3,-5,-93
186339276,0.65966796875,-0.0535888671875,-0.74737548828125,-0.05902099609375,10291,-1709,-814,-1,-4,-90
186349262,0.658935546875,-0.046142578125,-0.7479248046875,-0.0654296875,10147,-1565,-801,0,-3,-87
186359238,0.65826416015625,-0.03875732421875,-0.74835205078125,-0.071533203125,10007,-1433,-771,2,-2,-85
186369232,0.6575927734375,-0.031494140625,-0.74871826171875,-0.0772705078125,9879,-1311,-739,3,-3,-83
186379212,0.65692138671875,-0.024169921875,-0.7490234375,-0.0826416015625,9780,-1184,-695,6,-2,-81
186389194,0.65625,-0.01702880859375,-0.749267578125,-0.087646484375,9708,-1084,-650,7,-3,-78
