subject,Joshua Spiesman
arm,right
label,0
hz,100.1775013674126
time,4.861371

timestamp_us,q0,q1,q2,q3,ax,ay,az,gx,gy,gz
181718842,0.42401123046875,0.2611083984375,0.74774169921875,-0.4390869140625,-7156,-3489,-2041,7,2,-1
181728824,0.42364501953125,0.26153564453125,0.7474365234375,-0.43975830078125,-7158,-3537,-2048,7,1,-1
181738807,0.42327880859375,0.26202392578125,0.7470703125,-0.44049072265625,-7159,-3562,-2064,8,0,-1
181748791,0.42291259765625,0.262451171875,0.74664306640625,-0.4412841796875,-7166,-3581,-2070,9,0,-1
181758773,0.42242431640625,0.2628173828125,0.74627685546875,-0.442138671875,-7172,-3587,-2098,9,0,-2
181768749,0.4219970703125,0.26312255859375,0.745849609375,-0.443115234375,-7181,-3582,-2117,10,0,-3
181778731,0.42144775390625,0.26336669921875,0.74542236328125,-0.44427490234375,-7183,-3592,-2128,10,-1,-5
181788712,0.42083740234375,0.26348876953125,0.74493408203125,-0.44549560546875,-7201,-3615,-2130,11,-1,-5
181798695,0.4202880859375,0.2635498046875,0.74444580078125,-0.44683837890625,-7242,-3662,-2126,11,-2,-5
181808678,0.4197998046875,0.263671875,0.74383544921875,-0.4482421875,-7281,-3730,-2100,12,-2,-5
181818660,0.41943359375,0.263916015625,0.7430419921875,-0.44970703125,-7332,-3806,-2098,13,-3,-3
181828643,0.419189453125,0.2642822265625,0.7421875,-0.451171875,-7374,-3864,-2098,13,-4,-1
181838629,0.419189453125,0.26483154296875,0.74114990234375,-0.45257568359375,-7407,-3894,-2090,14,-5,1
181848608,0.41925048828125,0.26544189453125,0.739990234375,-0.4539794921875,-7418,-3903,-2068,15,-6,2
181858590,0.41949462890625,0.2662353515625,0.73870849609375,-0.45538330078125,-7425,-3897,-2056,15,-7,3
181868577,0.41986083984375,0.2669677734375,0.73736572265625,-0.45684814453125,-7423,-3895,-2045,16,-8,3
181878555,0.42022705078125,0.26763916015625,0.7359619140625,-0.4583740234375,-7421,-3883,-2018,16,-9,3
181888537,0.42059326171875,0.26824951171875,0.73455810546875,-0.4599609375,-7428,-3859,-1999,16,-9,2
181898519,0.42095947265625,0.26873779296875,0.73309326171875,-0.4615478515625,-7424,-3862,-1981,16,-9,1
181908501,0.4212646484375,0.26904296875,0.73175048828125,-0.4632568359375,-7417,-3858,-1974,15,-10,0
181918486,0.4215087890625,0.26934814453125,0.7303466796875,-0.46502685546875,-7368,-3828,-1969,16,-10,-1
181928471,0.4217529296875,0.26959228515625,0.72900390625,-0.466796875,-7295,-3793,-1945,16,-10,-1
181938452,0.42205810546875,0.26983642578125,0.72760009765625,-0.4686279296875,-7236,-3749,-1928,16,-10,-1
181948438,0.42230224609375,0.27020263671875,0.7261962890625,-0.47027587890625,-7168,-3682,-1890,16,-10,0
181958412,0.422607421875,0.2706298828125,0.724853515625,-0.471923828125,-7126,-3648,-1869,16,-10,0
181968394,0.42291259765625,0.2711181640625,0.72344970703125,-0.4735107421875,-7094,-3611,-1840,16,-9,1
181978376,0.42315673828125,0.27154541015625,0.72216796875,-0.4749755859375,-7106,-3594,-1816,15,-9,0
181988362,0.42333984375,0.27197265625,0.72088623046875,-0.47650146484375,-7125,-3609,-1794,14,-8,-1
181998339,0.4234619140625,0.27227783203125,0.71978759765625,-0.47796630859375,-7141,-3613,-1766,14,-7,-1
182008327,0.42352294921875,0.2725830078125,0.71868896484375,-0.47930908203125,-7160,-3616,-1735,13,-7,-1
182018304,0.423583984375,0.27294921875,0.7176513671875,-0.4805908203125,-7155,-3602,-1709,12,-6,-1
182028291,0.42364501953125,0.2734375,0.7166748046875,-0.481689453125,-7142,-3573,-1675,12,-5,1
182038277,0.423828125,0.2740478515625,0.71575927734375,-0.4825439453125,-7116,-3539,-1664,10,-4,2
182048258,0.42401123046875,0.27484130859375,0.71490478515625,-0.48321533203125,-7078,-3499,-1677,9,-4,4
182058243,0.4241943359375,0.2757568359375,0.71417236328125,-0.483642578125,-7073,-3486,-1697,9,-3,5
182068229,0.42449951171875,0.27679443359375,0.71337890625,-0.48394775390625,-7061,-3457,-1715,8,-2,7
182078212,0.4248046875,0.27789306640625,0.71270751953125,-0.4840087890625,-7076,-3418,-1737,7,-2,8
182088192,0.42523193359375,0.27911376953125,0.7120361328125,-0.4840087890625,-7090,-3391,-1753,6,-2,9
182098163,0.4256591796875,0.28033447265625,0.71136474609375,-0.48388671875,-7114,-3379,-1747,6,-1,9
182108146,0.4261474609375,0.2816162109375,0.710693359375,-0.483642578125,-7157,-3374,-1758,5,-1,10
182118129,0.42669677734375,0.2828369140625,0.71014404296875,-0.48333740234375,-7198,-3361,-1743,4,-1,10
182128111,0.42718505859375,0.2840576171875,0.7095947265625,-0.48291015625,-7212,-3336,-1739,3,-1,10
182141030,0.42767333984375,0.28521728515625,0.7091064453125,-0.4825439453125,-7218,-3312,-1747,3,-1,9
182148073,0.42816162109375,0.28619384765625,0.708740234375,-0.4820556640625,-7210,-3271,-1755,1,-1,8
182158054,0.42864990234375,0.28704833984375,0.70843505859375,-0.48162841796875,-7223,-3230,-1738,1,-1,7
182168038,0.42913818359375,0.28778076171875,0.7081298828125,-0.48114013671875,-7256,-3219,-1737,0,-2,6
182178026,0.42962646484375,0.28826904296875,0.70794677734375,-0.480712890625,-7302,-3228,-1721,-1,-2,5
182188008,0.43017578125,0.28863525390625,0.707763671875,-0.4803466796875,-7343,-3239,-1706,-1,-3,4
182197986,0.43072509765625,0.2886962890625,0.7076416015625,-0.47998046875,-7407,-3268,-1685,-3,-4,2
182207966,0.4312744140625,0.28857421875,0.70751953125,-0.4796142578125,-7466,-3285,-1671,-4,-5,1
182217950,0.431884765625,0.2882080078125,0.70745849609375,-0.4793701171875,-7520,-3296,-1668,-4,-6,-1
182227926,0.43255615234375,0.2877197265625,0.7073974609375,-0.47918701171875,-7536,-3280,-1673,-4,-7,-2
182237912,0.433349609375,0.28704833984375,0.7073974609375,-0.47894287109375,-7553,-3273,-1676,-5,-9,-2
182247892,0.43426513671875,0.2862548828125,0.707275390625,-0.478759765625,-7572,-3282,-1657,-5,-10,-2
182257880,0.43536376953125,0.2855224609375,0.70703125,-0.47857666015625,-7618,-3310,-1660,-5,-11,0
182267858,0.4366455078125,0.2847900390625,0.7066650390625,-0.478271484375,-7682,-3349,-1672,-6,-13,2
182277840,0.438232421875,0.2841796875,0.70623779296875,-0.4779052734375,-7750,-3384,-1696,-6,-14,4
182287822,0.44000244140625,0.2835693359375,0.70562744140625,-0.4775390625,-7775,-3411,-1692,-6,-16,6
182297801,0.4420166015625,0.2830810546875,0.704833984375,-0.47711181640625,-7797,-3408,-1677,-6,-17,7
182307794,0.44427490234375,0.28265380859375,0.70391845703125,-0.47662353515625,-7808,-3381,-1657,-6,-19,9
182317776,0.44671630859375,0.2822265625,0.702880859375,-0.47613525390625,-7830,-3358,-1634,-5,-20,10
182327751,0.44927978515625,0.28179931640625,0.70172119140625,-0.4757080078125,-7872,-3321,-1621,-5,-21,10
182337733,0.45184326171875,0.28125,0.70050048828125,-0.475341796875,-7928,-3302,-1604,-5,-22,9
182347717,0.4544677734375,0.2806396484375,0.69927978515625,-0.47503662109375,-7966,-3239,-1556,-5,-23,8
182357701,0.457275390625,0.280029296875,0.697998046875,-0.474609375,-7959,-3116,-1467,-6,-23,9
182367682,0.460205078125,0.279541015625,0.6966552734375,-0.47393798828125,-7928,-2970,-1337,-7,-23,11
182377663,0.46337890625,0.279296875,0.6953125,-0.4730224609375,-7865,-2817,-1195,-9,-22,14
182387643,0.466796875,0.27923583984375,0.6939697265625,-0.4716796875,-7806,-2704,-1065,-11,-21,18
182397628,0.47027587890625,0.27935791015625,0.69268798828125,-0.469970703125,-7774,-2659,-959,-13,-20,21
182407609,0.47393798828125,0.27972412109375,0.69146728515625,-0.46795654296875,-7785,-2656,-881,-15,-19,24
182417591,0.4776611328125,0.2801513671875,0.6903076171875,-0.465576171875,-7811,-2682,-835,-17,-17,26
182427577,0.48126220703125,0.28057861328125,0.6893310546875,-0.4630126953125,-7840,-2684,-799,-18,-16,26
182437557,0.48486328125,0.281005859375,0.6884765625,-0.4603271484375,-7870,-2669,-768,-20,-15,26
182447540,0.4884033203125,0.28118896484375,0.687744140625,-0.45751953125,-7844,-2610,-722,-21,-15,25
182457523,0.4918212890625,0.28125,0.68719482421875,-0.45465087890625,-7797,-2516,-680,-23,-14,23
182467509,0.4951171875,0.2811279296875,0.686767578125,-0.4517822265625,-7725,-2417,-648,-24,-13,21
182477491,0.49822998046875,0.28082275390625,0.6866455078125,-0.44873046875,-7658,-2367,-659,-25,-13,20
182487470,0.50146484375,0.280517578125,0.6864013671875,-0.4456787109375,-7606,-2342,-684,-26,-13,21
182497461,0.504638671875,0.28021240234375,0.686279296875,-0.4423828125,-7592,-2345,-734,-27,-13,23
182507443,0.50799560546875,0.280029296875,0.68609619140625,-0.43896484375,-7616,-2370,-791,-27,-14,25
182517426,0.511474609375,0.2799072265625,0.685791015625,-0.43548583984375,-7667,-2411,-866,-27,-15,26
182527402,0.5150146484375,0.27978515625,0.68548583984375,-0.43194580078125,-7713,-2418,-934,-27,-16,27
182537385,0.51849365234375,0.27960205078125,0.68505859375,-0.42840576171875,-7755,-2388,-980,-27,-16,26
182547368,0.52191162109375,0.279052734375,0.68475341796875,-0.4251708984375,-7792,-2273,-925,-28,-17,20
182557350,0.52508544921875,0.27764892578125,0.6845703125,-0.42242431640625,-7828,-2116,-847,-29,-17,9
182567330,0.5277099609375,0.27520751953125,0.68487548828125,-0.42041015625,-7855,-1985,-768,-30,-17,-3
182577308,0.52972412109375,0.27154541015625,0.68560791015625,-0.4189453125,-7849,-1882,-703,-32,-17,-15
182587291,0.53131103515625,0.26690673828125,0.68682861328125,-0.41796875,-7820,-1824,-677,-34,-18,-25
182597274,0.53253173828125,0.261474609375,0.6883544921875,-0.41729736328125,-7790,-1796,-649,-36,-18,-31
182607263,0.53369140625,0.25555419921875,0.69000244140625,-0.416748046875,-7721,-1814,-627,-38,-18,-34
182617248,0.534912109375,0.24945068359375,0.69171142578125,-0.4161376953125,-7685,-1865,-614,-39,-19,-33
182627229,0.5362548828125,0.24334716796875,0.69329833984375,-0.41522216796875,-7651,-1954,-584,-41,-20,-30
182637217,0.53802490234375,0.2374267578125,0.69482421875,-0.4139404296875,-7649,-2033,-539,-43,-21,-25
182647200,0.54010009765625,0.23187255859375,0.69610595703125,-0.41217041015625,-7681,-2153,-515,-44,-22,-19
182657177,0.5426025390625,0.2266845703125,0.6971435546875,-0.40997314453125,-7738,-2269,-511,-45,-23,-13
182667153,0.54547119140625,0.221923828125,0.697998046875,-0.40728759765625,-7794,-2402,-501,-46,-24,-6
182677142,0.54876708984375,0.21771240234375,0.69866943359375,-0.40411376953125,-7838,-2510,-492,-46,-25,1
182687122,0.55242919921875,0.2138671875,0.6990966796875,-0.40045166015625,-7888,-2596,-473,-47,-25,7
182697103,0.55645751953125,0.2103271484375,0.69927978515625,-0.39630126953125,-7916,-2639,-450,-48,-26,13
182707085,0.5606689453125,0.20709228515625,0.69940185546875,-0.39178466796875,-7913,-2650,-384,-49,-27,16
182717068,0.565185546875,0.20404052734375,0.6993408203125,-0.386962890625,-7887,-2621,-315,-51,-27,19
182727049,0.56982421875,0.2010498046875,0.69927978515625,-0.3818359375,-7834,-2576,-221,-52,-27,21
182737030,0.57452392578125,0.197998046875,0.69921875,-0.3765869140625,-7787,-2560,-154,-53,-26,22
182747017,0.57904052734375,0.19488525390625,0.69921875,-0.37115478515625,-7750,-2572,-121,-55,-25,21
182756995,0.5833740234375,0.19146728515625,0.69940185546875,-0.36578369140625,-7752,-2611,-122,-55,-25,19
182766977,0.58746337890625,0.187744140625,0.69970703125,-0.36053466796875,-7784,-2665,-160,-56,-25,16
182776961,0.59124755859375,0.18359375,0.70025634765625,-0.35546875,-7814,-2708,-203,-57,-23,11
182786942,0.59466552734375,0.17901611328125,0.700927734375,-0.35064697265625,-7819,-2727,-211,-58,-22,6
182796924,0.59783935546875,0.17388916015625,0.70184326171875,-0.34600830078125,-7803,-2709,-213,-60,-21,1
182806912,0.6007080078125,0.16839599609375,0.702880859375,-0.34161376953125,-7771,-2686,-193,-60,-20,-4
182816889,0.603271484375,0.1624755859375,0.7041015625,-0.33740234375,-7711,-2654,-188,-61,-19,-8
182826872,0.60552978515625,0.15625,0.70550537109375,-0.33331298828125,-7658,-2656,-212,-62,-18,-11
182836854,0.60760498046875,0.14984130859375,0.70703125,-0.3292236328125,-7621,-2681,-247,-63,-17,-12
182846835,0.60943603515625,0.143310546875,0.70867919921875,-0.3251953125,-7595,-2702,-310,-63,-16,-13
182856819,0.61114501953125,0.13671875,0.71038818359375,-0.32110595703125,-7628,-2742,-398,-64,-15,-14
182866806,0.61279296875,0.12994384765625,0.7120361328125,-0.3170166015625,-7686,-2786,-481,-64,-16,-15
182876789,0.6142578125,0.123046875,0.7137451171875,-0.31304931640625,-7769,-2836,-560,-64,-16,-17
182886770,0.61566162109375,0.11590576171875,0.7154541015625,-0.3092041015625,-7826,-2881,-619,-64,-16,-20
182896747,0.61700439453125,0.10845947265625,0.71710205078125,-0.30535888671875,-7856,-2937,-649,-66,-17,-21
182906729,0.6182861328125,0.100830078125,0.71868896484375,-0.30169677734375,-7890,-2998,-689,-66,-17,-24
182916713,0.61944580078125,0.0928955078125,0.72021484375,-0.298095703125,-7928,-3076,-751,-66,-18,-25
182926695,0.62060546875,0.08477783203125,0.7216796875,-0.2945556640625,-7953,-3144,-825,-66,-19,-27
182936677,0.62164306640625,0.07647705078125,0.72308349609375,-0.29107666015625,-7954,-3201,-910,-67,-20,-28
182946660,0.62274169921875,0.06805419921875,0.72442626953125,-0.28759765625,-7939,-3232,-960,-67,-21,-29
182956641,0.62384033203125,0.05950927734375,0.7255859375,-0.2841796875,-7917,-3259,-982,-67,-22,-30
182966624,0.625,0.05096435546875,0.7265625,-0.28070068359375,-7857,-3297,-996,-67,-23,-29
182976606,0.62628173828125,0.04229736328125,0.7274169921875,-0.277099609375,-7807,-3357,-1014,-68,-24,-28
182986587,0.62762451171875,0.0338134765625,0.7281494140625,-0.2733154296875,-7754,-3421,-1048,-68,-25,-26
182996570,0.6290283203125,0.02532958984375,0.728759765625,-0.26934814453125,-7714,-3464,-1095,-68,-26,-25
183006552,0.6304931640625,0.0169677734375,0.729248046875,-0.2652587890625,-7657,-3507,-1152,-69,-27,-24
183016536,0.63201904296875,0.00860595703125,0.72955322265625,-0.26104736328125,-7620,-3511,-1200,-69,-29,-23
183026516,0.63348388671875,0.000244140625,0.72979736328125,-0.25689697265625,-7589,-3534,-1228,-68,-29,-24
183036500,0.63507080078125,-0.00830078125,0.7298583984375,-0.2528076171875,-7546,-3590,-1228,-68,-31,-25
183046483,0.6365966796875,-0.01690673828125,0.72967529296875,-0.248779296875,-7473,-3657,-1216,-68,-31,-25
183056470,0.63824462890625,-0.025390625,0.7293701171875,-0.24481201171875,-7381,-3735,-1191,-67,-32,-23
183066454,0.63995361328125,-0.03363037109375,0.72894287109375,-0.24066162109375,-7283,-3796,-1186,-66,-33,-20
183076437,0.6417236328125,-0.04150390625,0.7283935546875,-0.236328125,-7182,-3838,-1194,-65,-33,-17
183086413,0.6435546875,-0.049072265625,0.72772216796875,-0.23187255859375,-7089,-3866,-1216,-63,-34,-15
183096395,0.6453857421875,-0.05633544921875,0.72698974609375,-0.2274169921875,-6996,-3907,-1238,-61,-34,-13
183106378,0.64727783203125,-0.06329345703125,0.72607421875,-0.2230224609375,-6913,-3947,-1234,-60,-34,-12
183116360,0.649169921875,-0.070068359375,0.72509765625,-0.21875,-6807,-3976,-1200,-57,-34,-10
183126344,0.65106201171875,-0.076416015625,0.7239990234375,-0.21453857421875,-6683,-4014,-1136,-55,-34,-8
183136327,0.65301513671875,-0.08233642578125,0.72283935546875,-0.2103271484375,-6576,-4053,-1059,-53,-33,-5
183146309,0.6549072265625,-0.0877685546875,0.7216796875,-0.20611572265625,-6497,-4081,-1001,-50,-31,-2
183156290,0.65673828125,-0.0927734375,0.7205810546875,-0.2020263671875,-6423,-4104,-947,-47,-30,-1
183166278,0.658447265625,-0.097412109375,0.71942138671875,-0.19818115234375,-6388,-4134,-905,-44,-28,0
183176257,0.6600341796875,-0.101806640625,0.71832275390625,-0.1947021484375,-6389,-4175,-879,-41,-27,-1
183186240,0.6614990234375,-0.10595703125,0.71722412109375,-0.191650390625,-6414,-4209,-875,-37,-25,-3
183196226,0.6627197265625,-0.1099853515625,0.7161865234375,-0.1890869140625,-6436,-4241,-881,-33,-24,-5
183206210,0.663818359375,-0.1138916015625,0.715087890625,-0.18701171875,-6437,-4257,-872,-29,-22,-7
183216195,0.66485595703125,-0.117431640625,0.7139892578125,-0.18536376953125,-6419,-4266,-829,-25,-20,-7
183226163,0.665771484375,-0.12060546875,0.71295166015625,-0.18402099609375,-6379,-4274,-749,-22,-18,-6
183236146,0.6666259765625,-0.123291015625,0.71197509765625,-0.18292236328125,-6333,-4281,-661,-18,-16,-5
183246128,0.6673583984375,-0.12548828125,0.7110595703125,-0.18206787109375,-6333,-4307,-595,-14,-14,-3
183256107,0.66802978515625,-0.12713623046875,0.7103271484375,-0.18145751953125,-6379,-4357,-555,-11,-12,-1
183266094,0.6685791015625,-0.12823486328125,0.709716796875,-0.18096923828125,-6473,-4410,-556,-7,-9,1
183276074,0.66900634765625,-0.12890625,0.709228515625,-0.18072509765625,-6582,-4430,-588,-3,-8,2
183286056,0.66937255859375,-0.12921142578125,0.7088623046875,-0.18072509765625,-6702,-4393,-631,0,-6,2
183296037,0.669677734375,-0.1292724609375,0.70855712890625,-0.18096923828125,-6800,-4323,-664,3,-5,1
183306024,0.66998291015625,-0.12921142578125,0.7081298828125,-0.18157958984375,-6891,-4209,-671,5,-5,-2
183315997,0.670166015625,-0.1292724609375,0.7076416015625,-0.1826171875,-6982,-4074,-671,7,-5,-7
183325981,0.67034912109375,-0.1295166015625,0.70709228515625,-0.18402099609375,-7042,-3956,-690,8,-5,-10
183335965,0.67041015625,-0.12994384765625,0.7064208984375,-0.185791015625,-7054,-3867,-712,10,-5,-13
183345948,0.6705322265625,-0.13043212890625,0.70574951171875,-0.187744140625,-7070,-3822,-727,11,-6,-14
183355929,0.67071533203125,-0.1307373046875,0.7049560546875,-0.189697265625,-7094,-3793,-746,12,-6,-13
183365912,0.67095947265625,-0.130859375,0.70416259765625,-0.191650390625,-7111,-3750,-760,13,-6,-11
183375896,0.67132568359375,-0.13079833984375,0.703369140625,-0.19342041015625,-7090,-3726,-724,13,-7,-9
183385878,0.671875,-0.1304931640625,0.70245361328125,-0.195068359375,-7036,-3683,-651,13,-7,-6
183395859,0.67254638671875,-0.12982177734375,0.70159912109375,-0.1964111328125,-6975,-3623,-563,14,-8,-3
183405844,0.67340087890625,-0.12890625,0.70062255859375,-0.19744873046875,-6899,-3538,-458,13,-9,0
183415822,0.67437744140625,-0.127685546875,0.69964599609375,-0.1982421875,-6861,-3472,-363,13,-9,3
183425801,0.67547607421875,-0.12640380859375,0.69873046875,-0.19873046875,-6809,-3410,-272,12,-9,5
183435793,0.6766357421875,-0.12493896484375,0.69781494140625,-0.19903564453125,-6755,-3361,-193,12,-9,7
183445775,0.677734375,-0.1234130859375,0.6968994140625,-0.1990966796875,-6695,-3302,-104,11,-9,9
183455753,0.67889404296875,-0.1219482421875,0.696044921875,-0.1990966796875,-6645,-3232,-27,10,-9,9
183465734,0.67999267578125,-0.1204833984375,0.6953125,-0.19903564453125,-6613,-3153,44,9,-8,8
183475718,0.68096923828125,-0.11920166015625,0.694580078125,-0.198974609375,-6591,-3073,104,8,-7,7
183485699,0.6817626953125,-0.11810302734375,0.6939697265625,-0.19903564453125,-6581,-2999,145,7,-6,4
183495681,0.682373046875,-0.1173095703125,0.69342041015625,-0.19921875,-6593,-2929,173,6,-5,1
183505663,0.68280029296875,-0.11688232421875,0.6929931640625,-0.1995849609375,-6663,-2889,215,5,-4,-3
183515643,0.68304443359375,-0.11676025390625,0.69256591796875,-0.20025634765625,-6768,-2867,259,4,-2,-7
183525622,0.68310546875,-0.1170654296875,0.69219970703125,-0.201171875,-6866,-2875,301,3,-1,-11
183535609,0.68292236328125,-0.11767578125,0.69189453125,-0.202392578125,-6990,-2896,351,2,0,-14
183545590,0.6826171875,-0.11859130859375,0.691650390625,-0.2037353515625,-7094,-2922,382,1,1,-17
183555577,0.68212890625,-0.1197509765625,0.6915283203125,-0.2052001953125,-7205,-2964,390,1,2,-19
183565556,0.6815185546875,-0.12103271484375,0.69146728515625,-0.20672607421875,-7311,-2996,399,0,3,-20
183575539,0.6807861328125,-0.1224365234375,0.69146728515625,-0.20819091796875,-7386,-3039,387,-2,4,-20
183585520,0.67999267578125,-0.12384033203125,0.69158935546875,-0.2095947265625,-7447,-3084,365,-2,5,-19
183595503,0.67919921875,-0.1251220703125,0.6917724609375,-0.21075439453125,-7490,-3128,347,-3,5,-17
183605486,0.67840576171875,-0.12615966796875,0.69207763671875,-0.211669921875,-7527,-3150,327,-3,6,-14
183615465,0.67767333984375,-0.126953125,0.69244384765625,-0.21234130859375,-7568,-3174,310,-3,6,-12
183625455,0.67694091796875,-0.1275634765625,0.69293212890625,-0.2127685546875,-7601,-3204,289,-4,6,-9
183635437,0.67626953125,-0.12799072265625,0.6934814453125,-0.21295166015625,-7634,-3239,270,-4,6,-6
183645413,0.67559814453125,-0.128173828125,0.694091796875,-0.212890625,-7681,-3278,245,-4,7,-4
183655393,0.67498779296875,-0.12823486328125,0.6947021484375,-0.21270751953125,-7701,-3299,219,-4,7,-2
183665385,0.6744384765625,-0.12811279296875,0.6954345703125,-0.2122802734375,-7733,-3325,202,-4,7,0
183675358,0.67388916015625,-0.12799072265625,0.69610595703125,-0.2117919921875,-7758,-3330,176,-5,7,0
183685339,0.67333984375,-0.12786865234375,0.69683837890625,-0.2113037109375,-7778,-3334,138,-4,6,0
183695327,0.67279052734375,-0.1278076171875,0.697509765625,-0.2108154296875,-7785,-3364,116,-5,6,0
183705305,0.67230224609375,-0.12774658203125,0.6981201171875,-0.21044921875,-7772,-3380,115,-4,6,0
183715290,0.67181396484375,-0.12774658203125,0.69866943359375,-0.2100830078125,-7763,-3423,118,-4,5,-1
183725274,0.67138671875,-0.12774658203125,0.69915771484375,-0.20989990234375,-7757,-3475,98,-3,5,-1
183735258,0.67095947265625,-0.127685546875,0.69964599609375,-0.20965576171875,-7750,-3505,88,-3,4,-1
183745242,0.670654296875,-0.1275634765625,0.70001220703125,-0.20953369140625,-7733,-3535,70,-2,4,-1
183755225,0.67034912109375,-0.12738037109375,0.70037841796875,-0.20941162109375,-7711,-3546,57,-1,4,0
183765221,0.670166015625,-0.12713623046875,0.70062255859375,-0.2093505859375,-7680,-3541,66,-1,3,0
183775202,0.66998291015625,-0.12689208984375,0.7008056640625,-0.20941162109375,-7655,-3536,68,0,2,-1
183785172,0.66986083984375,-0.126708984375,0.70086669921875,-0.20953369140625,-7641,-3531,60,1,2,-2
183795149,0.6697998046875,-0.12652587890625,0.700927734375,-0.20977783203125,-7614,-3524,36,1,1,-3
183805131,0.66973876953125,-0.12646484375,0.70086669921875,-0.21014404296875,-7589,-3506,32,2,1,-4
183815110,0.669677734375,-0.12646484375,0.70074462890625,-0.210693359375,-7553,-3485,20,3,0,-5
183825090,0.669677734375,-0.12652587890625,0.70062255859375,-0.2113037109375,-7500,-3471,31,3,0,-7
183835077,0.66961669921875,-0.12664794921875,0.70037841796875,-0.2120361328125,-7464,-3463,56,3,-1,-7
183845063,0.66961669921875,-0.12677001953125,0.7000732421875,-0.212890625,-7417,-3444,84,4,0,-8
183855041,0.66961669921875,-0.1268310546875,0.6998291015625,-0.2137451171875,-7374,-3441,119,4,0,-7
183865030,0.6695556640625,-0.1268310546875,0.69964599609375,-0.21453857421875,-7341,-3444,133,4,1,-7
183875011,0.66943359375,-0.12677001953125,0.69952392578125,-0.21533203125,-7317,-3444,142,4,1,-6
183884988,0.6693115234375,-0.12664794921875,0.69940185546875,-0.21612548828125,-7305,-3450,147,4,2,-5
183894969,0.669189453125,-0.12640380859375,0.69940185546875,-0.21685791015625,-7296,-3450,138,5,2,-5
183904952,0.6689453125,-0.1260986328125,0.69940185546875,-0.21759033203125,-7300,-3465,117,5,3,-5
183914934,0.668701171875,-0.12579345703125,0.69952392578125,-0.21826171875,-7313,-3466,103,4,3,-4
183924916,0.6683349609375,-0.12548828125,0.69964599609375,-0.218994140625,-7312,-3463,93,4,4,-5
183934899,0.66796875,-0.125244140625,0.6998291015625,-0.21978759765625,-7320,-3464,84,4,5,-6
183944882,0.66754150390625,-0.125,0.7000732421875,-0.2205810546875,-7327,-3461,61,4,5,-6
183954864,0.6669921875,-0.124755859375,0.7003173828125,-0.221435546875,-7321,-3475,41,4,6,-6
183964845,0.66644287109375,-0.12451171875,0.70068359375,-0.22216796875,-7334,-3479,25,3,6,-5
183974827,0.66583251953125,-0.124267578125,0.7010498046875,-0.22283935546875,-7349,-3502,-10,3,7,-5
183984810,0.6651611328125,-0.12396240234375,0.7015380859375,-0.22344970703125,-7375,-3532,-44,3,7,-4
183994798,0.66455078125,-0.12359619140625,0.70208740234375,-0.22393798828125,-7382,-3551,-94,3,7,-3
184004781,0.66387939453125,-0.12310791015625,0.70269775390625,-0.224365234375,-7402,-3573,-148,3,7,-2
184014753,0.66314697265625,-0.12255859375,0.70330810546875,-0.22467041015625,-7419,-3586,-198,3,8,-1
184024740,0.6624755859375,-0.1219482421875,0.7039794921875,-0.224853515625,-7430,-3600,-244,3,8,0
184034723,0.66180419921875,-0.12127685546875,0.7047119140625,-0.2249755859375,-7443,-3620,-287,2,8,1
184044704,0.66119384765625,-0.12060546875,0.70538330078125,-0.22509765625,-7443,-3639,-320,2,8,2
184054686,0.6605224609375,-0.11981201171875,0.70611572265625,-0.22509765625,-7459,-3657,-353,2,8,2
184064670,0.65985107421875,-0.1190185546875,0.7069091796875,-0.22509765625,-7491,-3680,-393,2,8,3
184074650,0.6591796875,-0.1181640625,0.70770263671875,-0.22503662109375,-7507,-3704,-428,2,8,3
184084633,0.65850830078125,-0.1173095703125,0.70843505859375,-0.2249755859375,-7522,-3735,-471,3,8,3
184094615,0.65789794921875,-0.11639404296875,0.709228515625,-0.22491455078125,-7538,-3735,-505,3,8,3
184104597,0.6572265625,-0.115478515625,0.7099609375,-0.2249755859375,-7525,-3740,-518,3,8,3
184114581,0.6566162109375,-0.1146240234375,0.71063232421875,-0.2249755859375,-7485,-3757,-531,3,7,3
184124563,0.65606689453125,-0.1136474609375,0.7113037109375,-0.22503662109375,-7446,-3762,-535,4,7,4
184134543,0.65557861328125,-0.11260986328125,0.7119140625,-0.22503662109375,-7406,-3774,-529,4,7,5
184144525,0.65509033203125,-0.1114501953125,0.71258544921875,-0.2249755859375,-7362,-3773,-513,5,7,6
184154507,0.6546630859375,-0.11016845703125,0.71319580078125,-0.2249755859375,-7327,-3776,-510,5,7,7
184164491,0.65423583984375,-0.10888671875,0.7137451171875,-0.2249755859375,-7291,-3763,-496,5,7,6
184174470,0.65380859375,-0.10760498046875,0.71429443359375,-0.22509765625,-7265,-3766,-482,6,7,6
184184460,0.65338134765625,-0.10638427734375,0.71478271484375,-0.22528076171875,-7254,-3759,-465,6,7,5
184194444,0.6529541015625,-0.105224609375,0.7152099609375,-0.22564697265625,-7243,-3760,-459,7,6,4
184204425,0.65252685546875,-0.1041259765625,0.71563720703125,-0.22613525390625,-7240,-3756,-450,7,6,2
184214402,0.652099609375,-0.1031494140625,0.7159423828125,-0.22674560546875,-7232,-3753,-435,7,6,1
184224385,0.6517333984375,-0.10223388671875,0.71624755859375,-0.2274169921875,-7220,-3751,-427,7,6,1
184234365,0.6513671875,-0.101318359375,0.71649169921875,-0.22808837890625,-7208,-3735,-420,8,5,1
184244348,0.65106201171875,-0.10040283203125,0.71673583984375,-0.228759765625,-7207,-3727,-416,8,5,1
184254332,0.6507568359375,-0.0994873046875,0.71685791015625,-0.22943115234375,-7194,-3705,-386,8,4,1
184264312,0.65057373046875,-0.0985107421875,0.71697998046875,-0.2301025390625,-7194,-3695,-371,8,4,1
184274295,0.650390625,-0.09759521484375,0.717041015625,-0.23077392578125,-7217,-3701,-365,8,3,1
184284274,0.6502685546875,-0.09674072265625,0.717041015625,-0.23150634765625,-7244,-3704,-358,8,2,0
184294269,0.650146484375,-0.095947265625,0.71697998046875,-0.2322998046875,-7277,-3713,-368,8,2,-1
184304246,0.6500244140625,-0.09527587890625,0.7169189453125,-0.233154296875,-7295,-3720,-370,8,2,-2
184314226,0.64996337890625,-0.09466552734375,0.716796875,-0.23394775390625,-7293,-3704,-371,8,1,-2
184324217,0.64990234375,-0.09405517578125,0.71661376953125,-0.23480224609375,-7289,-3697,-357,8,1,-2
184334201,0.64990234375,-0.09356689453125,0.7164306640625,-0.235595703125,-7283,-3696,-332,7,0,-2
184344175,0.64996337890625,-0.093017578125,0.7161865234375,-0.23638916015625,-7282,-3695,-315,7,0,-2
184354152,0.6500244140625,-0.09259033203125,0.71600341796875,-0.237060546875,-7285,-3708,-310,7,0,-2
184364136,0.6500244140625,-0.09210205078125,0.7158203125,-0.23773193359375,-7280,-3696,-324,6,0,-2
184374116,0.65008544921875,-0.09173583984375,0.71563720703125,-0.2384033203125,-7277,-3707,-331,6,0,-2
184384098,0.650146484375,-0.09136962890625,0.71539306640625,-0.23895263671875,-7258,-3700,-326,5,-1,-2
184394085,0.65020751953125,-0.09100341796875,0.71527099609375,-0.23944091796875,-7228,-3683,-317,5,-1,-1
184404077,0.6502685546875,-0.090576171875,0.715087890625,-0.23980712890625,-7193,-3666,-302,4,0,0
184414050,0.650390625,-0.09014892578125,0.71502685546875,-0.239990234375,-7178,-3666,-285,3,0,2
184424032,0.65045166015625,-0.089599609375,0.7149658203125,-0.24005126953125,-7153,-3663,-275,3,0,3
184434020,0.650634765625,-0.08905029296875,0.71490478515625,-0.239990234375,-7135,-3651,-274,2,0,4
184443996,0.6507568359375,-0.08843994140625,0.7149658203125,-0.23974609375,-7149,-3631,-275,1,0,4
184453979,0.65081787109375,-0.08795166015625,0.715087890625,-0.23944091796875,-7150,-3619,-270,0,1,4
184463964,0.65081787109375,-0.0875244140625,0.7152099609375,-0.2391357421875,-7153,-3610,-268,-1,1,3
184473943,0.6507568359375,-0.08721923828125,0.71539306640625,-0.23883056640625,-7156,-3578,-274,-1,1,2
184483924,0.650634765625,-0.08709716796875,0.71563720703125,-0.23858642578125,-7141,-3549,-268,-2,2,1
184493912,0.65045166015625,-0.087158203125,0.71588134765625,-0.23834228515625,-7124,-3531,-247,-3,2,-1
184503886,0.65020751953125,-0.0872802734375,0.71612548828125,-0.2381591796875,-7110,-3504,-249,-3,2,-1
184513868,0.64990234375,-0.0875244140625,0.71649169921875,-0.23785400390625,-7110,-3490,-257,-4,3,-2
184523848,0.6495361328125,-0.08782958984375,0.71685791015625,-0.237548828125,-7107,-3504,-267,-5,3,-1
184533830,0.649169921875,-0.088134765625,0.71728515625,-0.2371826171875,-7120,-3529,-277,-6,4,-1
184543819,0.64874267578125,-0.08843994140625,0.7177734375,-0.2366943359375,-7152,-3551,-297,-6,4,-1
184553807,0.6483154296875,-0.0887451171875,0.71832275390625,-0.23614501953125,-7186,-3580,-320,-7,4,0
184563785,0.64788818359375,-0.089111328125,0.7188720703125,-0.23553466796875,-7226,-3596,-336,-8,4,0
184573767,0.6474609375,-0.0894775390625,0.71942138671875,-0.23486328125,-7252,-3596,-340,-8,4,0
184583745,0.64703369140625,-0.08990478515625,0.719970703125,-0.234130859375,-7273,-3594,-369,-8,4,0
184593725,0.6466064453125,-0.09039306640625,0.72052001953125,-0.2333984375,-7265,-3590,-380,-9,4,0
184603707,0.646240234375,-0.0909423828125,0.7210693359375,-0.232666015625,-7250,-3604,-380,-9,3,0
184613690,0.64581298828125,-0.0914306640625,0.72161865234375,-0.23193359375,-7238,-3629,-364,-9,3,1
184623673,0.6455078125,-0.09185791015625,0.72210693359375,-0.2310791015625,-7243,-3661,-367,-9,3,2
184633655,0.64520263671875,-0.0921630859375,0.72259521484375,-0.2301025390625,-7260,-3699,-371,-9,3,3
184643637,0.64495849609375,-0.09228515625,0.72314453125,-0.22906494140625,-7271,-3735,-380,-9,3,5
184653619,0.644775390625,-0.09222412109375,0.72369384765625,-0.2279052734375,-7278,-3761,-388,-8,3,7
184663602,0.6446533203125,-0.09210205078125,0.72418212890625,-0.22674560546875,-7313,-3777,-415,-8,3,8
184673583,0.64459228515625,-0.0919189453125,0.72467041015625,-0.22552490234375,-7337,-3790,-441,-7,2,8
184683566,0.64453125,-0.09173583984375,0.72503662109375,-0.22442626953125,-7373,-3815,-478,-7,1,7
184693548,0.64453125,-0.091552734375,0.72540283203125,-0.22344970703125,-7400,-3820,-514,-6,1,6
184703530,0.64453125,-0.0914306640625,0.7257080078125,-0.2225341796875,-7423,-3818,-529,-5,0,5
184713512,0.64459228515625,-0.09124755859375,0.72589111328125,-0.22174072265625,-7438,-3807,-539,-5,0,5
184723495,0.64471435546875,-0.09112548828125,0.72601318359375,-0.2210693359375,-7449,-3812,-563,-4,-1,5
184733473,0.6448974609375,-0.0909423828125,0.72607421875,-0.22039794921875,-7456,-3814,-560,-3,-2,5
184743465,0.64520263671875,-0.0906982421875,0.72607421875,-0.21978759765625,-7471,-3819,-554,-3,-2,5
184753446,0.6455078125,-0.09039306640625,0.7259521484375,-0.21917724609375,-7463,-3800,-559,-2,-3,6
184763428,0.64593505859375,-0.0899658203125,0.725830078125,-0.2186279296875,-7455,-3768,-563,-1,-4,6
184773408,0.6463623046875,-0.08953857421875,0.72564697265625,-0.21807861328125,-7450,-3728,-588,0,-4,6
184783389,0.64691162109375,-0.08905029296875,0.725341796875,-0.21759033203125,-7457,-3691,-584,0,-5,5
184793372,0.6474609375,-0.088623046875,0.72503662109375,-0.2171630859375,-7447,-3653,-579,1,-5,5
184803353,0.6480712890625,-0.0882568359375,0.72467041015625,-0.21685791015625,-7420,-3617,-573,1,-6,4
184813337,0.648681640625,-0.087890625,0.7242431640625,-0.216552734375,-7396,-3596,-565,1,-6,4
184823318,0.64935302734375,-0.08746337890625,0.7237548828125,-0.21630859375,-7369,-3585,-554,2,-7,4
184833300,0.64996337890625,-0.0870361328125,0.72332763671875,-0.216064453125,-7347,-3565,-540,2,-6,4
184843279,0.650634765625,-0.086669921875,0.72283935546875,-0.21588134765625,-7341,-3546,-517,2,-6,4
184853271,0.65130615234375,-0.0863037109375,0.72235107421875,-0.2156982421875,-7348,-3549,-503,2,-6,3
184863253,0.6519775390625,-0.0859375,0.7218017578125,-0.215576171875,-7332,-3517,-499,2,-6,3
184873240,0.652587890625,-0.085693359375,0.7213134765625,-0.21551513671875,-7300,-3491,-472,2,-7,2
184883223,0.6531982421875,-0.08538818359375,0.7208251953125,-0.2154541015625,-7260,-3477,-458,2,-6,3
184893208,0.65380859375,-0.08502197265625,0.7203369140625,-0.21539306640625,-7223,-3484,-433,2,-6,4
184903189,0.65435791015625,-0.08453369140625,0.71990966796875,-0.2152099609375,-7186,-3486,-408,2,-5,5
184913158,0.6549072265625,-0.0838623046875,0.7196044921875,-0.2149658203125,-7143,-3493,-386,2,-4,7
184923140,0.655517578125,-0.0830078125,0.71923828125,-0.214599609375,-7125,-3493,-368,3,-4,9
184933124,0.65606689453125,-0.08197021484375,0.718994140625,-0.214111328125,-7128,-3502,-361,3,-3,10
184943105,0.6566162109375,-0.080810546875,0.71881103515625,-0.2135009765625,-7128,-3493,-348,3,-3,11
184953087,0.6571044921875,-0.07958984375,0.71868896484375,-0.21295166015625,-7157,-3491,-338,4,-2,11
184963070,0.657470703125,-0.07830810546875,0.71856689453125,-0.21246337890625,-7189,-3495,-347,4,-1,11
184973052,0.6578369140625,-0.0771484375,0.718505859375,-0.2120361328125,-7229,-3499,-355,4,-1,10
184983040,0.65814208984375,-0.07598876953125,0.71844482421875,-0.21173095703125,-7248,-3499,-366,4,0,9
184993024,0.6583251953125,-0.0748291015625,0.71844482421875,-0.2115478515625,-7254,-3482,-370,5,0,8
185003000,0.65850830078125,-0.07373046875,0.71844482421875,-0.21142578125,-7253,-3454,-367,5,0,8
185012985,0.6585693359375,-0.0726318359375,0.718505859375,-0.21148681640625,-7276,-3421,-366,6,1,6
185022964,0.65863037109375,-0.0716552734375,0.71844482421875,-0.211669921875,-7303,-3414,-364,6,1,4
185032946,0.6585693359375,-0.07073974609375,0.71844482421875,-0.21209716796875,-7345,-3404,-369,7,2,3
185042930,0.65850830078125,-0.07000732421875,0.71844482421875,-0.212646484375,-7386,-3401,-366,7,2,1
185052912,0.65838623046875,-0.06927490234375,0.71844482421875,-0.21337890625,-7414,-3403,-367,8,2,0
185062897,0.658203125,-0.068603515625,0.7183837890625,-0.21417236328125,-7441,-3405,-368,8,2,-1
185072874,0.6580810546875,-0.06787109375,0.71832275390625,-0.21502685546875,-7486,-3392,-368,9,1,-1
185082862,0.65802001953125,-0.0670166015625,0.71826171875,-0.2158203125,-7526,-3372,-367,9,2,0
185092840,0.657958984375,-0.066162109375,0.7181396484375,-0.21661376953125,-7554,-3346,-346,9,1,1
185102824,0.65789794921875,-0.065185546875,0.71807861328125,-0.21734619140625,-7569,-3323,-351,9,1,1
185112803,0.657958984375,-0.06414794921875,0.7178955078125,-0.218017578125,-7584,-3286,-334,9,1,2
185122794,0.65802001953125,-0.06304931640625,0.71771240234375,-0.2186279296875,-7595,-3253,-345,9,0,2
185132775,0.65814208984375,-0.06195068359375,0.717529296875,-0.21917724609375,-7620,-3208,-339,9,0,3
185142754,0.6583251953125,-0.06085205078125,0.71734619140625,-0.2196044921875,-7639,-3150,-331,9,0,3
185152738,0.65850830078125,-0.05975341796875,0.7171630859375,-0.22003173828125,-7662,-3099,-327,8,-1,3
185162715,0.65869140625,-0.05865478515625,0.71697998046875,-0.22039794921875,-7668,-3040,-310,8,-1,3
185172697,0.658935546875,-0.05755615234375,0.71673583984375,-0.2205810546875,-7675,-2975,-315,7,-1,4
185182681,0.6591796875,-0.05645751953125,0.716552734375,-0.220703125,-7679,-2921,-327,7,-1,4
185192661,0.65948486328125,-0.055419921875,0.71636962890625,-0.220703125,-7665,-2859,-315,6,-1,4
185202642,0.65972900390625,-0.054443359375,0.71624755859375,-0.220703125,-7684,-2807,-331,5,-1,3
185212629,0.65997314453125,-0.0535888671875,0.716064453125,-0.220703125,-7728,-2773,-333,5,-2,2
185222612,0.66015625,-0.052978515625,0.71588134765625,-0.2208251953125,-7776,-2768,-336,4,-2,0
185232594,0.6602783203125,-0.0526123046875,0.71575927734375,-0.22113037109375,-7804,-2747,-337,4,-1,-2
185242577,0.6602783203125,-0.05242919921875,0.71563720703125,-0.22137451171875,-7807,-2728,-351,3,-1,-4
185252553,0.66021728515625,-0.052490234375,0.715576171875,-0.22186279296875,-7801,-2719,-366,2,-1,-6
185262537,0.66015625,-0.0526123046875,0.71551513671875,-0.22235107421875,-7772,-2707,-377,2,-1,-6
185272524,0.65997314453125,-0.05279541015625,0.71551513671875,-0.22283935546875,-7744,-2700,-390,2,0,-7
185282502,0.6597900390625,-0.0531005859375,0.71551513671875,-0.2232666015625,-7723,-2693,-383,1,0,-7
185292486,0.65960693359375,-0.0533447265625,0.71551513671875,-0.2236328125,-7705,-2709,-397,0,0,-6
185302468,0.659423828125,-0.05352783203125,0.71563720703125,-0.22393798828125,-7685,-2719,-412,0,0,-5
185312456,0.6591796875,-0.05364990234375,0.71575927734375,-0.22406005859375,-7681,-2732,-432,0,0,-4
185322440,0.65899658203125,-0.05364990234375,0.71588134765625,-0.22412109375,-7683,-2747,-433,-1,1,-3
185332415,0.6588134765625,-0.05364990234375,0.71612548828125,-0.22406005859375,-7684,-2752,-440,-1,1,-2
185342398,0.6585693359375,-0.05364990234375,0.71630859375,-0.2239990234375,-7671,-2756,-446,-1,1,-2
185352378,0.6583251953125,-0.05364990234375,0.71661376953125,-0.223876953125,-7683,-2771,-463,-2,2,-2
185362363,0.65802001953125,-0.05364990234375,0.7169189453125,-0.2237548828125,-7710,-2785,-468,-2,2,-2
185372345,0.65771484375,-0.0537109375,0.71722412109375,-0.2236328125,-7709,-2807,-462,-2,2,-2
185382327,0.6573486328125,-0.05377197265625,0.71759033203125,-0.22357177734375,-7674,-2813,-461,-2,3,-3
185392308,0.65692138671875,-0.05377197265625,0.718017578125,-0.22344970703125,-7631,-2822,-454,-2,4,-2
185402290,0.656494140625,-0.05377197265625,0.71844482421875,-0.2232666015625,-7590,-2818,-454,-2,4,-1
185412279,0.656005859375,-0.0537109375,0.71893310546875,-0.22314453125,-7553,-2837,-454,-2,4,-1
185422258,0.655517578125,-0.0535888671875,0.719482421875,-0.22296142578125,-7546,-2852,-445,-2,5,-1
185432240,0.65496826171875,-0.053466796875,0.7200927734375,-0.22271728515625,-7562,-2865,-448,-2,6,-1
185442228,0.654296875,-0.05340576171875,0.720703125,-0.22265625,-7584,-2903,-462,-2,7,-2
185452211,0.653564453125,-0.05340576171875,0.72137451171875,-0.22259521484375,-7616,-2944,-467,-2,7,-2
185462194,0.65289306640625,-0.0533447265625,0.72198486328125,-0.22265625,-7642,-2962,-489,-2,7,-3
185472163,0.652099609375,-0.0533447265625,0.72265625,-0.22271728515625,-7661,-2976,-501,-1,7,-3
185482146,0.6513671875,-0.05340576171875,0.7232666015625,-0.222900390625,-7670,-3005,-517,-1,7,-3
185492132,0.65057373046875,-0.05340576171875,0.72393798828125,-0.22308349609375,-7666,-3027,-522,0,7,-4
185502110,0.6497802734375,-0.05340576171875,0.72454833984375,-0.223388671875,-7661,-3050,-530,0,7,-4
185512093,0.64898681640625,-0.0533447265625,0.72515869140625,-0.2236328125,-7672,-3085,-534,1,7,-3
185522075,0.64825439453125,-0.05322265625,0.7257080078125,-0.22393798828125,-7714,-3127,-544,1,7,-3
185532059,0.64752197265625,-0.0531005859375,0.72625732421875,-0.22430419921875,-7758,-3166,-556,1,7,-3
185542039,0.64678955078125,-0.05303955078125,0.726806640625,-0.2247314453125,-7792,-3192,-579,2,6,-4
185552029,0.6461181640625,-0.05291748046875,0.727294921875,-0.2252197265625,-7807,-3204,-610,2,6,-4
185562013,0.64544677734375,-0.05279541015625,0.72772216796875,-0.225830078125,-7806,-3232,-619,3,6,-4
185571986,0.64483642578125,-0.05267333984375,0.72808837890625,-0.22650146484375,-7787,-3239,-633,4,5,-5
185581969,0.64422607421875,-0.052490234375,0.7283935546875,-0.2271728515625,-7780,-3263,-638,4,5,-4
185591951,0.6436767578125,-0.05224609375,0.7286376953125,-0.2279052734375,-7774,-3293,-653,5,5,-4
185601934,0.6431884765625,-0.052001953125,0.7288818359375,-0.22869873046875,-7775,-3344,-650,5,4,-4
185611921,0.64276123046875,-0.0516357421875,0.72900390625,-0.22955322265625,-7755,-3383,-658,6,3,-3
185621900,0.642333984375,-0.05120849609375,0.7291259765625,-0.23040771484375,-7734,-3414,-668,7,3,-3
185631882,0.6419677734375,-0.05078125,0.72918701171875,-0.2313232421875,-7690,-3422,-675,7,3,-3
185641864,0.64166259765625,-0.05023193359375,0.72918701171875,-0.2322998046875,-7626,-3412,-667,8,2,-3
185651844,0.64141845703125,-0.0496826171875,0.7291259765625,-0.2332763671875,-7583,-3399,-675,9,2,-2
185661829,0.64117431640625,-0.049072265625,0.72906494140625,-0.234375,-7553,-3406,-682,10,1,-3
185671807,0.64093017578125,-0.0484619140625,0.7288818359375,-0.235595703125,-7553,-3397,-666,11,1,-4
185681798,0.6407470703125,-0.048095703125,0.7286376953125,-0.23699951171875,-7574,-3424,-668,11,1,-6
185691783,0.64044189453125,-0.04779052734375,0.7283935546875,-0.23858642578125,-7594,-3441,-665,11,0,-8
185701759,0.64013671875,-0.0477294921875,0.72802734375,-0.240478515625,-7601,-3482,-661,12,0,-11
185711745,0.6397705078125,-0.04779052734375,0.72760009765625,-0.24261474609375,-7607,-3510,-661,13,-1,-13
185721722,0.639404296875,-0.0479736328125,0.7271728515625,-0.2449951171875,-7620,-3524,-652,14,-1,-15
185731704,0.6390380859375,-0.04833984375,0.72662353515625,-0.24749755859375,-7630,-3538,-636,14,-1,-17
185741688,0.6385498046875,-0.04864501953125,0.72607421875,-0.25018310546875,-7620,-3559,-625,15,-1,-18
185751670,0.63812255859375,-0.04901123046875,0.72552490234375,-0.2529296875,-7585,-3558,-608,15,-1,-18
185761652,0.63775634765625,-0.0491943359375,0.72491455078125,-0.25555419921875,-7527,-3560,-571,15,-1,-16
185771638,0.6373291015625,-0.04913330078125,0.724365234375,-0.25811767578125,-7441,-3552,-541,16,0,-14
185781617,0.6370849609375,-0.048828125,0.72381591796875,-0.2603759765625,-7349,-3539,-489,16,0,-10
185791601,0.6368408203125,-0.0482177734375,0.72332763671875,-0.26239013671875,-7254,-3529,-454,16,1,-7
185801582,0.63671875,-0.04718017578125,0.722900390625,-0.2640380859375,-7163,-3518,-413,15,1,-2
185811568,0.63665771484375,-0.04571533203125,0.72259521484375,-0.26531982421875,-7061,-3496,-385,15,2,2
185821548,0.63665771484375,-0.0439453125,0.7222900390625,-0.26629638671875,-6972,-3463,-349,15,3,6
185831531,0.63671875,-0.0418701171875,0.72216796875,-0.2669677734375,-6919,-3439,-318,14,4,9
185841512,0.63665771484375,-0.03961181640625,0.72216796875,-0.2674560546875,-6912,-3407,-298,14,5,10
185851495,0.63653564453125,-0.03741455078125,0.72222900390625,-0.2679443359375,-6913,-3399,-282,13,6,10
185861483,0.63629150390625,-0.03521728515625,0.72235107421875,-0.2684326171875,-6965,-3391,-271,13,7,9
185871464,0.6358642578125,-0.03326416015625,0.72259521484375,-0.26904296875,-6995,-3378,-264,13,9,6
185881446,0.63519287109375,-0.03155517578125,0.722900390625,-0.2698974609375,-7017,-3360,-262,12,10,3
185891429,0.6343994140625,-0.0301513671875,0.7232666015625,-0.27093505859375,-7065,-3363,-250,12,11,0
185901407,0.63336181640625,-0.02899169921875,0.7237548828125,-0.27227783203125,-7114,-3390,-251,11,12,-4
185911387,0.6322021484375,-0.0281982421875,0.7242431640625,-0.2738037109375,-7163,-3426,-258,11,12,-7
185921370,0.630859375,-0.02752685546875,0.72479248046875,-0.275390625,-7210,-3457,-272,11,13,-8
185931354,0.6295166015625,-0.02691650390625,0.72540283203125,-0.27703857421875,-7242,-3497,-293,11,13,-8
185941338,0.6280517578125,-0.02630615234375,0.72601318359375,-0.2786865234375,-7276,-3521,-312,11,13,-8
185951317,0.626708984375,-0.02557373046875,0.7266845703125,-0.28021240234375,-7311,-3523,-324,10,13,-7
185961302,0.6253662109375,-0.0247802734375,0.727294921875,-0.2816162109375,-7355,-3540,-362,10,13,-6
185971290,0.6240234375,-0.02386474609375,0.7279052734375,-0.282958984375,-7384,-3560,-396,11,13,-5
185981272,0.622802734375,-0.0228271484375,0.728515625,-0.2841796875,-7395,-3571,-424,10,12,-3
185991253,0.6217041015625,-0.02166748046875,0.72906494140625,-0.2852783203125,-7417,-3580,-444,10,12,-2
186001241,0.6207275390625,-0.0203857421875,0.72955322265625,-0.2862548828125,-7430,-3586,-457,11,11,0
186011228,0.61993408203125,-0.0189208984375,0.72998046875,-0.28704833984375,-7425,-3584,-469,11,10,2
186021208,0.61920166015625,-0.017333984375,0.7303466796875,-0.28778076171875,-7423,-3589,-469,11,9,4
186031191,0.61865234375,-0.01568603515625,0.7305908203125,-0.2884521484375,-7431,-3596,-471,11,9,5
186041161,0.61810302734375,-0.01397705078125,0.7308349609375,-0.28900146484375,-7457,-3604,-483,11,8,5
186051144,0.61767578125,-0.0123291015625,0.73101806640625,-0.28961181640625,-7473,-3608,-479,11,7,5
186061126,0.6173095703125,-0.0107421875,0.7310791015625,-0.29022216796875,-7490,-3609,-504,11,6,4
186071107,0.616943359375,-0.00927734375,0.73114013671875,-0.291015625,-7512,-3624,-511,11,5,3
186081089,0.61663818359375,-0.00799560546875,0.7310791015625,-0.29180908203125,-7507,-3618,-506,11,4,2
186091076,0.61627197265625,-0.0069580078125,0.73095703125,-0.2928466796875,-7520,-3610,-505,11,4,-1
186101052,0.615966796875,-0.0059814453125,0.73077392578125,-0.29400634765625,-7519,-3601,-499,11,3,-2
186111035,0.61572265625,-0.0052490234375,0.73052978515625,-0.295166015625,-7521,-3604,-501,11,2,-3
186121024,0.61541748046875,-0.00457763671875,0.730224609375,-0.2965087890625,-7522,-3606,-493,11,2,-5
186130997,0.61517333984375,-0.0040283203125,0.72991943359375,-0.2978515625,-7525,-3619,-484,11,1,-5
186144030,0.61492919921875,-0.0035400390625,0.72955322265625,-0.2991943359375,-7518,-3624,-479,11,0,-5
186150961,0.61480712890625,-0.00299072265625,0.7291259765625,-0.30047607421875,-7519,-3629,-483,10,0,-5
186160946,0.61468505859375,-0.00250244140625,0.728759765625,-0.3017578125,-7485,-3628,-486,11,-1,-4
186170924,0.6146240234375,-0.00189208984375,0.728271484375,-0.30291748046875,-7461,-3618,-483,11,-1,-3
186180906,0.6146240234375,-0.00128173828125,0.72784423828125,-0.30401611328125,-7423,-3611,-475,10,-1,-2
186190890,0.61474609375,-0.0006103515625,0.72735595703125,-0.30499267578125,-7396,-3614,-462,10,-2,-1
186200875,0.6148681640625,0.0001220703125,0.72686767578125,-0.30584716796875,-7362,-3609,-441,10,-2,0
186210855,0.6151123046875,0.00091552734375,0.72637939453125,-0.30657958984375,-7335,-3608,-434,9,-2,1
186220838,0.61529541015625,0.00177001953125,0.72589111328125,-0.30731201171875,-7305,-3608,-392,9,-2,2
186230819,0.61553955078125,0.00262451171875,0.72540283203125,-0.30792236328125,-7270,-3595,-386,8,-2,2
186240808,0.61578369140625,0.00341796875,0.7249755859375,-0.3084716796875,-7236,-3587,-385,8,-2,2
186250791,0.615966796875,0.0042724609375,0.724609375,-0.3089599609375,-7185,-3565,-377,8,-1,2
186260773,0.61614990234375,0.0050048828125,0.7242431640625,-0.3094482421875,-7139,-3561,-366,7,-1,2
186270747,0.61627197265625,0.00567626953125,0.72393798828125,-0.3099365234375,-7111,-3552,-343,7,-1,2
186280734,0.6163330078125,0.00628662109375,0.72369384765625,-0.3104248046875,-7097,-3541,-337,6,0,1
186290714,0.6163330078125,0.0068359375,0.72344970703125,-0.3109130859375,-7115,-3550,-314,5,0,0
186300702,0.6163330078125,0.00726318359375,0.7232666015625,-0.3114013671875,-7127,-3539,-323,5,0,-1
186310681,0.61627197265625,0.00762939453125,0.72308349609375,-0.3118896484375,-7129,-3529,-303,5,0,-1
186320670,0.6160888671875,0.0079345703125,0.72296142578125,-0.3123779296875,-7130,-3524,-298,4,1,-2
186330645,0.61590576171875,0.00823974609375,0.72296142578125,-0.3128662109375,-7112,-3521,-282,4,2,-2
186340628,0.61572265625,0.00848388671875,0.722900390625,-0.31329345703125,-7113,-3526,-282,3,2,-1
186350610,0.615478515625,0.00872802734375,0.72296142578125,-0.3135986328125,-7138,-3532,-282,3,2,-1
186360592,0.615234375,0.00897216796875,0.7230224609375,-0.31390380859375,-7159,-3540,-286,2,2,-1
186370577,0.614990234375,0.0091552734375,0.72314453125,-0.314208984375,-7182,-3550,-292,2,3,-2
186380556,0.61468505859375,0.00933837890625,0.72332763671875,-0.314453125,-7199,-3567,-303,1,3,-1
186390535,0.6143798828125,0.009521484375,0.7235107421875,-0.31463623046875,-7219,-3566,-310,1,3,-2
186400518,0.61407470703125,0.0096435546875,0.72369384765625,-0.3148193359375,-7246,-3583,-319,1,3,-1
186410500,0.61370849609375,0.00982666015625,0.723876953125,-0.31494140625,-7268,-3587,-328,1,3,-1
186420483,0.6134033203125,0.00994873046875,0.72412109375,-0.31500244140625,-7300,-3596,-344,0,3,-1
186430471,0.6131591796875,0.0101318359375,0.72430419921875,-0.31500244140625,-7324,-3610,-348,0,3,-1
186440451,0.61279296875,0.01025390625,0.724609375,-0.3150634765625,-7323,-3615,-360,0,3,-1
186450445,0.612548828125,0.01043701171875,0.72479248046875,-0.31500244140625,-7322,-3617,-366,0,3,0
186460414,0.61236572265625,0.0106201171875,0.72503662109375,-0.31494140625,-7321,-3626,-363,-1,2,1
186470394,0.61212158203125,0.01080322265625,0.7252197265625,-0.31488037109375,-7314,-3626,-380,-1,3,1
186480377,0.6119384765625,0.010986328125,0.7254638671875,-0.31475830078125,-7311,-3633,-380,-1,3,0
186490358,0.6116943359375,0.01116943359375,0.7257080078125,-0.314697265625,-7306,-3636,-385,-1,2,0
186500341,0.6114501953125,0.01123046875,0.72589111328125,-0.3145751953125,-7309,-3629,-381,-1,2,0
186510327,0.6112060546875,0.01129150390625,0.72613525390625,-0.3145751953125,-7305,-3628,-383,-1,2,-1
186520305,0.61102294921875,0.01123046875,0.726318359375,-0.31451416015625,-7303,-3615,-380,-1,2,-1
186530290,0.61077880859375,0.0111083984375,0.72650146484375,-0.3145751953125,-7281,-3600,-388,-2,2,-2
186540274,0.61053466796875,0.010986328125,0.7266845703125,-0.3145751953125,-7272,-3580,-387,-1,1,-2
186550257,0.6103515625,0.0108642578125,0.72686767578125,-0.3145751953125,-7250,-3563,-386,-2,1,-2
186560242,0.61016845703125,0.01068115234375,0.72698974609375,-0.31463623046875,-7247,-3549,-391,-1,1,-2
186570227,0.6099853515625,0.01055908203125,0.7271728515625,-0.3145751953125,-7249,-3539,-411,-2,1,-2
186580213,0.60980224609375,0.01043701171875,0.72735595703125,-0.31451416015625,-7263,-3532,-432,-2,1,-2
