subject,Joshua Spiesman
arm,left
label,2
hz,100.17552314969946
time,4.861467

timestamp_us,q0,q1,q2,q3,ax,ay,az,gx,gy,gz
202840893,0.6649169921875,-0.41650390625,0.609130859375,-0.11541748046875,-6096,-5593,-682,0,1,-3
202850878,0.66485595703125,-0.41650390625,0.60919189453125,-0.11566162109375,-6089,-5569,-665,0,1,-3
202860856,0.664794921875,-0.41644287109375,0.6092529296875,-0.1158447265625,-6066,-5545,-648,1,1,-2
202870840,0.66473388671875,-0.4163818359375,0.6092529296875,-0.11602783203125,-6038,-5521,-630,0,1,-2
202880822,0.66473388671875,-0.41632080078125,0.60931396484375,-0.11627197265625,-6014,-5489,-612,0,1,-3
202890806,0.6646728515625,-0.41632080078125,0.60931396484375,-0.11651611328125,-5954,-5461,-597,0,1,-3
202900786,0.66455078125,-0.41644287109375,0.60931396484375,-0.116943359375,-5895,-5418,-597,1,2,-5
202910774,0.6644287109375,-0.4166259765625,0.60919189453125,-0.117431640625,-5829,-5382,-576,1,1,-6
202920754,0.66436767578125,-0.4168701171875,0.6090087890625,-0.1180419921875,-5773,-5361,-547,1,1,-7
202930737,0.66424560546875,-0.4171142578125,0.60882568359375,-0.1187744140625,-5727,-5348,-536,1,2,-7
202940713,0.66412353515625,-0.41741943359375,0.60858154296875,-0.11962890625,-5692,-5349,-510,2,2,-8
202950695,0.66400146484375,-0.41766357421875,0.60833740234375,-0.12054443359375,-5662,-5345,-478,2,2,-8
202960679,0.6639404296875,-0.41796875,0.6080322265625,-0.12152099609375,-5630,-5376,-482,2,2,-9
202970660,0.663818359375,-0.41815185546875,0.6077880859375,-0.12249755859375,-5605,-5407,-470,3,3,-8
202980642,0.66375732421875,-0.41827392578125,0.60760498046875,-0.12347412109375,-5564,-5444,-472,3,2,-7
202990626,0.6636962890625,-0.4183349609375,0.607421875,-0.12445068359375,-5528,-5484,-475,4,3,-6
203000608,0.6636962890625,-0.41827392578125,0.60723876953125,-0.12548828125,-5479,-5510,-451,4,3,-6
203010591,0.6636962890625,-0.41827392578125,0.6070556640625,-0.12664794921875,-5447,-5528,-445,5,3,-7
203020574,0.66363525390625,-0.41827392578125,0.6068115234375,-0.12799072265625,-5408,-5543,-438,6,4,-9
203030555,0.6634521484375,-0.41839599609375,0.6065673828125,-0.12957763671875,-5384,-5558,-428,6,5,-11
203040542,0.6632080078125,-0.418701171875,0.60626220703125,-0.13153076171875,-5356,-5593,-435,6,6,-14
203050520,0.66278076171875,-0.41912841796875,0.60589599609375,-0.13372802734375,-5322,-5616,-457,7,7,-16
203060502,0.662353515625,-0.41961669921875,0.60552978515625,-0.1361083984375,-5259,-5642,-485,7,8,-17
203070485,0.6617431640625,-0.420166015625,0.60516357421875,-0.13873291015625,-5201,-5660,-511,8,10,-19
203080468,0.66107177734375,-0.42071533203125,0.60491943359375,-0.1414794921875,-5121,-5663,-540,8,11,-19
203090452,0.66021728515625,-0.42132568359375,0.604736328125,-0.1444091796875,-5046,-5638,-572,8,12,-20
203100431,0.65924072265625,-0.421875,0.60467529296875,-0.1474609375,-4976,-5620,-612,9,14,-21
203110422,0.65814208984375,-0.4224853515625,0.6046142578125,-0.150634765625,-4906,-5606,-621,9,15,-21
203120403,0.65692138671875,-0.423095703125,0.604736328125,-0.15399169921875,-4839,-5582,-631,9,17,-22
203130389,0.655517578125,-0.42364501953125,0.60498046875,-0.157470703125,-4769,-5563,-648,9,19,-22
203140366,0.65399169921875,-0.42413330078125,0.6053466796875,-0.16094970703125,-4710,-5535,-657,8,21,-21
203150350,0.65234375,-0.42449951171875,0.60595703125,-0.1644287109375,-4646,-5521,-669,8,23,-20
203160330,0.6505126953125,-0.42474365234375,0.60675048828125,-0.16796875,-4599,-5519,-691,8,25,-19
203170312,0.6485595703125,-0.4248046875,0.6077880859375,-0.17138671875,-4572,-5530,-715,8,27,-17
203180296,0.64654541015625,-0.4246826171875,0.609130859375,-0.1746826171875,-4568,-5530,-746,8,29,-14
203190279,0.64447021484375,-0.42425537109375,0.6107177734375,-0.1778564453125,-4585,-5549,-772,8,30,-12
203200259,0.64227294921875,-0.423583984375,0.61260986328125,-0.18084716796875,-4612,-5569,-793,8,32,-9
203210240,0.64013671875,-0.4227294921875,0.6146240234375,-0.18359375,-4660,-5590,-791,8,32,-6
203220231,0.63800048828125,-0.42156982421875,0.616943359375,-0.1861572265625,-4723,-5628,-788,7,34,-3
203230216,0.63580322265625,-0.42010498046875,0.61944580078125,-0.18841552734375,-4811,-5686,-787,7,34,1
203240194,0.63372802734375,-0.41845703125,0.62213134765625,-0.1903076171875,-4920,-5749,-790,6,34,4
203250186,0.6317138671875,-0.41656494140625,0.62493896484375,-0.1920166015625,-5032,-5835,-790,6,34,6
203260174,0.62969970703125,-0.41461181640625,0.62774658203125,-0.1934814453125,-5142,-5906,-793,5,33,7
203270146,0.627685546875,-0.4127197265625,0.63055419921875,-0.19488525390625,-5232,-5969,-809,4,33,7
203280123,0.62567138671875,-0.4110107421875,0.63323974609375,-0.19635009765625,-5309,-6008,-818,4,32,5
203290104,0.62359619140625,-0.40960693359375,0.6357421875,-0.1978759765625,-5359,-6049,-837,3,31,2
203300090,0.6214599609375,-0.40850830078125,0.63800048828125,-0.1995849609375,-5430,-6078,-861,2,31,-2
203310066,0.6192626953125,-0.40777587890625,0.6400146484375,-0.20147705078125,-5479,-6129,-888,2,29,-6
203320051,0.61700439453125,-0.407470703125,0.6417236328125,-0.20361328125,-5524,-6193,-913,1,29,-10
203330033,0.61468505859375,-0.40740966796875,0.64324951171875,-0.205810546875,-5579,-6265,-932,0,27,-12
203340016,0.6124267578125,-0.4075927734375,0.64459228515625,-0.20806884765625,-5630,-6357,-960,-1,26,-14
203349996,0.6102294921875,-0.40789794921875,0.64581298828125,-0.21014404296875,-5670,-6466,-986,-1,25,-13
203359987,0.608154296875,-0.40814208984375,0.64697265625,-0.21209716796875,-5690,-6573,-1019,-2,23,-12
203369963,0.606201171875,-0.408447265625,0.6480712890625,-0.21368408203125,-5705,-6667,-1067,-3,21,-10
203379947,0.60443115234375,-0.40875244140625,0.64910888671875,-0.215087890625,-5701,-6748,-1101,-4,19,-9
203389928,0.602783203125,-0.40899658203125,0.65008544921875,-0.2161865234375,-5684,-6818,-1146,-4,17,-7
203399910,0.601318359375,-0.40924072265625,0.65093994140625,-0.21710205078125,-5671,-6901,-1163,-5,15,-6
203409893,0.60009765625,-0.40948486328125,0.6517333984375,-0.2177734375,-5662,-6979,-1193,-5,12,-4
203419878,0.59906005859375,-0.40966796875,0.65240478515625,-0.21820068359375,-5644,-7037,-1242,-5,10,-3
203429855,0.59820556640625,-0.40985107421875,0.65301513671875,-0.2183837890625,-5622,-7102,-1283,-6,8,-1
203439837,0.59747314453125,-0.41009521484375,0.65350341796875,-0.2183837890625,-5591,-7143,-1321,-6,6,-1
203449821,0.59698486328125,-0.41033935546875,0.65386962890625,-0.21826171875,-5552,-7186,-1358,-6,3,-1
203459806,0.5966796875,-0.41070556640625,0.654052734375,-0.21807861328125,-5516,-7211,-1380,-6,1,0
203469788,0.59649658203125,-0.4111328125,0.65399169921875,-0.21771240234375,-5497,-7248,-1410,-6,-2,-2
203479769,0.59649658203125,-0.41180419921875,0.65374755859375,-0.21734619140625,-5471,-7294,-1447,-6,-4,-2
203489753,0.5965576171875,-0.41265869140625,0.65325927734375,-0.2169189453125,-5440,-7326,-1490,-6,-6,-4
203499736,0.59674072265625,-0.41375732421875,0.65252685546875,-0.21649169921875,-5389,-7359,-1536,-7,-9,-5
203509713,0.5970458984375,-0.4150390625,0.651611328125,-0.21600341796875,-5348,-7379,-1599,-8,-11,-7
203519696,0.597412109375,-0.4166259765625,0.65045166015625,-0.2154541015625,-5276,-7377,-1648,-8,-13,-8
203529679,0.59783935546875,-0.41839599609375,0.64910888671875,-0.21484375,-5212,-7375,-1673,-9,-16,-9
203539663,0.598388671875,-0.4202880859375,0.64752197265625,-0.2142333984375,-5141,-7351,-1694,-9,-17,-11
203549644,0.59906005859375,-0.4224853515625,0.645751953125,-0.2135009765625,-5091,-7335,-1696,-9,-20,-12
203559626,0.59979248046875,-0.4248046875,0.64373779296875,-0.212890625,-5031,-7301,-1694,-10,-21,-14
203569609,0.6005859375,-0.42742919921875,0.6414794921875,-0.2122802734375,-4978,-7260,-1702,-10,-23,-17
203579591,0.60137939453125,-0.43035888671875,0.63897705078125,-0.21173095703125,-4918,-7223,-1723,-10,-25,-20
203589574,0.60223388671875,-0.43353271484375,0.63616943359375,-0.2113037109375,-4859,-7178,-1761,-10,-27,-22
203599556,0.6031494140625,-0.4368896484375,0.63311767578125,-0.2108154296875,-4806,-7137,-1793,-10,-29,-24
203609542,0.60418701171875,-0.44036865234375,0.6298828125,-0.2103271484375,-4750,-7127,-1842,-10,-31,-25
203619521,0.6053466796875,-0.44384765625,0.62646484375,-0.209716796875,-4708,-7133,-1903,-10,-34,-24
203629504,0.606689453125,-0.4473876953125,0.62298583984375,-0.20892333984375,-4666,-7130,-1968,-10,-36,-23
203639488,0.608154296875,-0.45086669921875,0.619384765625,-0.20782470703125,-4633,-7104,-2012,-10,-38,-22
203649469,0.60986328125,-0.454345703125,0.6156005859375,-0.20654296875,-4583,-7058,-2041,-10,-41,-21
203659451,0.61163330078125,-0.4578857421875,0.6116943359375,-0.205078125,-4545,-6985,-2060,-10,-43,-22
203669432,0.613525390625,-0.4615478515625,0.6075439453125,-0.20355224609375,-4478,-6901,-2079,-10,-45,-23
203679424,0.61541748046875,-0.46539306640625,0.6031494140625,-0.20196533203125,-4401,-6822,-2099,-11,-47,-25
203689407,0.61737060546875,-0.469482421875,0.59857177734375,-0.20025634765625,-4311,-6757,-2111,-11,-49,-26
203699391,0.61944580078125,-0.47369384765625,0.59368896484375,-0.19854736328125,-4221,-6715,-2120,-12,-52,-27
203709367,0.62152099609375,-0.47808837890625,0.58856201171875,-0.19671630859375,-4145,-6650,-2130,-12,-54,-28
203719351,0.6236572265625,-0.4825439453125,0.58331298828125,-0.19476318359375,-4084,-6590,-2134,-13,-55,-29
203729333,0.62579345703125,-0.48724365234375,0.57781982421875,-0.1927490234375,-4039,-6549,-2129,-14,-57,-30
203739315,0.6279296875,-0.49200439453125,0.57208251953125,-0.19061279296875,-4012,-6546,-2139,-14,-59,-31
203749296,0.63006591796875,-0.49688720703125,0.56622314453125,-0.18829345703125,-3997,-6603,-2157,-15,-61,-31
203759279,0.63226318359375,-0.50164794921875,0.56036376953125,-0.1856689453125,-4021,-6733,-2170,-16,-62,-28
203769262,0.63458251953125,-0.50634765625,0.5545654296875,-0.18267822265625,-4074,-6925,-2200,-17,-64,-24
203779242,0.63702392578125,-0.5107421875,0.548828125,-0.1790771484375,-4130,-7099,-2230,-17,-66,-20
203789233,0.63958740234375,-0.5150146484375,0.54315185546875,-0.17510986328125,-4189,-7271,-2258,-18,-68,-17
203799218,0.6422119140625,-0.51910400390625,0.5374755859375,-0.1707763671875,-4278,-7464,-2288,-18,-70,-15
203809206,0.64495849609375,-0.523193359375,0.53167724609375,-0.16619873046875,-4401,-7695,-2336,-18,-71,-15
203819189,0.647705078125,-0.52734375,0.52557373046875,-0.16162109375,-4552,-7979,-2386,-18,-73,-16
203829174,0.65045166015625,-0.53167724609375,0.51922607421875,-0.15704345703125,-4727,-8326,-2418,-18,-75,-18
203839153,0.6531982421875,-0.5361328125,0.512451171875,-0.15264892578125,-4914,-8680,-2440,-17,-77,-22
203849125,0.656005859375,-0.54071044921875,0.50518798828125,-0.14849853515625,-5063,-8990,-2410,-17,-78,-27
203859108,0.6588134765625,-0.545654296875,0.4971923828125,-0.14501953125,-5130,-9239,-2308,-15,-79,-35
203869091,0.6614990234375,-0.55096435546875,0.48834228515625,-0.14239501953125,-5119,-9443,-2162,-14,-80,-46
203879072,0.6641845703125,-0.55682373046875,0.478515625,-0.140869140625,-5052,-9608,-1987,-12,-80,-58
203889056,0.66668701171875,-0.56317138671875,0.467529296875,-0.14056396484375,-4957,-9759,-1806,-9,-80,-72
203899038,0.66912841796875,-0.5699462890625,0.455322265625,-0.1416015625,-4847,-9898,-1562,-6,-80,-87
203909021,0.6715087890625,-0.5770263671875,0.4420166015625,-0.14398193359375,-4703,-10046,-1275,-3,-80,-100
203919005,0.673828125,-0.584228515625,0.42767333984375,-0.14752197265625,-4507,-10191,-966,1,-79,-112
203928991,0.676025390625,-0.5914306640625,0.41229248046875,-0.1522216796875,-4251,-10336,-682,4,-79,-122
203938967,0.67816162109375,-0.59857177734375,0.39605712890625,-0.157958984375,-3944,-10494,-449,8,-78,-131
203948950,0.6800537109375,-0.60552978515625,0.37908935546875,-0.16448974609375,-3626,-10670,-275,13,-77,-138
203958931,0.68194580078125,-0.61212158203125,0.36175537109375,-0.17156982421875,-3332,-10849,-113,17,-76,-141
203968915,0.6837158203125,-0.61810302734375,0.3441162109375,-0.1790771484375,-3026,-11044,49,21,-74,-143
203978899,0.6854248046875,-0.62347412109375,0.326416015625,-0.18682861328125,-2686,-11183,238,25,-72,-143
203988880,0.6871337890625,-0.62823486328125,0.30859375,-0.19488525390625,-2318,-11288,431,28,-70,-144
203998863,0.68865966796875,-0.6324462890625,0.29058837890625,-0.20330810546875,-1943,-11397,574,32,-68,-146
204008846,0.68994140625,-0.63623046875,0.27252197265625,-0.21209716796875,-1541,-11481,717,35,-65,-148
204018828,0.6910400390625,-0.639404296875,0.25439453125,-0.22125244140625,-1155,-11547,850,37,-62,-149
204028811,0.69183349609375,-0.64215087890625,0.23626708984375,-0.2305908203125,-801,-11615,955,39,-60,-150
204038793,0.6925048828125,-0.64434814453125,0.21820068359375,-0.24017333984375,-467,-11700,1030,42,-57,-151
204048773,0.69287109375,-0.6461181640625,0.20025634765625,-0.24981689453125,-148,-11823,1077,44,-55,-151
204058764,0.6929931640625,-0.64739990234375,0.1824951171875,-0.259521484375,170,-11948,1121,45,-52,-151
204068747,0.69281005859375,-0.6483154296875,0.164794921875,-0.26947021484375,489,-12010,1163,46,-50,-154
204078724,0.692138671875,-0.64886474609375,0.1468505859375,-0.27984619140625,801,-11970,1203,47,-47,-159
204088707,0.69085693359375,-0.64910888671875,0.12841796875,-0.291259765625,1115,-11831,1262,47,-43,-171
204098689,0.68878173828125,-0.6490478515625,0.1092529296875,-0.30389404296875,1430,-11646,1344,48,-39,-184
204108674,0.68585205078125,-0.6485595703125,0.08953857421875,-0.3177490234375,1723,-11449,1392,49,-34,-196
204118658,0.68212890625,-0.6475830078125,0.0693359375,-0.33245849609375,2015,-11220,1438,49,-29,-205
204128639,0.677490234375,-0.64617919921875,0.04901123046875,-0.34796142578125,2303,-10999,1487,48,-25,-212
204138622,0.6722412109375,-0.6441650390625,0.02880859375,-0.36376953125,2565,-10842,1524,47,-21,-215
204148605,0.6663818359375,-0.6417236328125,0.009033203125,-0.37957763671875,2809,-10677,1541,46,-17,-215
204161995,0.66009521484375,-0.6387939453125,-0.01007080078125,-0.3951416015625,3015,-10490,1549,45,-13,-212
204168569,0.65350341796875,-0.6353759765625,-0.0284423828125,-0.410400390625,3171,-10271,1530,43,-9,-210
204178551,0.64642333984375,-0.631591796875,-0.04638671875,-0.425537109375,3305,-9982,1502,42,-7,-209
204188533,0.63885498046875,-0.62744140625,-0.06396484375,-0.44061279296875,3402,-9587,1486,40,-4,-210
204198516,0.63067626953125,-0.62286376953125,-0.0814208984375,-0.4556884765625,3460,-9064,1472,38,-2,-213
204208501,0.6217041015625,-0.6177978515625,-0.09906005859375,-0.47113037109375,3482,-8437,1494,37,0,-218
204218480,0.61181640625,-0.6123046875,-0.1168212890625,-0.48699951171875,3505,-7861,1522,34,2,-225
204228462,0.60113525390625,-0.6063232421875,-0.134521484375,-0.50299072265625,3577,-7428,1540,32,3,-228
204238449,0.5899658203125,-0.60003662109375,-0.1517333984375,-0.51861572265625,3654,-7115,1546,31,5,-226
204248432,0.57861328125,-0.59356689453125,-0.168212890625,-0.53350830078125,3718,-6816,1523,28,5,-220
204258415,0.5673828125,-0.58697509765625,-0.183837890625,-0.54754638671875,3748,-6454,1522,27,5,-211
204268398,0.55609130859375,-0.5802001953125,-0.1988525390625,-0.56085205078125,3739,-6013,1537,26,6,-205
204278375,0.54461669921875,-0.5733642578125,-0.21343994140625,-0.57373046875,3723,-5541,1536,23,5,-201
204288356,0.5328369140625,-0.5662841796875,-0.22760009765625,-0.58624267578125,3686,-5081,1561,22,6,-200
204298339,0.5205078125,-0.5589599609375,-0.24163818359375,-0.59857177734375,3656,-4646,1565,20,5,-202
204308323,0.5074462890625,-0.55133056640625,-0.25567626953125,-0.6109619140625,3624,-4232,1568,18,6,-206
204318308,0.49365234375,-0.54327392578125,-0.2696533203125,-0.62335205078125,3579,-3841,1561,16,7,-210
204328293,0.47900390625,-0.5347900390625,-0.28363037109375,-0.6357421875,3514,-3409,1582,13,7,-214
204338272,0.4637451171875,-0.52587890625,-0.2974853515625,-0.6480712890625,3438,-3013,1598,12,7,-217
204348256,0.44805908203125,-0.51678466796875,-0.3109130859375,-0.65997314453125,3371,-2715,1610,10,7,-215
204358244,0.432373046875,-0.50775146484375,-0.32366943359375,-0.6712646484375,3331,-2454,1617,7,6,-209
204368227,0.41680908203125,-0.49884033203125,-0.33563232421875,-0.6817626953125,3245,-2158,1629,6,6,-201
204378210,0.40142822265625,-0.49005126953125,-0.346923828125,-0.691650390625,3155,-1843,1625,4,5,-194
204388189,0.38616943359375,-0.4813232421875,-0.35772705078125,-0.700927734375,3036,-1490,1652,3,4,-189
204398181,0.37078857421875,-0.4725341796875,-0.36810302734375,-0.70977783203125,2933,-1133,1680,2,3,-186
204408160,0.35540771484375,-0.463623046875,-0.378173828125,-0.71820068359375,2804,-762,1723,1,3,-183
204418138,0.33984375,-0.45458984375,-0.38800048828125,-0.72625732421875,2642,-389,1763,0,3,-181
204428113,0.32415771484375,-0.44525146484375,-0.39752197265625,-0.73394775390625,2475,1,1802,0,3,-180
204438096,0.30828857421875,-0.43560791015625,-0.40692138671875,-0.74139404296875,2301,405,1858,0,3,-179
204448078,0.2923583984375,-0.4256591796875,-0.41607666015625,-0.74853515625,2119,822,1900,1,4,-178
204458060,0.27642822265625,-0.41546630859375,-0.42498779296875,-0.75531005859375,1936,1245,1955,1,5,-175
204468044,0.26092529296875,-0.40521240234375,-0.43341064453125,-0.76153564453125,1730,1644,2018,1,6,-166
204478025,0.24627685546875,-0.39520263671875,-0.44110107421875,-0.7672119140625,1526,2049,2069,1,6,-155
204488008,0.23284912109375,-0.38568115234375,-0.44805908203125,-0.77227783203125,1303,2484,2103,1,7,-139
204497995,0.22076416015625,-0.3768310546875,-0.4542236328125,-0.77655029296875,1082,2933,2151,1,6,-122
204507979,0.2100830078125,-0.3687744140625,-0.45965576171875,-0.78021240234375,851,3398,2173,2,6,-105
204517956,0.20074462890625,-0.3614501953125,-0.46441650390625,-0.78326416015625,640,3872,2185,2,6,-90
204527937,0.19256591796875,-0.3548583984375,-0.4686279296875,-0.7857666015625,443,4349,2185,2,4,-76
204537925,0.185302734375,-0.34893798828125,-0.47247314453125,-0.78790283203125,239,4831,2167,2,3,-65
204547906,0.17864990234375,-0.34368896484375,-0.4759521484375,-0.78961181640625,89,5299,2149,2,1,-55
204557886,0.17291259765625,-0.33917236328125,-0.47900390625,-0.791015625,3,5704,2137,1,-1,-44
204567867,0.16827392578125,-0.33563232421875,-0.4814453125,-0.79205322265625,-46,6053,2106,0,-3,-30
204577849,0.1650390625,-0.333251953125,-0.48321533203125,-0.79266357421875,-56,6328,2093,-1,-5,-12
204587830,0.16351318359375,-0.33245849609375,-0.48406982421875,-0.79278564453125,-13,6500,2047,-2,-8,8
204597809,0.1641845703125,-0.33343505859375,-0.48382568359375,-0.79241943359375,41,6555,1986,-4,-11,34
204607794,0.16741943359375,-0.33648681640625,-0.48223876953125,-0.7913818359375,135,6497,1933,-6,-13,62
204617773,0.17327880859375,-0.34161376953125,-0.47930908203125,-0.7896728515625,258,6387,1894,-7,-17,92
204627762,0.18182373046875,-0.348876953125,-0.47491455078125,-0.7872314453125,410,6215,1861,-9,-19,121
204637744,0.19256591796875,-0.35797119140625,-0.46923828125,-0.78399658203125,577,5991,1808,-10,-22,145
204647720,0.205078125,-0.3685302734375,-0.46246337890625,-0.77996826171875,767,5732,1744,-12,-25,164
204657705,0.2186279296875,-0.380126953125,-0.45465087890625,-0.7752685546875,959,5433,1669,-14,-28,176
204667689,0.23272705078125,-0.39239501953125,-0.44610595703125,-0.77001953125,1179,5107,1595,-16,-30,183
204677671,0.2471923828125,-0.4051513671875,-0.43682861328125,-0.76422119140625,1408,4740,1525,-18,-31,188
204687654,0.26171875,-0.41815185546875,-0.4267578125,-0.75799560546875,1648,4364,1474,-22,-32,192
204697639,0.2763671875,-0.4312744140625,-0.4158935546875,-0.75146484375,1876,3959,1457,-25,-32,195
204707620,0.291015625,-0.44451904296875,-0.4041748046875,-0.74456787109375,2119,3540,1426,-29,-32,198
204717604,0.30560302734375,-0.4578857421875,-0.3916015625,-0.73736572265625,2354,3120,1378,-34,-31,201
204727585,0.32000732421875,-0.47119140625,-0.37823486328125,-0.72979736328125,2567,2693,1305,-38,-30,201
204737569,0.33404541015625,-0.48431396484375,-0.36419677734375,-0.72198486328125,2755,2261,1213,-42,-29,201
204747551,0.34765625,-0.49713134765625,-0.349609375,-0.71405029296875,2912,1780,1125,-45,-27,198
204757533,0.3607177734375,-0.50946044921875,-0.3345947265625,-0.70599365234375,3049,1205,1027,-47,-25,193
204767515,0.37347412109375,-0.5216064453125,-0.319091796875,-0.6976318359375,3201,542,938,-50,-24,191
204777499,0.3861083984375,-0.5335693359375,-0.30291748046875,-0.6888427734375,3366,-147,833,-51,-22,193
204787480,0.39886474609375,-0.54541015625,-0.2861328125,-0.679443359375,3560,-801,743,-52,-22,197
204797463,0.41162109375,-0.5570068359375,-0.26885986328125,-0.66937255859375,3778,-1349,661,-52,-21,199
204807449,0.424072265625,-0.56805419921875,-0.2513427734375,-0.6590576171875,3982,-1898,610,-52,-19,197
204817435,0.43609619140625,-0.57855224609375,-0.23370361328125,-0.64849853515625,4182,-2506,541,-51,-17,192
204827419,0.44781494140625,-0.58831787109375,-0.216064453125,-0.63775634765625,4339,-3236,477,-49,-14,188
204837400,0.45965576171875,-0.59747314453125,-0.1981201171875,-0.62652587890625,4472,-4112,386,-46,-12,190
204847376,0.47216796875,-0.6063232421875,-0.179443359375,-0.6142578125,4550,-4957,257,-42,-12,200
204857361,0.48553466796875,-0.61492919921875,-0.1597900390625,-0.60052490234375,4588,-5589,182,-39,-12,215
204867344,0.49951171875,-0.623046875,-0.1395263671875,-0.5855712890625,4615,-5941,171,-37,-14,226
204877326,0.51312255859375,-0.63031005859375,-0.119384765625,-0.57025146484375,4637,-6066,221,-35,-13,224
204887308,0.52557373046875,-0.6365966796875,-0.10009765625,-0.55548095703125,4643,-6308,303,-35,-10,209
204897293,0.53656005859375,-0.64178466796875,-0.0819091796875,-0.541748046875,4695,-6773,382,-33,-6,191
204907270,0.54656982421875,-0.6461181640625,-0.0643310546875,-0.52886962890625,4772,-7520,391,-31,-1,179
204917256,0.55621337890625,-0.64971923828125,-0.04681396484375,-0.51605224609375,4793,-8324,335,-29,3,177
204927243,0.5660400390625,-0.6527099609375,-0.02874755859375,-0.50274658203125,4695,-8922,266,-26,5,184
204937226,0.576171875,-0.65496826171875,-0.0103759765625,-0.4888916015625,4512,-9139,249,-23,6,191
204947209,0.586181640625,-0.65631103515625,0.0079345703125,-0.47491455078125,4302,-9010,308,-21,8,192
204957187,0.59564208984375,-0.65692138671875,0.0255126953125,-0.4615478515625,4081,-8791,438,-19,10,185
204967178,0.60443115234375,-0.65679931640625,0.04254150390625,-0.44891357421875,3813,-8853,538,-18,14,176
204977161,0.61273193359375,-0.6561279296875,0.05950927734375,-0.43646240234375,3575,-9314,574,-16,17,174
204987129,0.62127685546875,-0.6549072265625,0.07733154296875,-0.42327880859375,3309,-9995,547,-14,19,184
204997114,0.63043212890625,-0.6529541015625,0.096435546875,-0.4085693359375,2965,-10601,470,-11,20,202
205007096,0.6402587890625,-0.65008544921875,0.1168212890625,-0.39215087890625,2532,-10958,416,-9,19,220
205017079,0.650390625,-0.6463623046875,0.1378173828125,-0.37451171875,2050,-11021,406,-6,18,230
205027062,0.66021728515625,-0.64178466796875,0.1583251953125,-0.356689453125,1588,-10866,436,-3,17,227
205037040,0.66925048828125,-0.63665771484375,0.17767333984375,-0.33941650390625,1112,-10776,489,-1,16,216
205047028,0.6773681640625,-0.63116455078125,0.19586181640625,-0.3231201171875,646,-10817,516,1,17,202
205057006,0.6846923828125,-0.62554931640625,0.21307373046875,-0.30743408203125,160,-11018,524,2,16,193
205066996,0.69140625,-0.61968994140625,0.2296142578125,-0.29205322265625,-309,-11360,478,3,15,189
205076978,0.69769287109375,-0.61346435546875,0.24591064453125,-0.2763671875,-768,-11689,439,3,14,190
205086954,0.7037353515625,-0.60693359375,0.261962890625,-0.26025390625,-1189,-11860,400,3,12,193
205096936,0.70941162109375,-0.60003662109375,0.27783203125,-0.24383544921875,-1590,-11908,381,4,11,193
205106919,0.71466064453125,-0.5928955078125,0.293212890625,-0.2275390625,-1959,-11821,405,3,10,190
205116900,0.71929931640625,-0.58563232421875,0.30792236328125,-0.21185302734375,-2278,-11646,458,3,11,183
205126883,0.72320556640625,-0.57843017578125,0.3218994140625,-0.19671630859375,-2640,-11555,484,1,11,176
205136865,0.7265625,-0.57135009765625,0.3353271484375,-0.1822509765625,-2965,-11505,495,1,12,168
205146848,0.72930908203125,-0.5643310546875,0.3482666015625,-0.1683349609375,-3241,-11501,514,0,13,164
205156832,0.7315673828125,-0.55743408203125,0.36077880859375,-0.15478515625,-3462,-11554,533,-1,14,161
205166812,0.7333984375,-0.55047607421875,0.3729248046875,-0.1416015625,-3639,-11593,547,-2,15,159
205176796,0.73486328125,-0.54351806640625,0.38470458984375,-0.128662109375,-3748,-11572,578,-2,15,156
205186775,0.7359619140625,-0.53662109375,0.39605712890625,-0.11627197265625,-3806,-11478,608,-2,16,152
205196766,0.7366943359375,-0.5299072265625,0.40679931640625,-0.1046142578125,-3848,-11331,658,-3,17,144
205206749,0.73712158203125,-0.5235595703125,0.41668701171875,-0.0941162109375,-3873,-11163,739,-2,18,133
205216724,0.7373046875,-0.51763916015625,0.42572021484375,-0.08489990234375,-3900,-10945,810,-1,19,119
205226713,0.7371826171875,-0.51226806640625,0.43377685546875,-0.0771484375,-3904,-10701,861,0,20,104
205236694,0.7369384765625,-0.507568359375,0.44073486328125,-0.0709228515625,-3886,-10453,893,1,20,88
205246675,0.73651123046875,-0.50360107421875,0.4466552734375,-0.06634521484375,-3821,-10231,930,3,21,73
205256657,0.736083984375,-0.50018310546875,0.45166015625,-0.0631103515625,-3725,-10029,957,4,21,60
205266641,0.73565673828125,-0.4971923828125,0.455810546875,-0.06103515625,-3587,-9864,1044,6,21,49
205276621,0.7353515625,-0.49456787109375,0.4593505859375,-0.0599365234375,-3419,-9697,1201,7,21,41
205286603,0.73516845703125,-0.49212646484375,0.46234130859375,-0.0595703125,-3310,-9563,1381,9,21,35
205296585,0.73504638671875,-0.48980712890625,0.4649658203125,-0.05975341796875,-3245,-9447,1514,10,21,30
205306569,0.73492431640625,-0.487548828125,0.4674072265625,-0.06024169921875,-3190,-9342,1616,11,21,27
205316555,0.73486328125,-0.48541259765625,0.46966552734375,-0.06097412109375,-3107,-9293,1695,11,21,25
205326536,0.73486328125,-0.4833984375,0.4716796875,-0.06195068359375,-3052,-9244,1751,12,20,23
205336518,0.73486328125,-0.48138427734375,0.47357177734375,-0.0631103515625,-2986,-9152,1813,12,20,21
205346500,0.73486328125,-0.4796142578125,0.47515869140625,-0.06439208984375,-2934,-9084,1897,12,19,18
205356482,0.73492431640625,-0.47796630859375,0.4764404296875,-0.06597900390625,-2952,-9038,1993,11,18,14
205366465,0.7349853515625,-0.4766845703125,0.47735595703125,-0.06787109375,-2996,-9028,2096,10,17,9
205376449,0.73504638671875,-0.47589111328125,0.47772216796875,-0.07012939453125,-3040,-9071,2166,9,15,2
205386432,0.735107421875,-0.47564697265625,0.47747802734375,-0.0731201171875,-3065,-9140,2186,9,14,-8
205396413,0.73504638671875,-0.47613525390625,0.47650146484375,-0.07708740234375,-3064,-9192,2178,10,13,-20
205406397,0.73486328125,-0.47735595703125,0.474609375,-0.08233642578125,-3043,-9259,2144,11,12,-34
205416374,0.734619140625,-0.47930908203125,0.47186279296875,-0.08892822265625,-3054,-9326,2119,12,12,-48
205426355,0.7342529296875,-0.4818115234375,0.4683837890625,-0.09649658203125,-3090,-9419,2091,13,11,-60
205436338,0.73388671875,-0.484619140625,0.46429443359375,-0.10479736328125,-3152,-9540,2062,14,11,-67
205446320,0.7333984375,-0.48760986328125,0.4598388671875,-0.1134033203125,-3229,-9689,2005,14,9,-71
205456304,0.73284912109375,-0.49066162109375,0.4552001953125,-0.12213134765625,-3303,-9852,1908,14,8,-73
205466293,0.732177734375,-0.49383544921875,0.45037841796875,-0.130859375,-3366,-9998,1804,15,6,-75
205476268,0.73150634765625,-0.49713134765625,0.44525146484375,-0.1396484375,-3421,-10096,1715,14,5,-79
205486256,0.7305908203125,-0.50067138671875,0.439697265625,-0.14886474609375,-3489,-10188,1637,14,4,-86
205496242,0.72955322265625,-0.50457763671875,0.43359375,-0.1585693359375,-3579,-10287,1572,14,3,-94
205506224,0.7281494140625,-0.50897216796875,0.42681884765625,-0.1689453125,-3666,-10449,1535,13,2,-104
205516206,0.7265625,-0.51361083984375,0.41949462890625,-0.17974853515625,-3760,-10648,1500,13,0,-111
205526194,0.72479248046875,-0.51849365234375,0.41168212890625,-0.19073486328125,-3839,-10862,1447,13,-2,-115
205536174,0.72283935546875,-0.5234375,0.4034423828125,-0.20184326171875,-3895,-11083,1388,13,-4,-119
205546156,0.720703125,-0.52862548828125,0.394775390625,-0.212890625,-3957,-11270,1310,12,-7,-124
205556125,0.71832275390625,-0.53399658203125,0.38543701171875,-0.22430419921875,-4022,-11456,1242,13,-9,-132
205566109,0.715576171875,-0.53973388671875,0.37530517578125,-0.23614501953125,-4077,-11656,1189,12,-12,-142
205576093,0.71246337890625,-0.5457763671875,0.3642578125,-0.24859619140625,-4122,-11901,1164,13,-14,-152
205586073,0.70904541015625,-0.55194091796875,0.3524169921875,-0.261474609375,-4148,-12163,1172,13,-16,-160
205596057,0.705322265625,-0.55816650390625,0.3399658203125,-0.2745361328125,-4129,-12402,1151,14,-19,-166
205606051,0.7012939453125,-0.56439208984375,0.32684326171875,-0.2877197265625,-4038,-12560,1116,16,-21,-171
205616026,0.6971435546875,-0.5704345703125,0.31317138671875,-0.3009033203125,-3871,-12651,1058,17,-24,-175
205626008,0.69268798828125,-0.57635498046875,0.29876708984375,-0.31414794921875,-3656,-12717,1011,19,-26,-179
205635996,0.68804931640625,-0.58209228515625,0.2838134765625,-0.32745361328125,-3401,-12747,986,21,-28,-183
205645978,0.68310546875,-0.58758544921875,0.2681884765625,-0.34088134765625,-3117,-12755,1001,23,-29,-188
205655955,0.6778564453125,-0.59271240234375,0.25213623046875,-0.3543701171875,-2817,-12742,1048,25,-30,-191
205665941,0.67236328125,-0.59747314453125,0.2357177734375,-0.367919921875,-2474,-12656,1099,26,-30,-194
205675925,0.6666259765625,-0.60186767578125,0.218994140625,-0.38134765625,-2103,-12493,1136,28,-31,-194
205685906,0.66058349609375,-0.60577392578125,0.20208740234375,-0.39471435546875,-1690,-12262,1167,29,-30,-195
205695888,0.654296875,-0.6092529296875,0.1849365234375,-0.4080810546875,-1243,-11987,1214,31,-29,-196
205705878,0.64752197265625,-0.6123046875,0.16754150390625,-0.4215087890625,-763,-11704,1256,31,-27,-198
205715854,0.6402587890625,-0.61492919921875,0.14996337890625,-0.43524169921875,-303,-11387,1313,32,-25,-202
205725836,0.6324462890625,-0.6170654296875,0.132080078125,-0.44921875,131,-11071,1365,33,-23,-206
205735820,0.62408447265625,-0.61871337890625,0.11407470703125,-0.46337890625,551,-10782,1416,33,-19,-209
205745801,0.61529541015625,-0.61981201171875,0.09625244140625,-0.4775390625,968,-10486,1445,33,-16,-208
205755784,0.60626220703125,-0.620361328125,0.07867431640625,-0.49139404296875,1357,-10183,1471,33,-14,-206
205765772,0.59698486328125,-0.620361328125,0.0615234375,-0.5050048828125,1721,-9868,1468,33,-11,-203
205775755,0.58746337890625,-0.619873046875,0.044677734375,-0.51837158203125,2078,-9570,1493,33,-8,-201
205785737,0.57757568359375,-0.618896484375,0.028076171875,-0.53155517578125,2417,-9245,1496,33,-6,-200
205795713,0.5673828125,-0.617431640625,0.01165771484375,-0.54473876953125,2703,-8948,1499,33,-2,-202
205805702,0.5567626953125,-0.6153564453125,-0.00469970703125,-0.5579833984375,2943,-8634,1513,33,1,-204
205815679,0.54571533203125,-0.61273193359375,-0.02099609375,-0.5712890625,3149,-8349,1493,33,4,-207
205825662,0.53424072265625,-0.60955810546875,-0.037353515625,-0.58453369140625,3317,-8035,1470,34,6,-209
205835645,0.5224609375,-0.60577392578125,-0.05364990234375,-0.59771728515625,3446,-7691,1443,35,9,-209
205845629,0.5103759765625,-0.6015625,-0.0697021484375,-0.610595703125,3557,-7339,1423,34,10,-209
205855611,0.4981689453125,-0.59698486328125,-0.08551025390625,-0.623046875,3686,-6912,1427,34,11,-205
205865592,0.4859619140625,-0.592041015625,-0.10089111328125,-0.635009765625,3790,-6515,1424,33,12,-200
205875576,0.4737548828125,-0.58685302734375,-0.1158447265625,-0.6463623046875,3902,-6115,1412,33,12,-196
205885557,0.4615478515625,-0.581298828125,-0.1304931640625,-0.6573486328125,3997,-5729,1414,32,13,-193
205895542,0.44915771484375,-0.57550048828125,-0.14495849609375,-0.66790771484375,4065,-5321,1402,32,14,-193
205905522,0.43621826171875,-0.5692138671875,-0.1595458984375,-0.678466796875,4126,-4870,1383,32,15,-197
205915505,0.42242431640625,-0.56231689453125,-0.174560546875,-0.68914794921875,4139,-4403,1369,32,17,-204
205925487,0.407958984375,-0.5548095703125,-0.18975830078125,-0.69989013671875,4138,-4008,1372,31,18,-209
205935469,0.3929443359375,-0.54681396484375,-0.204833984375,-0.71044921875,4116,-3622,1366,31,20,-211
205945452,0.3779296875,-0.5384521484375,-0.2196044921875,-0.72052001953125,4056,-3236,1355,30,21,-206
205955431,0.36309814453125,-0.5299072265625,-0.2337646484375,-0.72991943359375,3990,-2877,1322,29,21,-200
205965424,0.3487548828125,-0.52130126953125,-0.24725341796875,-0.73858642578125,3910,-2534,1306,29,21,-191
205975407,0.3350830078125,-0.51275634765625,-0.260009765625,-0.74652099609375,3811,-2197,1297,28,21,-181
205985389,0.322021484375,-0.5042724609375,-0.2720947265625,-0.75372314453125,3704,-1864,1271,28,21,-172
205995366,0.3094482421875,-0.495849609375,-0.28363037109375,-0.76025390625,3590,-1547,1242,28,20,-165
206005350,0.29736328125,-0.48748779296875,-0.294677734375,-0.7662353515625,3442,-1270,1223,28,19,-158
206015329,0.28582763671875,-0.4793701171875,-0.30523681640625,-0.77166748046875,3305,-1031,1200,28,19,-150
206025312,0.2750244140625,-0.47149658203125,-0.315185546875,-0.7763671875,3172,-806,1189,28,17,-140
206035296,0.2647705078125,-0.4638671875,-0.32476806640625,-0.78057861328125,3049,-579,1182,28,16,-133
206045278,0.2548828125,-0.45648193359375,-0.33404541015625,-0.78436279296875,2938,-320,1211,28,14,-128
206055261,0.2451171875,-0.44903564453125,-0.34326171875,-0.7877197265625,2840,-76,1218,29,13,-126
206065241,0.2353515625,-0.44183349609375,-0.352294921875,-0.790771484375,2771,123,1224,29,11,-124
206075231,0.22589111328125,-0.4349365234375,-0.361083984375,-0.79339599609375,2723,316,1221,28,8,-118
206085214,0.2169189453125,-0.42840576171875,-0.3695068359375,-0.79559326171875,2708,495,1224,28,7,-112
206095194,0.20849609375,-0.42242431640625,-0.37750244140625,-0.79730224609375,2712,699,1218,28,4,-104
206105187,0.20050048828125,-0.41680908203125,-0.38525390625,-0.798583984375,2717,931,1231,28,2,-98
206115167,0.19256591796875,-0.41131591796875,-0.392822265625,-0.7996826171875,2738,1205,1258,28,0,-97
206125153,0.1844482421875,-0.4058837890625,-0.40045166015625,-0.80059814453125,2740,1530,1297,27,-1,-97
206135118,0.1759033203125,-0.400390625,-0.408203125,-0.8013916015625,2711,1908,1342,27,-2,-99
206145100,0.16680908203125,-0.3946533203125,-0.41607666015625,-0.8021240234375,2650,2346,1398,26,-4,-103
206155085,0.15716552734375,-0.38861083984375,-0.42413330078125,-0.80279541015625,2521,2827,1449,25,-5,-106
206165066,0.14691162109375,-0.38238525390625,-0.43231201171875,-0.80340576171875,2389,3346,1507,24,-6,-109
206175051,0.13641357421875,-0.3759765625,-0.4404296875,-0.8038330078125,2222,3911,1597,23,-7,-108
206185031,0.12579345703125,-0.36956787109375,-0.44842529296875,-0.80413818359375,2048,4510,1700,22,-8,-106
206195013,0.115234375,-0.36328125,-0.45611572265625,-0.80426025390625,1867,5129,1832,21,-9,-101
206204997,0.10516357421875,-0.357177734375,-0.46337890625,-0.80419921875,1669,5755,2012,20,-10,-93
206214985,0.09576416015625,-0.35162353515625,-0.469970703125,-0.803955078125,1510,6347,2215,19,-12,-83
206224961,0.08721923828125,-0.34649658203125,-0.47601318359375,-0.8035888671875,1449,6787,2447,18,-11,-74
206234943,0.0799560546875,-0.341552734375,-0.48162841796875,-0.80316162109375,1450,7012,2714,22,-7,-66
206244925,0.0743408203125,-0.336669921875,-0.487060546875,-0.802490234375,1456,7120,2988,29,-1,-54
206254912,0.07122802734375,-0.33184814453125,-0.492431640625,-0.801513671875,1419,7269,3178,37,7,-36
206264891,0.07098388671875,-0.32769775390625,-0.49755859375,-0.80010986328125,1317,7571,3277,43,13,-10
206274878,0.073974609375,-0.32489013671875,-0.5018310546875,-0.79827880859375,1213,7923,3288,45,16,24
206284853,0.0804443359375,-0.32427978515625,-0.504638671875,-0.796142578125,1139,8236,3261,44,16,61
206294836,0.09027099609375,-0.3260498046875,-0.505859375,-0.7935791015625,1115,8428,3171,41,14,97
206304819,0.10284423828125,-0.330078125,-0.50537109375,-0.79071044921875,1160,8471,3067,37,12,126
206314802,0.1171875,-0.335693359375,-0.50360107421875,-0.78741455078125,1246,8410,2951,33,9,146
206324784,0.13262939453125,-0.3424072265625,-0.50079345703125,-0.78387451171875,1353,8238,2835,30,7,157
206334765,0.14849853515625,-0.349853515625,-0.49700927734375,-0.7801513671875,1494,7967,2738,25,5,163
206344756,0.16436767578125,-0.35772705078125,-0.49261474609375,-0.77618408203125,1663,7670,2643,21,3,165
206354739,0.17999267578125,-0.36572265625,-0.487548828125,-0.77215576171875,1827,7326,2578,17,1,166
206364717,0.19549560546875,-0.37396240234375,-0.48187255859375,-0.76800537109375,2006,6958,2518,13,1,166
206374697,0.21099853515625,-0.3824462890625,-0.47540283203125,-0.76373291015625,2184,6541,2467,8,0,170
206384683,0.2266845703125,-0.391357421875,-0.46807861328125,-0.75921630859375,2362,6094,2426,4,-1,175
206394661,0.242919921875,-0.4007568359375,-0.45965576171875,-0.75445556640625,2553,5617,2419,-1,-1,183
206404639,0.2596435546875,-0.41058349609375,-0.4501953125,-0.749267578125,2733,5125,2388,-5,-1,191
206414626,0.2767333984375,-0.420654296875,-0.439697265625,-0.7437744140625,2892,4658,2367,-9,0,196
206424606,0.29400634765625,-0.43084716796875,-0.4283447265625,-0.7379150390625,3045,4175,2358,-13,1,200
206434588,0.31121826171875,-0.44097900390625,-0.41619873046875,-0.7318115234375,3160,3723,2360,-16,2,202
206444571,0.328369140625,-0.45098876953125,-0.4033203125,-0.72540283203125,3250,3252,2360,-20,3,203
206454553,0.34539794921875,-0.46099853515625,-0.3896484375,-0.7186279296875,3344,2753,2329,-23,4,206
206464542,0.3624267578125,-0.47100830078125,-0.37518310546875,-0.71142578125,3444,2240,2299,-27,4,209
206474519,0.3792724609375,-0.48089599609375,-0.36004638671875,-0.70379638671875,3542,1643,2246,-29,5,208
206484502,0.39569091796875,-0.49053955078125,-0.34466552734375,-0.69573974609375,3658,1013,2169,-30,5,204
206494484,0.4114990234375,-0.49969482421875,-0.3292236328125,-0.6875,3794,395,2099,-30,7,197
206504466,0.42626953125,-0.508056640625,-0.31414794921875,-0.6793212890625,3917,-205,2008,-29,8,186
206514449,0.44012451171875,-0.5157470703125,-0.29937744140625,-0.67132568359375,4010,-781,1922,-29,9,176
206524436,0.4532470703125,-0.52294921875,-0.284912109375,-0.663330078125,4129,-1346,1843,-29,10,170
206534419,0.466064453125,-0.5299072265625,-0.27020263671875,-0.655029296875,4240,-1953,1768,-29,10,170
206544401,0.47894287109375,-0.536865234375,-0.25494384765625,-0.64605712890625,4389,-2526,1711,-30,10,175
206554382,0.4920654296875,-0.54376220703125,-0.23907470703125,-0.63641357421875,4597,-3024,1686,-30,11,182
206564363,0.50537109375,-0.55035400390625,-0.22265625,-0.626220703125,4779,-3482,1684,-30,13,186
206574350,0.5185546875,-0.556396484375,-0.205810546875,-0.61578369140625,4949,-3959,1655,-29,17,186
206584327,0.53143310546875,-0.56182861328125,-0.188720703125,-0.605224609375,5085,-4471,1615,-29,20,184
206594311,0.54412841796875,-0.56671142578125,-0.1712646484375,-0.5946044921875,5188,-4983,1570,-28,24,184
206604293,0.55657958984375,-0.57098388671875,-0.1534423828125,-0.58367919921875,5220,-5424,1520,-28,27,186
206614277,0.56903076171875,-0.5748291015625,-0.1351318359375,-0.57232666015625,5169,-5765,1523,-28,30,190
206624258,0.58135986328125,-0.578125,-0.11627197265625,-0.5606689453125,5027,-5996,1581,-29,32,195
206634237,0.593505859375,-0.58087158203125,-0.0970458984375,-0.54864501953125,4852,-6158,1695,-29,33,196
206644231,0.60528564453125,-0.58294677734375,-0.07769775390625,-0.5364990234375,4653,-6352,1818,-28,35,196
206654212,0.61663818359375,-0.58447265625,-0.0582275390625,-0.524169921875,4462,-6783,1892,-28,37,194
206664193,0.62774658203125,-0.5855712890625,-0.03863525390625,-0.511474609375,4290,-7332,1897,-25,39,194
206674185,0.63861083984375,-0.5860595703125,-0.01885986328125,-0.4984130859375,4098,-7756,1903,-23,40,196
206684174,0.649169921875,-0.5858154296875,0.00067138671875,-0.4852294921875,3860,-7942,1947,-21,41,194
206694145,0.65911865234375,-0.5848388671875,0.01959228515625,-0.47235107421875,3562,-7995,2053,-19,42,188
206704121,0.66845703125,-0.583251953125,0.0379638671875,-0.45989990234375,3233,-8053,2185,-18,42,182
206714102,0.67718505859375,-0.5811767578125,0.05584716796875,-0.44781494140625,2885,-8201,2300,-16,43,174
206724084,0.685302734375,-0.57879638671875,0.0733642578125,-0.4359130859375,2531,-8423,2373,-16,43,170
206734069,0.69287109375,-0.576171875,0.09063720703125,-0.42388916015625,2187,-8608,2424,-16,42,168
206744051,0.7000732421875,-0.5732421875,0.1075439453125,-0.4119873046875,1862,-8679,2483,-15,42,165
206754033,0.70672607421875,-0.57000732421875,0.1239013671875,-0.40032958984375,1582,-8624,2516,-14,42,160
206764015,0.7127685546875,-0.5665283203125,0.13958740234375,-0.3892822265625,1299,-8495,2560,-14,42,152
206773996,0.71807861328125,-0.56292724609375,0.1546630859375,-0.37884521484375,1006,-8462,2612,-14,43,144
206783986,0.72283935546875,-0.559326171875,0.16937255859375,-0.36871337890625,721,-8581,2655,-15,43,140
206793961,0.72723388671875,-0.5555419921875,0.18402099609375,-0.35858154296875,440,-8729,2704,-16,43,139
206803946,0.7314453125,-0.5516357421875,0.19879150390625,-0.34814453125,172,-8853,2713,-16,43,142
206813928,0.73541259765625,-0.5474853515625,0.2137451171875,-0.33721923828125,-90,-8906,2681,-17,44,146
206823909,0.7392578125,-0.54296875,0.2288818359375,-0.32598876953125,-340,-8885,2632,-17,45,150
206833892,0.74285888671875,-0.5382080078125,0.24407958984375,-0.31451416015625,-594,-8840,2535,-16,45,151
206843878,0.74609375,-0.533203125,0.25933837890625,-0.3028564453125,-870,-8825,2420,-16,46,152
206853855,0.7490234375,-0.52801513671875,0.27459716796875,-0.2911376953125,-1158,-8897,2307,-16,47,153
206863838,0.7515869140625,-0.5225830078125,0.2899169921875,-0.2791748046875,-1447,-9003,2206,-16,48,155
206873821,0.75384521484375,-0.51690673828125,0.3052978515625,-0.26708984375,-1746,-9090,2107,-17,49,156
206883802,0.75567626953125,-0.510986328125,0.3206787109375,-0.25482177734375,-2074,-9157,1989,-17,49,156
206893786,0.75714111328125,-0.50494384765625,0.3359375,-0.24261474609375,-2406,-9180,1850,-17,50,155
206903767,0.7581787109375,-0.498779296875,0.3509521484375,-0.230712890625,-2700,-9159,1703,-16,51,151
206913757,0.7586669921875,-0.49267578125,0.36553955078125,-0.2193603515625,-2966,-9143,1562,-16,53,145
206923739,0.75860595703125,-0.486572265625,0.37969970703125,-0.208740234375,-3225,-9165,1441,-16,54,139
206933716,0.758056640625,-0.48065185546875,0.39349365234375,-0.19873046875,-3476,-9203,1323,-15,55,132
206943699,0.75701904296875,-0.474853515625,0.40692138671875,-0.18939208984375,-3745,-9218,1210,-16,57,126
206953679,0.7554931640625,-0.46923828125,0.419921875,-0.18060302734375,-4002,-9262,1094,-16,58,121
206963663,0.753662109375,-0.4637451171875,0.43267822265625,-0.1722412109375,-4249,-9307,979,-16,59,117
206973647,0.75146484375,-0.4583740234375,0.4451904296875,-0.1641845703125,-4476,-9360,854,-17,59,114
206983629,0.74896240234375,-0.453125,0.45733642578125,-0.15643310546875,-4650,-9368,717,-17,59,110
206993611,0.7462158203125,-0.44805908203125,0.4691162109375,-0.14910888671875,-4805,-9347,581,-17,59,106
207003594,0.74322509765625,-0.44317626953125,0.4805908203125,-0.142333984375,-4938,-9301,463,-17,59,101
207013576,0.73992919921875,-0.43853759765625,0.49151611328125,-0.13616943359375,-5040,-9238,378,-16,60,94
207023559,0.7364501953125,-0.4342041015625,0.501953125,-0.13067626953125,-5149,-9169,336,-16,60,88
207033543,0.7327880859375,-0.43023681640625,0.51177978515625,-0.1259765625,-5230,-9085,314,-16,60,79
207043530,0.72894287109375,-0.42669677734375,0.52117919921875,-0.1219482421875,-5320,-8997,268,-16,60,72
207053511,0.72491455078125,-0.423583984375,0.530029296875,-0.11871337890625,-5379,-8894,194,-16,60,64
207063492,0.720703125,-0.4208984375,0.53839111328125,-0.11614990234375,-5402,-8786,105,-15,59,56
207073476,0.71636962890625,-0.41864013671875,0.5462646484375,-0.1142578125,-5412,-8664,29,-15,59,49
207083460,0.7120361328125,-0.41668701171875,0.5537109375,-0.1129150390625,-5387,-8539,-40,-15,58,43
207093439,0.70770263671875,-0.41497802734375,0.5606689453125,-0.11199951171875,-5392,-8427,-79,-14,57,39
207103430,0.7034912109375,-0.413330078125,0.5672607421875,-0.11138916015625,-5397,-8300,-94,-13,55,35
207113411,0.69940185546875,-0.41168212890625,0.57354736328125,-0.11102294921875,-5440,-8193,-85,-11,54,33
207123392,0.69549560546875,-0.4100341796875,0.57952880859375,-0.11083984375,-5499,-8114,-75,-10,52,32
207133370,0.69171142578125,-0.40826416015625,0.58526611328125,-0.110595703125,-5574,-8064,-68,-9,51,32
207143352,0.688232421875,-0.40631103515625,0.59075927734375,-0.1103515625,-5659,-8038,-65,-7,48,33
207153337,0.68499755859375,-0.40411376953125,0.59613037109375,-0.1099853515625,-5735,-8003,-73,-6,46,34
207163316,0.6820068359375,-0.401611328125,0.60125732421875,-0.10943603515625,-5801,-7976,-77,-4,44,36
207173300,0.67938232421875,-0.3988037109375,0.60626220703125,-0.10870361328125,-5865,-7942,-61,-2,41,39
207183280,0.67706298828125,-0.39569091796875,0.61102294921875,-0.10784912109375,-5917,-7876,-44,-1,38,40
207193267,0.67498779296875,-0.39239501953125,0.6156005859375,-0.10693359375,-5962,-7761,-22,1,36,40
207203243,0.67315673828125,-0.3890380859375,0.619873046875,-0.1060791015625,-5997,-7654,13,2,34,38
207213235,0.67144775390625,-0.3858642578125,0.623779296875,-0.10546875,-6052,-7535,45,3,32,35
207223217,0.66986083984375,-0.3828125,0.62738037109375,-0.10516357421875,-6115,-7402,62,4,31,31
207233196,0.6683349609375,-0.380126953125,0.63067626953125,-0.105224609375,-6166,-7271,78,5,30,26
207243188,0.6668701171875,-0.37774658203125,0.633544921875,-0.1055908203125,-6205,-7144,82,5,28,20
207253174,0.66552734375,-0.37579345703125,0.635986328125,-0.1064453125,-6238,-7012,87,5,27,15
207263146,0.6641845703125,-0.37420654296875,0.63812255859375,-0.10760498046875,-6231,-6852,94,6,25,9
207273123,0.662841796875,-0.37310791015625,0.639892578125,-0.109130859375,-6210,-6706,91,6,24,4
207283103,0.6614990234375,-0.3724365234375,0.641357421875,-0.1112060546875,-6173,-6574,83,6,23,-3
207293082,0.66015625,-0.37213134765625,0.6424560546875,-0.113525390625,-6152,-6458,92,6,23,-7
207303062,0.6588134765625,-0.37213134765625,0.64337158203125,-0.11614990234375,-6131,-6356,88,5,22,-11
207313051,0.657470703125,-0.372314453125,0.6441650390625,-0.11883544921875,-6107,-6291,91,5,22,-12
207323028,0.6561279296875,-0.37261962890625,0.64483642578125,-0.12158203125,-6079,-6220,94,5,21,-13
207333011,0.65478515625,-0.3729248046875,0.6455078125,-0.124267578125,-6060,-6153,93,5,21,-13
207342996,0.653564453125,-0.3731689453125,0.6461181640625,-0.12677001953125,-6055,-6085,89,4,20,-12
207352982,0.65234375,-0.37335205078125,0.64678955078125,-0.129150390625,-6038,-6029,67,4,20,-11
207362958,0.65106201171875,-0.37353515625,0.6474609375,-0.1314697265625,-6030,-5984,47,3,19,-11
207372940,0.64984130859375,-0.3736572265625,0.648193359375,-0.13360595703125,-6029,-5919,15,3,19,-11
207382924,0.648681640625,-0.37384033203125,0.64886474609375,-0.1356201171875,-6057,-5864,9,2,18,-10
207392905,0.6475830078125,-0.37396240234375,0.64947509765625,-0.13751220703125,-6083,-5810,-17,2,17,-10
207402888,0.646484375,-0.3741455078125,0.65008544921875,-0.13934326171875,-6119,-5782,-43,2,17,-10
207412878,0.64532470703125,-0.3743896484375,0.6507568359375,-0.1409912109375,-6155,-5757,-100,1,16,-9
207422853,0.644287109375,-0.37457275390625,0.65130615234375,-0.1424560546875,-6186,-5755,-155,0,15,-9
207432837,0.64324951171875,-0.374755859375,0.65191650390625,-0.143798828125,-6211,-5737,-217,0,14,-8
207442818,0.642333984375,-0.37493896484375,0.65252685546875,-0.14508056640625,-6210,-5696,-273,0,13,-8
207452804,0.64141845703125,-0.3751220703125,0.65301513671875,-0.14630126953125,-6194,-5641,-308,0,13,-8
207462784,0.6405029296875,-0.37542724609375,0.6534423828125,-0.1474609375,-6188,-5597,-343,-1,11,-9
207472769,0.6396484375,-0.3758544921875,0.65374755859375,-0.148681640625,-6163,-5555,-369,-1,11,-10
207482753,0.63885498046875,-0.37640380859375,0.6539306640625,-0.14990234375,-6169,-5519,-395,-1,10,-11
207492735,0.63812255859375,-0.37713623046875,0.65399169921875,-0.151123046875,-6171,-5506,-404,-2,8,-13
207502711,0.637451171875,-0.37786865234375,0.6539306640625,-0.15240478515625,-6182,-5490,-443,-2,8,-14
207512695,0.63677978515625,-0.37872314453125,0.65380859375,-0.153564453125,-6169,-5484,-470,-2,7,-14
207522675,0.63616943359375,-0.37969970703125,0.653564453125,-0.15478515625,-6162,-5495,-488,-2,6,-14
207532657,0.6356201171875,-0.38067626953125,0.65325927734375,-0.1558837890625,-6160,-5488,-516,-2,4,-15
207542641,0.6351318359375,-0.3817138671875,0.65283203125,-0.15704345703125,-6148,-5481,-535,-2,4,-16
207552623,0.63470458984375,-0.38287353515625,0.65228271484375,-0.15826416015625,-6142,-5462,-564,-2,3,-17
207562606,0.63427734375,-0.38421630859375,0.651611328125,-0.15948486328125,-6139,-5473,-579,-2,2,-19
207572584,0.6339111328125,-0.3856201171875,0.65081787109375,-0.1607666015625,-6137,-5495,-603,-2,1,-19
207582566,0.63360595703125,-0.3870849609375,0.64990234375,-0.16204833984375,-6150,-5528,-629,-2,0,-19
207592549,0.6334228515625,-0.38848876953125,0.64898681640625,-0.16314697265625,-6158,-5577,-665,-2,-1,-18
207602530,0.63336181640625,-0.3897705078125,0.6480712890625,-0.16412353515625,-6165,-5642,-685,-2,-2,-16
207612512,0.6334228515625,-0.390869140625,0.64715576171875,-0.16485595703125,-6167,-5680,-706,-2,-4,-14
207622493,0.633544921875,-0.391845703125,0.646240234375,-0.1654052734375,-6141,-5700,-732,-2,-5,-12
207632475,0.63385009765625,-0.39276123046875,0.64532470703125,-0.16583251953125,-6112,-5711,-762,-2,-5,-11
207642459,0.6341552734375,-0.3936767578125,0.64434814453125,-0.1661376953125,-6081,-5728,-779,-2,-7,-11
207652438,0.63458251953125,-0.39459228515625,0.643310546875,-0.16650390625,-6051,-5734,-785,-1,-7,-11
207662430,0.635009765625,-0.39556884765625,0.64215087890625,-0.1668701171875,-6034,-5756,-791,-1,-8,-12
207672410,0.635498046875,-0.39666748046875,0.64093017578125,-0.16729736328125,-5999,-5784,-806,-1,-9,-13
207682394,0.63604736328125,-0.39776611328125,0.63958740234375,-0.16778564453125,-5983,-5813,-826,-1,-9,-14
207692371,0.63653564453125,-0.39892578125,0.63818359375,-0.16827392578125,-5949,-5834,-836,-1,-10,-14
207702360,0.6370849609375,-0.40008544921875,0.63677978515625,-0.16876220703125,-5909,-5865,-849,0,-10,-14
