subject,Joshua Spiesman
arm,right
label,1
hz,100.17424804981877
time,4.352416

timestamp_us,q0,q1,q2,q3,ax,ay,az,gx,gy,gz
62028792,-0.3114013671875,0.68585205078125,-0.21075439453125,-0.623046875,-8058,-1326,-252,0,0,-1
62038778,-0.3115234375,0.6859130859375,-0.21063232421875,-0.623046875,-8061,-1329,-244,0,-1,-2
62048763,-0.3116455078125,0.6859130859375,-0.2105712890625,-0.62298583984375,-8068,-1327,-244,0,0,-2
62058746,-0.31170654296875,0.68597412109375,-0.21051025390625,-0.6229248046875,-8067,-1321,-244,0,0,-2
62068729,-0.311767578125,0.68597412109375,-0.21051025390625,-0.62286376953125,-8079,-1320,-235,0,0,-1
62078711,-0.311767578125,0.6859130859375,-0.2105712890625,-0.6229248046875,-8079,-1317,-214,0,-1,0
62088691,-0.311767578125,0.6859130859375,-0.21063232421875,-0.6229248046875,-8075,-1321,-205,0,0,0
62098674,-0.311767578125,0.6859130859375,-0.210693359375,-0.62286376953125,-8077,-1335,-209,0,0,0
62108656,-0.311767578125,0.6859130859375,-0.210693359375,-0.62286376953125,-8066,-1331,-225,-1,0,-1
62118638,-0.31182861328125,0.6859130859375,-0.210693359375,-0.622802734375,-8065,-1341,-232,0,0,-1
62128619,-0.3118896484375,0.68597412109375,-0.210693359375,-0.62274169921875,-8076,-1334,-237,0,0,-1
62138602,-0.31195068359375,0.68603515625,-0.210693359375,-0.6226806640625,-8086,-1339,-259,0,0,-1
62148582,-0.31201171875,0.68603515625,-0.210693359375,-0.62255859375,-8088,-1356,-258,0,0,-1
62158573,-0.31207275390625,0.68603515625,-0.21075439453125,-0.62255859375,-8090,-1349,-271,0,-1,0
62168551,-0.31201171875,0.68603515625,-0.21087646484375,-0.62255859375,-8082,-1336,-271,0,0,0
62178536,-0.31201171875,0.68597412109375,-0.21099853515625,-0.62255859375,-8076,-1329,-269,0,0,1
62188515,-0.31195068359375,0.68597412109375,-0.21112060546875,-0.62255859375,-8069,-1322,-256,0,0,0
62198497,-0.31195068359375,0.68597412109375,-0.21124267578125,-0.62255859375,-8069,-1322,-249,0,0,0
62208481,-0.31195068359375,0.68597412109375,-0.2113037109375,-0.62249755859375,-8054,-1322,-238,0,0,-1
62218460,-0.31201171875,0.68603515625,-0.21124267578125,-0.6224365234375,-8063,-1334,-260,0,0,-1
62228443,-0.3121337890625,0.68609619140625,-0.211181640625,-0.62225341796875,-8057,-1356,-269,0,0,-2
62238432,-0.312255859375,0.6861572265625,-0.211181640625,-0.6221923828125,-8065,-1353,-254,0,0,-1
62248414,-0.31231689453125,0.68621826171875,-0.211181640625,-0.6220703125,-8068,-1344,-261,0,0,-1
62258396,-0.3123779296875,0.68621826171875,-0.21124267578125,-0.62200927734375,-8075,-1338,-247,0,0,-1
62268384,-0.3123779296875,0.686279296875,-0.21136474609375,-0.6219482421875,-8078,-1339,-240,0,0,0
62278357,-0.31231689453125,0.686279296875,-0.21148681640625,-0.62188720703125,-8081,-1339,-231,0,0,0
62288344,-0.31231689453125,0.686279296875,-0.21160888671875,-0.62188720703125,-8091,-1326,-235,0,0,0
62298327,-0.31231689453125,0.68634033203125,-0.21173095703125,-0.62176513671875,-8099,-1332,-240,0,1,-1
62308303,-0.3123779296875,0.6864013671875,-0.2117919921875,-0.62164306640625,-8103,-1335,-244,0,1,-1
62318287,-0.3125,0.68646240234375,-0.21185302734375,-0.62152099609375,-8096,-1344,-249,1,0,-1
62328267,-0.31256103515625,0.68646240234375,-0.2119140625,-0.6214599609375,-8090,-1324,-251,0,0,-1
62338255,-0.31256103515625,0.68646240234375,-0.2120361328125,-0.62139892578125,-8094,-1306,-242,0,0,0
62348232,-0.3125,0.6864013671875,-0.21221923828125,-0.6214599609375,-8076,-1309,-235,0,0,1
62358223,-0.31243896484375,0.68634033203125,-0.21240234375,-0.6214599609375,-8065,-1314,-234,0,0,1
62368206,-0.31231689453125,0.68634033203125,-0.21258544921875,-0.6214599609375,-8057,-1323,-239,0,0,1
62378185,-0.31219482421875,0.6864013671875,-0.2127685546875,-0.6214599609375,-8058,-1315,-264,0,0,0
62388183,-0.31219482421875,0.6864013671875,-0.21282958984375,-0.62139892578125,-8050,-1307,-277,0,0,0
62398167,-0.31207275390625,0.6865234375,-0.212890625,-0.62127685546875,-8051,-1312,-288,0,0,0
62408150,-0.31207275390625,0.68658447265625,-0.21295166015625,-0.6212158203125,-8043,-1315,-285,0,1,-1
62418121,-0.31207275390625,0.6866455078125,-0.2130126953125,-0.62109375,-8040,-1326,-283,0,1,0
62428096,-0.31201171875,0.686767578125,-0.21307373046875,-0.62103271484375,-8021,-1320,-286,0,1,0
62438080,-0.31195068359375,0.68682861328125,-0.21319580078125,-0.62091064453125,-8026,-1313,-251,0,1,0
62448066,-0.31195068359375,0.68682861328125,-0.21331787109375,-0.62091064453125,-8030,-1292,-226,0,1,0
62458044,-0.3118896484375,0.6868896484375,-0.21343994140625,-0.620849609375,-8039,-1261,-198,0,1,0
62468028,-0.31182861328125,0.68682861328125,-0.213623046875,-0.62078857421875,-8060,-1247,-193,0,1,0
62478008,-0.31170654296875,0.68682861328125,-0.2138671875,-0.62078857421875,-8076,-1223,-198,0,1,1
62487990,-0.3115234375,0.68682861328125,-0.21417236328125,-0.62078857421875,-8102,-1221,-236,0,0,2
62497979,-0.311279296875,0.686767578125,-0.214599609375,-0.620849609375,-8095,-1225,-245,0,0,3
62507956,-0.31097412109375,0.68658447265625,-0.215087890625,-0.6209716796875,-8037,-1211,-246,0,0,5
62517935,-0.31048583984375,0.6864013671875,-0.21575927734375,-0.6212158203125,-7992,-1206,-207,1,0,7
62527917,-0.30987548828125,0.68609619140625,-0.21661376953125,-0.62158203125,-8000,-1171,-159,0,0,9
62537900,-0.30908203125,0.68572998046875,-0.21759033203125,-0.6220703125,-8068,-1126,-123,0,0,10
62547884,-0.3082275390625,0.68524169921875,-0.21868896484375,-0.62255859375,-8213,-1076,-72,0,0,12
62557865,-0.3072509765625,0.6846923828125,-0.219970703125,-0.623291015625,-8406,-970,-21,1,-1,13
62567845,-0.30621337890625,0.6839599609375,-0.2213134765625,-0.62408447265625,-8603,-842,1,1,-2,13
62577827,-0.30517578125,0.68316650390625,-0.2227783203125,-0.62493896484375,-8792,-749,-25,1,-4,14
62587811,-0.303955078125,0.68212890625,-0.22442626953125,-0.6260986328125,-8947,-685,-80,2,-6,18
62597792,-0.302490234375,0.6806640625,-0.2265625,-0.62762451171875,-9053,-588,-84,3,-9,24
62607778,-0.300537109375,0.6787109375,-0.2293701171875,-0.629638671875,-9139,-469,-36,4,-11,33
62617765,-0.29791259765625,0.67626953125,-0.23291015625,-0.63226318359375,-9225,-302,50,4,-13,42
62627748,-0.29461669921875,0.67327880859375,-0.237060546875,-0.63543701171875,-9420,-100,138,4,-15,49
62637732,-0.29095458984375,0.66998291015625,-0.24151611328125,-0.63885498046875,-9702,135,202,4,-17,53
62647710,-0.28717041015625,0.66650390625,-0.2459716796875,-0.64251708984375,-10070,335,239,3,-19,53
62657692,-0.28369140625,0.66290283203125,-0.250244140625,-0.64617919921875,-10439,489,225,4,-22,50
62667676,-0.28045654296875,0.6591796875,-0.25439453125,-0.64971923828125,-10745,581,181,6,-24,49
62677660,-0.2772216796875,0.655029296875,-0.2587890625,-0.653564453125,-10942,656,157,8,-27,55
62687642,-0.2734375,0.6502685546875,-0.26422119140625,-0.65777587890625,-11051,716,143,11,-29,68
62697629,-0.26837158203125,0.64447021484375,-0.27130126953125,-0.66259765625,-11110,770,141,14,-32,90
62707610,-0.26171875,0.637451171875,-0.28021240234375,-0.66827392578125,-11061,868,171,16,-35,114
62717591,-0.2535400390625,0.62933349609375,-0.2908935546875,-0.67462158203125,-10963,1021,231,19,-37,134
62727575,-0.244384765625,0.6202392578125,-0.3026123046875,-0.68121337890625,-10837,1199,302,21,-39,146
62737556,-0.23516845703125,0.610595703125,-0.31451416015625,-0.687744140625,-10707,1429,385,23,-41,145
62747542,-0.22674560546875,0.6009521484375,-0.32586669921875,-0.6937255859375,-10583,1698,445,25,-42,135
62757523,-0.21978759765625,0.59161376953125,-0.33624267578125,-0.69903564453125,-10469,1945,489,28,-42,119
62767507,-0.21429443359375,0.58270263671875,-0.34564208984375,-0.70361328125,-10355,2168,545,31,-42,104
62777488,-0.2098388671875,0.5740966796875,-0.3544921875,-0.7076416015625,-10218,2353,584,33,-42,96
62787474,-0.2059326171875,0.5655517578125,-0.3631591796875,-0.71124267578125,-10064,2507,650,36,-41,94
62797458,-0.201904296875,0.5567626953125,-0.37213134765625,-0.71466064453125,-9913,2659,731,39,-40,98
62807443,-0.1971435546875,0.54754638671875,-0.3818359375,-0.71807861328125,-9692,2810,832,40,-39,108
62817428,-0.19140625,0.5377197265625,-0.39227294921875,-0.72137451171875,-9447,2952,931,41,-38,119
62827411,-0.1846923828125,0.52740478515625,-0.40338134765625,-0.724609375,-9113,3128,1032,42,-35,129
62837394,-0.177001953125,0.51654052734375,-0.41510009765625,-0.72772216796875,-8782,3324,1135,42,-33,138
62847370,-0.1685791015625,0.5054931640625,-0.4271240234375,-0.73052978515625,-8507,3588,1222,43,-30,142
62857351,-0.15972900390625,0.49444580078125,-0.439208984375,-0.73291015625,-8282,3841,1294,43,-27,144
62867335,-0.15057373046875,0.48345947265625,-0.45123291015625,-0.73486328125,-8054,4079,1355,42,-23,144
62877319,-0.14129638671875,0.47271728515625,-0.4630126953125,-0.73638916015625,-7817,4297,1397,42,-20,143
62887299,-0.13201904296875,0.4622802734375,-0.474365234375,-0.73748779296875,-7630,4532,1419,41,-18,139
62897287,-0.12322998046875,0.45245361328125,-0.48516845703125,-0.73809814453125,-7517,4773,1431,40,-15,130
62907265,-0.11517333984375,0.443359375,-0.4951171875,-0.73828125,-7461,5016,1420,39,-13,120
62917249,-0.10760498046875,0.43475341796875,-0.50445556640625,-0.73822021484375,-7444,5237,1395,37,-12,114
62927236,-0.10003662109375,0.42633056640625,-0.51336669921875,-0.73809814453125,-7441,5436,1382,35,-11,114
62937219,-0.0921630859375,0.41754150390625,-0.5220947265625,-0.738037109375,-7420,5611,1353,33,-13,119
62947203,-0.0836181640625,0.40826416015625,-0.53070068359375,-0.738037109375,-7416,5797,1337,30,-13,125
62957180,-0.07464599609375,0.39849853515625,-0.53912353515625,-0.73828125,-7358,5999,1320,26,-15,129
62967173,-0.0654296875,0.388427734375,-0.54718017578125,-0.73858642578125,-7237,6190,1295,23,-16,130
62977155,-0.05609130859375,0.37823486328125,-0.55474853515625,-0.739013671875,-7014,6375,1295,19,-17,129
62987134,-0.04669189453125,0.36798095703125,-0.56170654296875,-0.73956298828125,-6733,6574,1287,15,-18,127
62997108,-0.03717041015625,0.35784912109375,-0.56805419921875,-0.740234375,-6452,6780,1288,10,-17,124
63007091,-0.02783203125,0.34796142578125,-0.5736083984375,-0.7410888671875,-6240,6952,1263,4,-17,120
63017070,-0.018798828125,0.338623046875,-0.57830810546875,-0.74200439453125,-6124,7087,1205,0,-16,113
63027054,-0.010498046875,0.33001708984375,-0.58209228515625,-0.74310302734375,-6055,7181,1157,-5,-16,104
63037034,-0.00286865234375,0.32208251953125,-0.585205078125,-0.7442626953125,-5988,7246,1097,-8,-16,95
63047017,0.00433349609375,0.3145751953125,-0.587646484375,-0.7454833984375,-5848,7282,1068,-11,-16,91
63056999,0.011962890625,0.30682373046875,-0.58990478515625,-0.74688720703125,-5657,7291,1036,-14,-15,97
63066987,0.0208740234375,0.29827880859375,-0.59222412109375,-0.748291015625,-5443,7293,1024,-17,-14,109
63076970,0.03118896484375,0.288818359375,-0.5946044921875,-0.74969482421875,-5303,7324,996,-20,-13,122
63086946,0.042236328125,0.2789306640625,-0.596923828125,-0.7510986328125,-5191,7334,957,-22,-12,128
63096929,0.05322265625,0.26910400390625,-0.59893798828125,-0.75238037109375,-5093,7305,926,-24,-12,126
63106912,0.0634765625,0.25982666015625,-0.6004638671875,-0.75360107421875,-4972,7274,896,-25,-12,116
63116895,0.07257080078125,0.2513427734375,-0.6014404296875,-0.7548828125,-4871,7224,875,-26,-13,105
63126878,0.08062744140625,0.2435302734375,-0.60198974609375,-0.75616455078125,-4732,7170,858,-26,-14,95
63136861,0.08819580078125,0.23602294921875,-0.60247802734375,-0.75738525390625,-4535,7081,869,-25,-14,92
63146841,0.09613037109375,0.22802734375,-0.60302734375,-0.7584228515625,-4279,6973,868,-24,-15,98
63156826,0.10498046875,0.21917724609375,-0.60394287109375,-0.75909423828125,-3999,6894,896,-23,-15,109
63166807,0.11474609375,0.20947265625,-0.60504150390625,-0.759521484375,-3761,6841,931,-22,-16,119
63176790,0.1246337890625,0.1995849609375,-0.606201171875,-0.759765625,-3621,6842,960,-21,-17,119
63186778,0.13385009765625,0.19012451171875,-0.60723876953125,-0.759765625,-3492,6853,970,-20,-17,112
63196762,0.14215087890625,0.18115234375,-0.608154296875,-0.759765625,-3293,6827,999,-18,-18,104
63206745,0.15020751953125,0.17218017578125,-0.609130859375,-0.759521484375,-3015,6766,1029,-16,-19,103
63216731,0.1585693359375,0.162841796875,-0.61016845703125,-0.759033203125,-2687,6733,1074,-15,-19,108
63226706,0.1673583984375,0.153076171875,-0.61138916015625,-0.7581787109375,-2353,6705,1119,-13,-19,112
63236689,0.17626953125,0.1431884765625,-0.61260986328125,-0.757080078125,-2049,6662,1151,-12,-18,112
63246673,0.1849365234375,0.13360595703125,-0.6138916015625,-0.7557373046875,-1826,6648,1175,-10,-18,108
63256656,0.19293212890625,0.1246337890625,-0.61505126953125,-0.75433349609375,-1633,6652,1219,-8,-17,102
63266638,0.20050048828125,0.11614990234375,-0.6162109375,-0.7528076171875,-1418,6671,1271,-7,-16,97
63276620,0.20794677734375,0.10772705078125,-0.61737060546875,-0.75103759765625,-1163,6692,1291,-5,-16,97
63286604,0.2159423828125,0.09906005859375,-0.61871337890625,-0.7489013671875,-873,6721,1320,-4,-14,103
63296585,0.2247314453125,0.08984375,-0.6199951171875,-0.74639892578125,-597,6735,1365,-3,-13,111
63306568,0.234130859375,0.08026123046875,-0.621337890625,-0.74346923828125,-348,6744,1389,-3,-12,116
63316551,0.2435302734375,0.0709228515625,-0.62249755859375,-0.74041748046875,-195,6769,1390,-2,-11,114
63326536,0.252197265625,0.062255859375,-0.62359619140625,-0.73736572265625,-82,6781,1396,-1,-10,106
63336519,0.260009765625,0.05438232421875,-0.62457275390625,-0.73443603515625,53,6767,1394,0,-10,97
63346501,0.26739501953125,0.046875,-0.62554931640625,-0.7314453125,253,6734,1408,1,-9,93
63356482,0.27496337890625,0.0391845703125,-0.62646484375,-0.72833251953125,474,6702,1427,2,-9,97
63366466,0.28314208984375,0.031005859375,-0.62738037109375,-0.72479248046875,701,6672,1444,2,-9,104
63376448,0.29193115234375,0.02227783203125,-0.628173828125,-0.720947265625,907,6657,1451,2,-9,111
63386427,0.30096435546875,0.013427734375,-0.62884521484375,-0.71685791015625,1086,6641,1453,2,-8,112
63396420,0.30963134765625,0.00482177734375,-0.62939453125,-0.7127685546875,1254,6591,1451,1,-8,107
63406402,0.31768798828125,-0.00323486328125,-0.62982177734375,-0.70880126953125,1483,6512,1456,2,-8,100
63416384,0.32525634765625,-0.0108642578125,-0.630126953125,-0.70501708984375,1688,6417,1465,1,-8,94
63426360,0.3323974609375,-0.0181884765625,-0.63037109375,-0.7012939453125,1884,6322,1479,1,-7,91
63436344,0.3394775390625,-0.0255126953125,-0.63055419921875,-0.697509765625,2072,6243,1491,2,-8,91
63446326,0.34661865234375,-0.032958984375,-0.630615234375,-0.69366455078125,2249,6195,1511,1,-8,92
63456309,0.3538818359375,-0.04046630859375,-0.630615234375,-0.68963623046875,2436,6125,1532,1,-8,93
63466292,0.361083984375,-0.048095703125,-0.63043212890625,-0.68548583984375,2637,6051,1545,1,-8,93
63476274,0.3681640625,-0.0557861328125,-0.63018798828125,-0.68133544921875,2867,5930,1558,0,-9,92
63486256,0.3751220703125,-0.06341552734375,-0.6298828125,-0.67718505859375,3091,5810,1574,0,-9,90
63496238,0.38165283203125,-0.07073974609375,-0.6295166015625,-0.67315673828125,3234,5711,1594,0,-10,86
63506228,0.38775634765625,-0.07781982421875,-0.629150390625,-0.669189453125,3402,5604,1606,0,-10,82
63516210,0.39361572265625,-0.08465576171875,-0.62872314453125,-0.66534423828125,3581,5497,1612,0,-10,79
63526190,0.39935302734375,-0.091552734375,-0.6282958984375,-0.661376953125,3773,5384,1619,0,-11,79
63536181,0.4051513671875,-0.09857177734375,-0.62786865234375,-0.65728759765625,3986,5264,1619,1,-11,81
63546167,0.41119384765625,-0.10589599609375,-0.6273193359375,-0.65289306640625,4190,5153,1620,1,-11,84
63556148,0.41729736328125,-0.1134033203125,-0.62664794921875,-0.64837646484375,4366,5027,1619,0,-12,86
63566117,0.42333984375,-0.12091064453125,-0.6259765625,-0.6436767578125,4513,4910,1617,1,-12,85
63576100,0.42926025390625,-0.12841796875,-0.62530517578125,-0.63897705078125,4665,4788,1613,1,-13,85
63586083,0.43511962890625,-0.1358642578125,-0.6246337890625,-0.63409423828125,4838,4639,1607,2,-13,85
63596065,0.4410400390625,-0.1434326171875,-0.62396240234375,-0.6290283203125,5023,4508,1603,3,-13,86
63606047,0.447021484375,-0.15087890625,-0.623291015625,-0.62371826171875,5211,4390,1588,5,-13,86
63616028,0.45281982421875,-0.15826416015625,-0.62261962890625,-0.6182861328125,5376,4276,1563,5,-13,85
63626013,0.45849609375,-0.165283203125,-0.62200927734375,-0.61285400390625,5517,4165,1519,6,-13,82
63635995,0.4638671875,-0.1719970703125,-0.62152099609375,-0.60748291015625,5642,4048,1480,8,-12,79
63645985,0.468994140625,-0.1783447265625,-0.62109375,-0.60211181640625,5767,3952,1444,9,-13,75
63655960,0.473876953125,-0.18438720703125,-0.6207275390625,-0.59686279296875,5910,3855,1439,9,-12,72
63665944,0.47857666015625,-0.19012451171875,-0.620361328125,-0.59161376953125,6044,3751,1420,10,-11,69
63675926,0.483154296875,-0.19561767578125,-0.62005615234375,-0.58642578125,6192,3677,1405,11,-11,68
63685909,0.48779296875,-0.20098876953125,-0.61956787109375,-0.58123779296875,6338,3607,1392,11,-9,68
63695892,0.49261474609375,-0.206298828125,-0.61907958984375,-0.57586669921875,6492,3523,1368,11,-8,70
63705874,0.4976806640625,-0.21173095703125,-0.6182861328125,-0.5703125,6658,3434,1338,11,-6,73
63715856,0.503173828125,-0.21734619140625,-0.61724853515625,-0.56451416015625,6814,3336,1318,11,-5,77
63725838,0.50885009765625,-0.2230224609375,-0.615966796875,-0.55853271484375,6961,3234,1280,12,-3,78
63735818,0.51458740234375,-0.228515625,-0.6146240234375,-0.55255126953125,7116,3133,1271,12,-1,77
63745806,0.52020263671875,-0.233642578125,-0.6131591796875,-0.5467529296875,7217,3024,1256,12,0,74
63755786,0.52557373046875,-0.23828125,-0.6116943359375,-0.54119873046875,7310,2911,1248,12,2,70
63765765,0.53082275390625,-0.24249267578125,-0.61016845703125,-0.53582763671875,7386,2808,1249,12,3,66
63775756,0.53594970703125,-0.24639892578125,-0.608642578125,-0.53070068359375,7428,2695,1231,13,4,63
63785741,0.54083251953125,-0.24993896484375,-0.60723876953125,-0.52569580078125,7460,2557,1209,13,4,60
63795715,0.54541015625,-0.253173828125,-0.60595703125,-0.5208740234375,7484,2417,1169,14,4,55
63805699,0.549560546875,-0.255859375,-0.6048583984375,-0.51641845703125,7529,2306,1149,14,4,47
63815679,0.5531005859375,-0.25787353515625,-0.60406494140625,-0.5125732421875,7570,2224,1171,14,4,39
63825662,0.55609130859375,-0.25921630859375,-0.603515625,-0.50933837890625,7602,2162,1181,14,4,30
63835645,0.55859375,-0.260009765625,-0.6031494140625,-0.506591796875,7659,2119,1187,14,4,23
63845629,0.560791015625,-0.26055908203125,-0.6029052734375,-0.504150390625,7667,2087,1182,13,4,21
63855610,0.56292724609375,-0.2611083984375,-0.6026611328125,-0.50177001953125,7661,2061,1146,12,4,20
63865593,0.56500244140625,-0.2618408203125,-0.6024169921875,-0.4993896484375,7660,2046,1107,11,3,21
63875576,0.56689453125,-0.2625732421875,-0.6021728515625,-0.4970703125,7655,2030,1068,11,2,20
63885559,0.56854248046875,-0.26318359375,-0.60205078125,-0.49505615234375,7658,2032,1046,9,2,16
63895540,0.56976318359375,-0.26348876953125,-0.60205078125,-0.49346923828125,7654,2048,1009,8,1,11
63905524,0.57049560546875,-0.26336669921875,-0.60223388671875,-0.49249267578125,7654,2044,990,7,1,3
63915502,0.57073974609375,-0.262939453125,-0.60260009765625,-0.491943359375,7668,2078,949,6,1,-2
63925482,0.57073974609375,-0.26226806640625,-0.60302734375,-0.4918212890625,7674,2128,932,5,0,-6
63935463,0.57049560546875,-0.26153564453125,-0.603515625,-0.491943359375,7665,2191,914,3,0,-8
63945446,0.5699462890625,-0.26068115234375,-0.60400390625,-0.49237060546875,7621,2269,889,2,0,-10
63955428,0.56915283203125,-0.2596435546875,-0.60455322265625,-0.4931640625,7547,2359,871,0,-1,-14
63965418,0.56793212890625,-0.25836181640625,-0.60528564453125,-0.494384765625,7466,2451,854,-1,-1,-19
63975401,0.56640625,-0.25689697265625,-0.6060791015625,-0.49591064453125,7408,2551,832,-1,-2,-21
63985373,0.56475830078125,-0.2554931640625,-0.60699462890625,-0.4974365234375,7386,2646,801,-2,-3,-22
63995357,0.56304931640625,-0.25433349609375,-0.60784912109375,-0.4989013671875,7389,2762,767,-3,-4,-19
64005344,0.5614013671875,-0.25341796875,-0.608642578125,-0.500244140625,7402,2867,734,-4,-5,-17
64015321,0.55975341796875,-0.25274658203125,-0.609375,-0.50146484375,7428,2970,704,-5,-5,-15
64025305,0.55810546875,-0.2520751953125,-0.61016845703125,-0.502685546875,7457,3065,702,-5,-6,-15
64035287,0.55645751953125,-0.25140380859375,-0.61090087890625,-0.5040283203125,7496,3155,717,-5,-6,-16
64045269,0.55474853515625,-0.250732421875,-0.611572265625,-0.50537109375,7529,3228,724,-6,-6,-16
64057989,0.5531005859375,-0.250244140625,-0.61224365234375,-0.506591796875,7572,3274,732,-5,-6,-14
64065233,0.55181884765625,-0.25,-0.61273193359375,-0.50750732421875,7636,3311,783,-6,-5,-9
64075224,0.55096435546875,-0.25018310546875,-0.61297607421875,-0.508056640625,7721,3354,797,-5,-5,-3
64085209,0.55047607421875,-0.25079345703125,-0.613037109375,-0.50823974609375,7826,3384,818,-5,-4,3
64095186,0.55035400390625,-0.25164794921875,-0.61285400390625,-0.5081787109375,7926,3417,851,-5,-3,7
64105179,0.550537109375,-0.25262451171875,-0.61248779296875,-0.5079345703125,8019,3429,894,-5,-2,8
64115167,0.5506591796875,-0.2532958984375,-0.612060546875,-0.5079345703125,8061,3440,939,-5,0,5
64125149,0.55072021484375,-0.2535400390625,-0.6116943359375,-0.50830078125,8097,3431,992,-5,1,0
64135115,0.55047607421875,-0.2532958984375,-0.61138916015625,-0.509033203125,8124,3432,1031,-5,3,-5
64145096,0.55010986328125,-0.2525634765625,-0.611083984375,-0.51007080078125,8142,3410,1060,-5,4,-9
64155078,0.5496826171875,-0.25164794921875,-0.61083984375,-0.5113525390625,8128,3376,1077,-5,5,-11
64165061,0.5494384765625,-0.25067138671875,-0.6104736328125,-0.51251220703125,8103,3333,1082,-4,7,-10
64175044,0.54949951171875,-0.24993896484375,-0.60992431640625,-0.51348876953125,8054,3263,1101,-4,8,-5
64185033,0.54998779296875,-0.24951171875,-0.60906982421875,-0.51409912109375,8006,3191,1118,-4,9,0
64195011,0.55096435546875,-0.24945068359375,-0.6080322265625,-0.51434326171875,7933,3132,1140,-4,10,5
64204993,0.55206298828125,-0.24951171875,-0.60693359375,-0.514404296875,7860,3070,1173,-3,10,7
64214982,0.55328369140625,-0.24951171875,-0.60577392578125,-0.51446533203125,7779,3027,1191,-3,10,7
64224960,0.554443359375,-0.24945068359375,-0.604736328125,-0.5145263671875,7713,2970,1205,-2,10,5
64234943,0.55560302734375,-0.249267578125,-0.60369873046875,-0.51458740234375,7658,2908,1228,-2,11,5
64244923,0.55670166015625,-0.2490234375,-0.6026611328125,-0.51470947265625,7628,2860,1243,-2,11,4
64254906,0.55780029296875,-0.24871826171875,-0.6016845703125,-0.5147705078125,7584,2807,1260,-1,10,3
64264889,0.55877685546875,-0.2481689453125,-0.600830078125,-0.5150146484375,7528,2738,1271,-1,11,0
64274872,0.5594482421875,-0.2474365234375,-0.60003662109375,-0.51556396484375,7457,2685,1298,-1,10,-4
64284857,0.55987548828125,-0.246337890625,-0.5994873046875,-0.5162353515625,7376,2629,1308,0,10,-8
64294837,0.56011962890625,-0.2452392578125,-0.5989990234375,-0.51708984375,7309,2567,1324,0,9,-9
64304819,0.560302734375,-0.244140625,-0.59857177734375,-0.517822265625,7258,2528,1339,0,8,-8
64314804,0.56048583984375,-0.2431640625,-0.5982666015625,-0.5185546875,7176,2495,1343,0,7,-8
64324788,0.560546875,-0.24224853515625,-0.5980224609375,-0.51922607421875,7106,2466,1365,-1,5,-9
64334767,0.56036376953125,-0.24114990234375,-0.597900390625,-0.52001953125,7053,2445,1382,0,4,-12
64344757,0.559814453125,-0.239990234375,-0.59796142578125,-0.52105712890625,7026,2434,1399,0,3,-16
64354740,0.55889892578125,-0.23846435546875,-0.59820556640625,-0.52239990234375,7009,2433,1419,-1,2,-20
64364717,0.55767822265625,-0.23675537109375,-0.59869384765625,-0.52398681640625,7012,2438,1442,0,1,-24
64374699,0.55621337890625,-0.2349853515625,-0.59930419921875,-0.525634765625,7025,2451,1452,0,0,-26
64384681,0.5545654296875,-0.2330322265625,-0.60003662109375,-0.52740478515625,7042,2464,1459,0,-1,-28
64394660,0.5528564453125,-0.23114013671875,-0.600830078125,-0.52911376953125,7081,2469,1460,0,-2,-28
64404644,0.5511474609375,-0.22930908203125,-0.60162353515625,-0.53082275390625,7120,2465,1473,1,-2,-28
64414629,0.54937744140625,-0.2274169921875,-0.6024169921875,-0.53253173828125,7170,2499,1493,1,-2,-29
64424609,0.54754638671875,-0.2254638671875,-0.603271484375,-0.53424072265625,7222,2547,1507,1,-2,-30
64434593,0.54571533203125,-0.22344970703125,-0.60418701171875,-0.5360107421875,7310,2607,1496,1,-1,-31
64444575,0.54388427734375,-0.22137451171875,-0.60504150390625,-0.53778076171875,7379,2674,1480,1,-1,-30
64454562,0.54205322265625,-0.2191162109375,-0.60589599609375,-0.53955078125,7418,2722,1451,2,0,-31
64464542,0.54022216796875,-0.21673583984375,-0.606689453125,-0.54144287109375,7442,2766,1431,2,1,-33
64474527,0.53839111328125,-0.2142333984375,-0.6075439453125,-0.5433349609375,7456,2787,1399,2,1,-34
64484508,0.53643798828125,-0.2115478515625,-0.6083984375,-0.54534912109375,7436,2833,1368,2,2,-36
64494492,0.53436279296875,-0.20849609375,-0.60931396484375,-0.5474853515625,7393,2918,1353,3,3,-39
64504473,0.53204345703125,-0.205078125,-0.61029052734375,-0.54998779296875,7328,3010,1346,3,4,-44
64514457,0.5294189453125,-0.20111083984375,-0.611328125,-0.55279541015625,7233,3113,1314,3,5,-49
64524443,0.52655029296875,-0.1966552734375,-0.61248779296875,-0.555908203125,7139,3208,1289,3,6,-53
64534428,0.5234375,-0.19189453125,-0.6136474609375,-0.55914306640625,7027,3266,1265,4,7,-57
64544410,0.52020263671875,-0.186767578125,-0.61480712890625,-0.5626220703125,6894,3326,1256,5,7,-59
64554393,0.51690673828125,-0.18157958984375,-0.61602783203125,-0.56597900390625,6757,3381,1237,5,7,-59
64564370,0.51361083984375,-0.17633056640625,-0.61724853515625,-0.5693359375,6614,3480,1227,6,7,-59
64574353,0.51025390625,-0.1710205078125,-0.6185302734375,-0.5726318359375,6469,3604,1238,6,7,-58
64584335,0.50677490234375,-0.16552734375,-0.6197509765625,-0.575927734375,6331,3737,1249,7,7,-60
64594319,0.503173828125,-0.15997314453125,-0.62103271484375,-0.57928466796875,6195,3834,1268,7,7,-62
64604301,0.49932861328125,-0.15411376953125,-0.6224365234375,-0.58270263671875,6082,3907,1253,8,6,-65
64614287,0.49530029296875,-0.148193359375,-0.62396240234375,-0.5860595703125,5996,3945,1255,9,5,-66
64624266,0.49127197265625,-0.14239501953125,-0.62542724609375,-0.5892333984375,5929,3998,1266,9,5,-64
64634250,0.487548828125,-0.1368408203125,-0.6268310546875,-0.5921630859375,5838,4072,1282,10,5,-60
64644238,0.48388671875,-0.1314697265625,-0.6282958984375,-0.59490966796875,5737,4171,1279,10,4,-58
64654220,0.47991943359375,-0.1258544921875,-0.62982177734375,-0.59765625,5627,4280,1291,11,3,-62
64664204,0.4755859375,-0.1197509765625,-0.63140869140625,-0.60076904296875,5540,4385,1312,12,3,-69
64674183,0.4705810546875,-0.11309814453125,-0.6331787109375,-0.6041259765625,5462,4470,1313,12,3,-76
64684174,0.46514892578125,-0.1058349609375,-0.63494873046875,-0.60772705078125,5412,4522,1322,13,3,-82
64694157,0.45953369140625,-0.09844970703125,-0.63671875,-0.611328125,5355,4573,1339,13,3,-83
64704134,0.45404052734375,-0.0911865234375,-0.638427734375,-0.61480712890625,5246,4649,1335,14,3,-80
64714112,0.44873046875,-0.083984375,-0.64007568359375,-0.61798095703125,5118,4763,1320,15,4,-78
64724094,0.44342041015625,-0.0767822265625,-0.6417236328125,-0.62109375,4964,4902,1299,15,4,-77
64734078,0.43792724609375,-0.0693359375,-0.643310546875,-0.6241455078125,4811,5027,1292,15,4,-80
64744060,0.43212890625,-0.06158447265625,-0.64495849609375,-0.62738037109375,4684,5137,1278,16,4,-84
64754044,0.42596435546875,-0.05352783203125,-0.64654541015625,-0.63067626953125,4610,5232,1267,16,4,-88
64764024,0.4197998046875,-0.04541015625,-0.64801025390625,-0.6339111328125,4554,5321,1271,16,5,-87
64774007,0.41387939453125,-0.03753662109375,-0.6492919921875,-0.63702392578125,4428,5447,1266,16,6,-83
64783990,0.40814208984375,-0.02960205078125,-0.6505126953125,-0.639892578125,4260,5593,1222,15,7,-81
64793979,0.4024658203125,-0.02178955078125,-0.651611328125,-0.64263916015625,4086,5711,1176,15,7,-80
64803956,0.39678955078125,-0.013916015625,-0.65264892578125,-0.64532470703125,3930,5832,1140,15,7,-81
64813939,0.390869140625,-0.005859375,-0.653564453125,-0.64813232421875,3799,5949,1116,15,8,-83
64823920,0.3848876953125,0.00213623046875,-0.65435791015625,-0.65093994140625,3671,6062,1106,14,8,-83
64833903,0.37896728515625,0.01019287109375,-0.65496826171875,-0.65374755859375,3498,6205,1082,13,9,-83
64843885,0.37298583984375,0.01824951171875,-0.6553955078125,-0.65655517578125,3272,6357,1048,12,9,-82
64853871,0.36688232421875,0.02642822265625,-0.65576171875,-0.65936279296875,3035,6485,998,12,9,-83
64863852,0.36053466796875,0.0347900390625,-0.656005859375,-0.66217041015625,2803,6598,961,11,9,-84
64873833,0.35400390625,0.043212890625,-0.6561279296875,-0.66510009765625,2638,6676,959,10,8,-87
64883816,0.34716796875,0.05169677734375,-0.656005859375,-0.668212890625,2463,6761,951,9,8,-90
64893798,0.33990478515625,0.0604248046875,-0.65576171875,-0.67144775390625,2253,6865,921,8,7,-94
64903782,0.33209228515625,0.0694580078125,-0.6553955078125,-0.6748046875,2064,6954,883,7,6,-99
64913761,0.3238525390625,0.0787353515625,-0.65484619140625,-0.6783447265625,1854,7026,869,7,6,-103
64923753,0.3153076171875,0.08819580078125,-0.6541748046875,-0.681884765625,1637,7050,840,7,5,-104
64933735,0.30670166015625,0.09747314453125,-0.65338134765625,-0.685302734375,1474,7029,837,6,4,-104
64943712,0.298095703125,0.10638427734375,-0.6524658203125,-0.6885986328125,1341,7007,847,6,3,-101
64953694,0.289794921875,0.11474609375,-0.65155029296875,-0.691650390625,1197,6991,857,5,1,-97
64963678,0.28173828125,0.12261962890625,-0.65057373046875,-0.694580078125,1029,7008,835,5,0,-92
64973661,0.27362060546875,0.1302490234375,-0.64959716796875,-0.69732666015625,837,7061,816,4,-2,-91
64983641,0.26519775390625,0.1380615234375,-0.6485595703125,-0.70001220703125,623,7138,793,5,-1,-95
64993623,0.2562255859375,0.14630126953125,-0.6473388671875,-0.70281982421875,446,7203,777,5,-2,-101
65003607,0.24664306640625,0.15509033203125,-0.6458740234375,-0.7056884765625,330,7222,798,6,-2,-108
65013588,0.23681640625,0.1639404296875,-0.6441650390625,-0.7086181640625,244,7235,832,4,-2,-111
65023571,0.22698974609375,0.1727294921875,-0.64227294921875,-0.71148681640625,149,7256,838,4,-2,-109
65033553,0.21728515625,0.181396484375,-0.64019775390625,-0.7142333984375,-53,7337,836,3,-1,-109
65043536,0.207275390625,0.1903076171875,-0.63787841796875,-0.7169189453125,-340,7443,812,2,-1,-111
65053523,0.19683837890625,0.19964599609375,-0.63531494140625,-0.7196044921875,-592,7519,798,2,0,-116
65063501,0.18621826171875,0.20916748046875,-0.63250732421875,-0.72222900390625,-744,7522,803,2,0,-119
65073485,0.17572021484375,0.218505859375,-0.6295166015625,-0.72467041015625,-785,7463,837,1,1,-117
65083465,0.16583251953125,0.227294921875,-0.62640380859375,-0.72698974609375,-863,7405,886,0,1,-112
65093448,0.15625,0.23583984375,-0.62310791015625,-0.72918701171875,-1144,7416,870,-1,1,-108
65103424,0.1463623046875,0.24468994140625,-0.61968994140625,-0.73126220703125,-1497,7453,825,-2,2,-112
65113419,0.1358642578125,0.25408935546875,-0.61590576171875,-0.73333740234375,-1841,7465,793,-2,2,-118
65123399,0.12493896484375,0.26373291015625,-0.61175537109375,-0.73529052734375,-2034,7437,809,-2,3,-123
65133383,0.11407470703125,0.27337646484375,-0.607421875,-0.73712158203125,-2118,7359,850,-3,4,-123
65143358,0.103759765625,0.2825927734375,-0.60296630859375,-0.73883056640625,-2205,7278,894,-3,4,-118
65153344,0.09368896484375,0.2916259765625,-0.598388671875,-0.74041748046875,-2506,7289,898,-5,5,-116
65163323,0.083251953125,0.30108642578125,-0.593505859375,-0.7418212890625,-2930,7343,858,-5,5,-121
65173305,0.07183837890625,0.31134033203125,-0.5880126953125,-0.74310302734375,-3361,7404,813,-5,6,-132
65183291,0.0595703125,0.32220458984375,-0.58209228515625,-0.7442626953125,-3677,7406,784,-5,6,-140
65193270,0.047119140625,0.33306884765625,-0.57586669921875,-0.74517822265625,-3833,7386,802,-5,7,-142
65203254,0.03521728515625,0.343505859375,-0.569580078125,-0.74591064453125,-3941,7336,829,-6,7,-137
65213234,0.024169921875,0.35333251953125,-0.5634765625,-0.74639892578125,-4111,7309,858,-7,8,-128
65223225,0.01385498046875,0.36279296875,-0.55731201171875,-0.74676513671875,-4417,7317,875,-8,10,-122
65233207,0.00360107421875,0.37225341796875,-0.55096435546875,-0.74688720703125,-4842,7329,872,-9,11,-123
65243189,-0.00714111328125,0.38232421875,-0.54425048828125,-0.74676513671875,-5225,7319,850,-8,12,-131
65253178,-0.0184326171875,0.3927001953125,-0.53704833984375,-0.746337890625,-5410,7262,850,-8,13,-138
65263167,-0.02972412109375,0.40313720703125,-0.52972412109375,-0.74566650390625,-5384,7156,867,-9,14,-138
65273148,-0.0401611328125,0.4129638671875,-0.5224609375,-0.74493408203125,-5298,7043,937,-10,16,-131
65283117,-0.04931640625,0.42205810546875,-0.51556396484375,-0.744140625,-5343,6957,994,-11,18,-119
65293100,-0.0574951171875,0.43072509765625,-0.5087890625,-0.7431640625,-5581,6938,1016,-13,19,-111
65303081,-0.0654296875,0.43951416015625,-0.501953125,-0.7420654296875,-5900,6898,1032,-14,21,-112
65313066,-0.073486328125,0.448486328125,-0.49468994140625,-0.7408447265625,-6129,6795,1040,-16,22,-115
65323047,-0.08172607421875,0.457763671875,-0.4869384765625,-0.7393798828125,-6250,6625,1046,-17,24,-120
65333031,-0.08990478515625,0.46710205078125,-0.47894287109375,-0.73785400390625,-6288,6422,1050,-19,24,-120
65343013,-0.09771728515625,0.47625732421875,-0.47076416015625,-0.73626708984375,-6360,6234,1040,-21,25,-118
65352995,-0.10498046875,0.48529052734375,-0.4625244140625,-0.73455810546875,-6544,6102,1002,-23,26,-114
65362984,-0.11199951171875,0.4942626953125,-0.4541015625,-0.7327880859375,-6894,6002,951,-25,27,-114
65372960,-0.11920166015625,0.5035400390625,-0.44525146484375,-0.73077392578125,-7302,5899,875,-27,28,-118
65382942,-0.12677001953125,0.51324462890625,-0.43585205078125,-0.72845458984375,-7617,5730,805,-27,29,-125
65392925,-0.1346435546875,0.52313232421875,-0.42596435546875,-0.725830078125,-7752,5504,761,-28,31,-129
65402907,-0.14239501953125,0.5330810546875,-0.41583251953125,-0.72296142578125,-7761,5229,729,-29,32,-130
65412890,-0.149658203125,0.5428466796875,-0.40576171875,-0.719970703125,-7746,4919,699,-31,34,-125
65422873,-0.156005859375,0.55218505859375,-0.39593505859375,-0.7169189453125,-7772,4613,648,-32,35,-116
65432855,-0.161376953125,0.56109619140625,-0.3865966796875,-0.71392822265625,-7938,4344,596,-33,35,-106
65442839,-0.16607666015625,0.569580078125,-0.37762451171875,-0.7109375,-8171,4098,539,-34,36,-100
65452821,-0.1705322265625,0.57781982421875,-0.36865234375,-0.70794677734375,-8381,3844,485,-34,34,-98
65462803,-0.1749267578125,0.58575439453125,-0.35968017578125,-0.7049560546875,-8526,3555,440,-34,33,-96
65472787,-0.1793212890625,0.59344482421875,-0.3505859375,-0.70196533203125,-8605,3244,379,-35,31,-96
65482768,-0.183837890625,0.60089111328125,-0.34130859375,-0.69903564453125,-8666,2936,314,-35,28,-96
65492760,-0.1885986328125,0.60809326171875,-0.331787109375,-0.69610595703125,-8800,2665,249,-35,26,-99
65502742,-0.1937255859375,0.61517333984375,-0.32196044921875,-0.693115234375,-9048,2452,197,-33,24,-103
65512718,-0.1995849609375,0.62213134765625,-0.31158447265625,-0.68994140625,-9358,2239,135,-32,21,-111
65522700,-0.20623779296875,0.6290283203125,-0.3006591796875,-0.68658447265625,-9654,1995,58,-31,19,-117
65532684,-0.2132568359375,0.6357421875,-0.2894287109375,-0.68310546875,-9870,1719,-9,-30,16,-119
65542668,-0.2203369140625,0.641845703125,-0.2784423828125,-0.6796875,-9992,1453,-72,-28,14,-115
65552649,-0.226806640625,0.6473388671875,-0.26806640625,-0.676513671875,-10019,1177,-120,-26,11,-106
65562632,-0.23248291015625,0.652099609375,-0.25872802734375,-0.6737060546875,-9958,905,-183,-25,8,-92
65572615,-0.237060546875,0.65606689453125,-0.25054931640625,-0.67132568359375,-9860,720,-199,-23,7,-78
65582597,-0.24066162109375,0.65936279296875,-0.24346923828125,-0.66937255859375,-9718,632,-167,-23,6,-67
65592579,-0.24365234375,0.66229248046875,-0.23699951171875,-0.667724609375,-9580,617,-85,-22,6,-62
65602563,-0.24652099609375,0.6651611328125,-0.2308349609375,-0.666015625,-9444,630,3,-21,7,-62
65612544,-0.24951171875,0.6680908203125,-0.22442626953125,-0.6641845703125,-9321,635,101,-22,8,-66
65622526,-0.2528076171875,0.67120361328125,-0.2176513671875,-0.6619873046875,-9217,595,155,-22,10,-71
65632510,-0.25634765625,0.674560546875,-0.21044921875,-0.6595458984375,-9155,522,164,-23,11,-75
65642490,-0.2598876953125,0.67816162109375,-0.20306396484375,-0.65679931640625,-9110,408,143,-24,13,-76
65652474,-0.26336669921875,0.68182373046875,-0.195556640625,-0.65386962890625,-9081,249,102,-25,14,-76
65662458,-0.26666259765625,0.68548583984375,-0.18817138671875,-0.65081787109375,-9042,72,81,-25,16,-74
65672443,-0.269775390625,0.689208984375,-0.1810302734375,-0.647705078125,-8985,-75,102,-25,18,-71
65682427,-0.27252197265625,0.6927490234375,-0.17431640625,-0.64453125,-8943,-230,132,-24,19,-67
65692409,-0.27508544921875,0.6962890625,-0.16802978515625,-0.64129638671875,-8929,-370,174,-22,21,-64
65702392,-0.27740478515625,0.69970703125,-0.16229248046875,-0.6380615234375,-8941,-505,257,-20,23,-60
65712387,-0.2796630859375,0.7030029296875,-0.1572265625,-0.634765625,-8987,-635,326,-17,24,-55
65722359,-0.28167724609375,0.7060546875,-0.15289306640625,-0.6314697265625,-9067,-771,393,-14,26,-49
65732344,-0.283447265625,0.70892333984375,-0.149658203125,-0.6282958984375,-9148,-896,469,-9,27,-40
65742324,-0.28466796875,0.71136474609375,-0.147705078125,-0.62542724609375,-9256,-993,553,-5,28,-28
65752300,-0.28521728515625,0.71331787109375,-0.1473388671875,-0.62298583984375,-9359,-1045,640,-1,28,-14
65762287,-0.28515625,0.71484375,-0.14849853515625,-0.6209716796875,-9473,-1082,709,4,27,-1
65772266,-0.28448486328125,0.71588134765625,-0.1510009765625,-0.6195068359375,-9590,-1072,736,8,26,12
65782249,-0.28326416015625,0.71649169921875,-0.1546630859375,-0.61846923828125,-9691,-1047,737,11,24,22
65792235,-0.28173828125,0.71661376953125,-0.15911865234375,-0.61785888671875,-9818,-1007,704,13,21,29
65802220,-0.280029296875,0.71636962890625,-0.16400146484375,-0.61767578125,-9928,-959,659,15,17,33
65812201,-0.27825927734375,0.7156982421875,-0.1690673828125,-0.61785888671875,-9981,-883,559,16,13,35
65822181,-0.27642822265625,0.7147216796875,-0.174072265625,-0.61846923828125,-10000,-775,439,15,8,36
65832174,-0.27459716796875,0.71343994140625,-0.17889404296875,-0.619384765625,-9972,-654,327,14,3,35
65842151,-0.27288818359375,0.7117919921875,-0.18316650390625,-0.6207275390625,-9906,-515,227,12,-2,32
65852120,-0.27142333984375,0.7100830078125,-0.18670654296875,-0.622314453125,-9773,-373,134,10,-7,27
65862100,-0.27020263671875,0.70831298828125,-0.1893310546875,-0.62408447265625,-9615,-232,50,6,-11,20
65872082,-0.269287109375,0.70654296875,-0.19091796875,-0.62603759765625,-9432,-103,-29,2,-15,13
65882067,-0.2686767578125,0.704833984375,-0.19140625,-0.62799072265625,-9240,12,-93,-2,-18,5
65892050,-0.26824951171875,0.70330810546875,-0.19085693359375,-0.63006591796875,-9020,109,-119,-6,-20,-3
65902030,-0.26806640625,0.701904296875,-0.1893310546875,-0.63214111328125,-8770,194,-110,-10,-21,-9
65912011,-0.26788330078125,0.70068359375,-0.18701171875,-0.63427734375,-8529,247,-68,-16,-23,-13
65921993,-0.26751708984375,0.69964599609375,-0.18402099609375,-0.636474609375,-8296,275,-28,-20,-22,-15
65931981,-0.26690673828125,0.69879150390625,-0.18060302734375,-0.63861083984375,-8107,255,3,-25,-22,-16
65941957,-0.26593017578125,0.6982421875,-0.1767578125,-0.6407470703125,-7973,197,-8,-29,-21,-16
65951940,-0.26458740234375,0.69793701171875,-0.1727294921875,-0.6427001953125,-7866,111,-29,-32,-19,-16
65961927,-0.26287841796875,0.6978759765625,-0.16851806640625,-0.64459228515625,-7792,8,-80,-36,-18,-15
65971910,-0.2608642578125,0.69805908203125,-0.1641845703125,-0.64630126953125,-7758,-128,-152,-38,-16,-14
65981894,-0.258544921875,0.69854736328125,-0.1597900390625,-0.6478271484375,-7762,-281,-226,-40,-13,-12
65991875,-0.25592041015625,0.6990966796875,-0.155517578125,-0.6492919921875,-7800,-446,-293,-41,-12,-10
66001859,-0.25299072265625,0.6998291015625,-0.1513671875,-0.65069580078125,-7872,-606,-353,-42,-10,-7
66011841,-0.2498779296875,0.7005615234375,-0.14739990234375,-0.6519775390625,-7964,-758,-413,-42,-9,-5
66021821,-0.24664306640625,0.701416015625,-0.14361572265625,-0.65313720703125,-8057,-897,-487,-42,-8,-4
66031805,-0.243408203125,0.70220947265625,-0.139892578125,-0.654296875,-8169,-1008,-564,-41,-9,-3
66041789,-0.240234375,0.7030029296875,-0.13623046875,-0.6553955078125,-8265,-1115,-627,-40,-9,-3
66051778,-0.23724365234375,0.70367431640625,-0.1326904296875,-0.656494140625,-8327,-1200,-680,-39,-9,-3
66061761,-0.23431396484375,0.70428466796875,-0.129150390625,-0.6575927734375,-8364,-1267,-700,-38,-10,-3
66071742,-0.2314453125,0.7047119140625,-0.1258544921875,-0.6588134765625,-8381,-1331,-728,-37,-11,-1
66081733,-0.2286376953125,0.7049560546875,-0.12274169921875,-0.66009521484375,-8376,-1390,-728,-34,-12,0
66091705,-0.22589111328125,0.705078125,-0.119873046875,-0.66143798828125,-8334,-1444,-721,-33,-13,2
66101687,-0.22320556640625,0.70501708984375,-0.11724853515625,-0.66290283203125,-8274,-1493,-712,-31,-13,3
66111669,-0.22064208984375,0.704833984375,-0.11480712890625,-0.66436767578125,-8219,-1547,-678,-29,-14,4
66121653,-0.21832275390625,0.70458984375,-0.11248779296875,-0.66583251953125,-8156,-1595,-650,-27,-14,3
66131634,-0.21630859375,0.7042236328125,-0.1102294921875,-0.66717529296875,-8085,-1647,-625,-24,-14,2
66141618,-0.21466064453125,0.70379638671875,-0.10797119140625,-0.66851806640625,-8007,-1692,-568,-22,-14,0
66151601,-0.21337890625,0.703369140625,-0.1058349609375,-0.66973876953125,-7930,-1713,-515,-19,-13,-2
66161580,-0.21234130859375,0.70294189453125,-0.103759765625,-0.67083740234375,-7846,-1715,-447,-17,-13,-3
66171562,-0.21160888671875,0.70257568359375,-0.10174560546875,-0.6717529296875,-7768,-1706,-383,-15,-12,-4
66181544,-0.2110595703125,0.7021484375,-0.09991455078125,-0.67266845703125,-7701,-1688,-284,-13,-11,-5
66191528,-0.21063232421875,0.7017822265625,-0.09820556640625,-0.6734619140625,-7649,-1674,-206,-12,-9,-4
66201509,-0.21026611328125,0.701416015625,-0.0966796875,-0.67413330078125,-7617,-1667,-122,-11,-8,-4
66211495,-0.2099609375,0.701171875,-0.09539794921875,-0.6746826171875,-7595,-1659,-45,-10,-6,-3
66221475,-0.2095947265625,0.700927734375,-0.09423828125,-0.6751708984375,-7578,-1641,37,-9,-5,-3
66231459,-0.209228515625,0.70074462890625,-0.09320068359375,-0.6756591796875,-7578,-1638,103,-8,-4,-1
66241443,-0.208740234375,0.70062255859375,-0.09234619140625,-0.67608642578125,-7589,-1626,173,-8,-3,-1
66251432,-0.20831298828125,0.7005615234375,-0.091552734375,-0.67633056640625,-7606,-1624,217,-8,-2,-1
66261415,-0.20782470703125,0.7005615234375,-0.09075927734375,-0.67657470703125,-7658,-1620,255,-8,-1,-1
66271394,-0.2073974609375,0.70068359375,-0.0899658203125,-0.6767578125,-7720,-1610,261,-8,-1,-2
66281375,-0.20703125,0.7008056640625,-0.089111328125,-0.67681884765625,-7782,-1617,266,-8,0,-2
66291356,-0.2066650390625,0.70098876953125,-0.08831787109375,-0.67681884765625,-7838,-1626,260,-7,0,-2
66301344,-0.20623779296875,0.701171875,-0.0875244140625,-0.6768798828125,-7882,-1664,250,-8,0,-1
66311327,-0.205810546875,0.70135498046875,-0.08685302734375,-0.67694091796875,-7909,-1692,229,-7,0,0
66321306,-0.205322265625,0.70147705078125,-0.0863037109375,-0.677001953125,-7933,-1725,219,-7,0,0
66331293,-0.2049560546875,0.70159912109375,-0.08575439453125,-0.67706298828125,-7964,-1756,190,-6,0,0
66341278,-0.2047119140625,0.70172119140625,-0.085205078125,-0.67706298828125,-8006,-1780,161,-5,-1,-1
66351254,-0.2047119140625,0.7017822265625,-0.08465576171875,-0.6771240234375,-8026,-1792,127,-3,-1,-2
66361232,-0.204833984375,0.70184326171875,-0.0841064453125,-0.67706298828125,-8039,-1807,97,-3,-1,-4
66371220,-0.20526123046875,0.701904296875,-0.08355712890625,-0.67694091796875,-8043,-1810,70,-1,-1,-5
66381208,-0.205810546875,0.701904296875,-0.08294677734375,-0.67681884765625,-8027,-1816,50,0,-1,-6
