subject,Joshua Spiesman
arm,left
label,1
hz,100.17163209922353
time,4.252701

timestamp_us,q0,q1,q2,q3,ax,ay,az,gx,gy,gz
61251866,0.533203125,-0.50555419921875,-0.57342529296875,-0.3624267578125,8001,-977,-1469,7,-1,4
61261850,0.5338134765625,-0.50531005859375,-0.5736083984375,-0.361572265625,7945,-973,-1470,8,-1,3
61271828,0.53436279296875,-0.5050048828125,-0.57379150390625,-0.36077880859375,7906,-965,-1459,7,-1,2
61281810,0.534912109375,-0.504638671875,-0.5740966796875,-0.360107421875,7863,-950,-1448,8,-1,1
61291794,0.5352783203125,-0.50421142578125,-0.57452392578125,-0.3594970703125,7834,-942,-1436,7,-2,0
61301773,0.53564453125,-0.50372314453125,-0.57501220703125,-0.35894775390625,7802,-939,-1417,7,-2,-1
61311762,0.535888671875,-0.503173828125,-0.5755615234375,-0.35833740234375,7776,-937,-1407,7,-2,-2
61321747,0.53619384765625,-0.50262451171875,-0.57611083984375,-0.3577880859375,7760,-940,-1395,7,-3,-2
61331723,0.53643798828125,-0.50213623046875,-0.57666015625,-0.35723876953125,7728,-943,-1390,7,-3,-2
61341705,0.53662109375,-0.501708984375,-0.5772705078125,-0.3565673828125,7725,-953,-1373,7,-4,-2
61351690,0.536865234375,-0.501220703125,-0.577880859375,-0.35595703125,7719,-952,-1363,7,-3,-1
61361672,0.53704833984375,-0.5008544921875,-0.57843017578125,-0.35528564453125,7726,-944,-1365,7,-4,-1
61371659,0.53717041015625,-0.5006103515625,-0.5789794921875,-0.3544921875,7750,-950,-1361,7,-5,0
61381640,0.53741455078125,-0.50042724609375,-0.5794677734375,-0.35357666015625,7775,-955,-1345,7,-5,2
61391621,0.53765869140625,-0.50042724609375,-0.57989501953125,-0.35260009765625,7795,-958,-1350,6,-6,3
61401606,0.53790283203125,-0.50054931640625,-0.5802001953125,-0.3514404296875,7814,-952,-1342,6,-6,5
61411588,0.53814697265625,-0.500732421875,-0.58050537109375,-0.35028076171875,7837,-949,-1354,6,-6,6
61421572,0.538330078125,-0.5009765625,-0.580810546875,-0.34906005859375,7866,-961,-1368,6,-7,6
61431555,0.53851318359375,-0.501220703125,-0.5811767578125,-0.34796142578125,7900,-982,-1385,6,-7,5
61441542,0.53863525390625,-0.50140380859375,-0.58154296875,-0.34686279296875,7947,-993,-1391,5,-7,4
61451519,0.5386962890625,-0.50152587890625,-0.58197021484375,-0.34588623046875,7994,-1012,-1394,5,-7,3
61461502,0.5386962890625,-0.5015869140625,-0.58245849609375,-0.344970703125,8040,-1028,-1401,5,-7,2
61471486,0.53863525390625,-0.50164794921875,-0.58294677734375,-0.3441162109375,8068,-1042,-1404,5,-7,2
61481468,0.53863525390625,-0.50164794921875,-0.58343505859375,-0.34326171875,8102,-1062,-1417,4,-7,1
61491455,0.53857421875,-0.50164794921875,-0.583984375,-0.342529296875,8112,-1069,-1425,4,-7,1
61501434,0.5384521484375,-0.5015869140625,-0.58447265625,-0.34185791015625,8123,-1076,-1434,4,-6,0
61511427,0.538330078125,-0.50140380859375,-0.5850830078125,-0.34130859375,8098,-1074,-1444,4,-6,-2
61521406,0.5382080078125,-0.5010986328125,-0.58575439453125,-0.34088134765625,8080,-1070,-1448,4,-5,-4
61531388,0.5379638671875,-0.50067138671875,-0.58648681640625,-0.34063720703125,8063,-1070,-1445,4,-5,-5
61541367,0.53765869140625,-0.50018310546875,-0.58721923828125,-0.34051513671875,8059,-1079,-1460,4,-4,-6
61551350,0.5374755859375,-0.49957275390625,-0.58795166015625,-0.3404541015625,8059,-1079,-1471,4,-4,-6
61561332,0.53729248046875,-0.49908447265625,-0.58856201171875,-0.34039306640625,8047,-1080,-1470,3,-3,-6
61571315,0.53717041015625,-0.49859619140625,-0.589111328125,-0.34033203125,8031,-1080,-1471,3,-3,-5
61581301,0.53717041015625,-0.4981689453125,-0.589599609375,-0.34027099609375,8040,-1083,-1466,3,-2,-4
61591282,0.53717041015625,-0.497802734375,-0.58990478515625,-0.340087890625,8042,-1082,-1465,3,-2,-2
61601268,0.537353515625,-0.49755859375,-0.590087890625,-0.33990478515625,8050,-1094,-1469,3,-1,-1
61611258,0.53759765625,-0.497314453125,-0.5902099609375,-0.33966064453125,8088,-1088,-1468,3,0,0
61621241,0.53790283203125,-0.49725341796875,-0.59014892578125,-0.33935546875,8108,-1092,-1477,3,0,2
61631221,0.53839111328125,-0.49725341796875,-0.5899658203125,-0.33892822265625,8138,-1108,-1473,3,0,4
61641205,0.53887939453125,-0.4974365234375,-0.58966064453125,-0.33837890625,8149,-1123,-1480,3,0,6
61651193,0.53948974609375,-0.4976806640625,-0.5892333984375,-0.3377685546875,8146,-1150,-1461,3,1,7
61661175,0.5401611328125,-0.497802734375,-0.58880615234375,-0.33721923828125,8132,-1186,-1452,3,1,6
61671159,0.540771484375,-0.4979248046875,-0.58843994140625,-0.3367919921875,8117,-1209,-1438,2,1,4
61681138,0.54132080078125,-0.4979248046875,-0.588134765625,-0.33642578125,8102,-1245,-1420,3,2,3
61691116,0.5418701171875,-0.497802734375,-0.587890625,-0.336181640625,8081,-1273,-1408,2,2,2
61701098,0.5423583984375,-0.49761962890625,-0.58770751953125,-0.33599853515625,8052,-1295,-1371,2,1,1
61711081,0.5428466796875,-0.49737548828125,-0.5875244140625,-0.3358154296875,7996,-1317,-1351,2,2,0
61721066,0.543212890625,-0.49713134765625,-0.58740234375,-0.3358154296875,7931,-1339,-1310,2,2,-1
61731050,0.5435791015625,-0.49676513671875,-0.58734130859375,-0.33587646484375,7866,-1366,-1285,2,2,-3
61741029,0.54388427734375,-0.49639892578125,-0.5872802734375,-0.33599853515625,7819,-1401,-1247,1,2,-4
61751009,0.54412841796875,-0.4959716796875,-0.58734130859375,-0.33624267578125,7809,-1419,-1229,1,2,-4
61760995,0.54425048828125,-0.49554443359375,-0.58734130859375,-0.33660888671875,7814,-1425,-1223,0,2,-5
61770981,0.54437255859375,-0.4952392578125,-0.5872802734375,-0.3369140625,7835,-1434,-1227,-1,1,-3
61780954,0.54449462890625,-0.4951171875,-0.587158203125,-0.33709716796875,7844,-1441,-1227,-1,1,-2
61790944,0.544677734375,-0.4952392578125,-0.5869140625,-0.337158203125,7830,-1456,-1227,-2,1,1
61800922,0.54498291015625,-0.49554443359375,-0.58642578125,-0.3370361328125,7816,-1473,-1216,-2,0,3
61810902,0.54522705078125,-0.49609375,-0.58587646484375,-0.3367919921875,7792,-1472,-1198,-3,0,5
61820886,0.5455322265625,-0.4967041015625,-0.585205078125,-0.3365478515625,7749,-1481,-1192,-3,0,6
61830869,0.5457763671875,-0.49737548828125,-0.58453369140625,-0.33636474609375,7711,-1510,-1175,-4,0,5
61840851,0.54595947265625,-0.498046875,-0.58392333984375,-0.336181640625,7671,-1533,-1160,-4,0,5
61850834,0.5460205078125,-0.4986572265625,-0.583251953125,-0.336181640625,7673,-1540,-1159,-5,0,4
61860815,0.54608154296875,-0.499267578125,-0.5826416015625,-0.33624267578125,7689,-1565,-1156,-6,0,3
61870801,0.54608154296875,-0.5,-0.58197021484375,-0.3363037109375,7729,-1596,-1170,-6,0,4
61880784,0.546142578125,-0.50079345703125,-0.58123779296875,-0.3363037109375,7778,-1605,-1187,-7,0,6
61890771,0.54632568359375,-0.5018310546875,-0.580322265625,-0.336181640625,7833,-1619,-1221,-7,0,8
61900755,0.5465087890625,-0.5029296875,-0.57928466796875,-0.3359375,7872,-1635,-1254,-7,1,10
61910737,0.54669189453125,-0.504150390625,-0.5782470703125,-0.335693359375,7886,-1650,-1272,-7,0,10
61920716,0.54681396484375,-0.5052490234375,-0.57720947265625,-0.33551025390625,7868,-1670,-1285,-7,1,8
61930696,0.546875,-0.50616455078125,-0.57635498046875,-0.33551025390625,7854,-1684,-1278,-7,1,5
61940680,0.54681396484375,-0.5068359375,-0.57562255859375,-0.3358154296875,7840,-1680,-1274,-8,1,2
61950661,0.54669189453125,-0.50732421875,-0.5750732421875,-0.3363037109375,7834,-1683,-1266,-8,1,0
61960646,0.54638671875,-0.5076904296875,-0.57464599609375,-0.33697509765625,7799,-1686,-1274,-8,1,-3
61970627,0.5460205078125,-0.50787353515625,-0.57440185546875,-0.33770751953125,7777,-1696,-1283,-7,2,-5
61980608,0.545654296875,-0.50799560546875,-0.57415771484375,-0.33856201171875,7784,-1699,-1285,-7,1,-5
61990595,0.5452880859375,-0.508056640625,-0.57391357421875,-0.33935546875,7780,-1694,-1301,-7,2,-6
62000575,0.54498291015625,-0.5081787109375,-0.57366943359375,-0.34014892578125,7783,-1703,-1317,-7,2,-5
62010557,0.544677734375,-0.50830078125,-0.5733642578125,-0.34088134765625,7790,-1697,-1325,-7,2,-4
62020542,0.54449462890625,-0.508544921875,-0.572998046875,-0.34149169921875,7782,-1684,-1332,-6,2,-2
62030530,0.54443359375,-0.50885009765625,-0.57257080078125,-0.3419189453125,7801,-1667,-1346,-6,2,0
62040510,0.54443359375,-0.50933837890625,-0.57196044921875,-0.3421630859375,7797,-1650,-1342,-6,2,2
62050493,0.5445556640625,-0.5098876953125,-0.57122802734375,-0.34228515625,7799,-1628,-1359,-5,2,5
62060475,0.5447998046875,-0.5106201171875,-0.57037353515625,-0.34222412109375,7807,-1611,-1375,-5,2,7
62070459,0.545166015625,-0.51141357421875,-0.5694580078125,-0.34210205078125,7802,-1607,-1399,-4,3,8
62080438,0.54559326171875,-0.51214599609375,-0.56854248046875,-0.34185791015625,7794,-1588,-1404,-4,3,9
62090429,0.5460205078125,-0.51287841796875,-0.56756591796875,-0.34161376953125,7792,-1580,-1430,-4,3,8
62100413,0.54644775390625,-0.5135498046875,-0.56671142578125,-0.3414306640625,7795,-1602,-1451,-3,3,7
62110395,0.54681396484375,-0.5140380859375,-0.56591796875,-0.34130859375,7786,-1593,-1457,-3,3,6
62120372,0.54718017578125,-0.51446533203125,-0.56524658203125,-0.34124755859375,7797,-1586,-1472,-2,3,4
62130358,0.54754638671875,-0.51470947265625,-0.564697265625,-0.34124755859375,7833,-1591,-1494,-2,3,4
62140340,0.54791259765625,-0.51495361328125,-0.564208984375,-0.3411865234375,7883,-1579,-1498,-1,3,4
62150323,0.54827880859375,-0.51507568359375,-0.56365966796875,-0.34112548828125,7926,-1573,-1510,-1,3,4
62160307,0.5487060546875,-0.51531982421875,-0.56317138671875,-0.34100341796875,7948,-1570,-1516,0,3,4
62170292,0.54913330078125,-0.5155029296875,-0.56268310546875,-0.3408203125,7952,-1573,-1508,0,3,4
62180273,0.549560546875,-0.515625,-0.562255859375,-0.340576171875,7957,-1572,-1501,1,2,4
62190256,0.54998779296875,-0.5157470703125,-0.5618896484375,-0.34039306640625,7950,-1565,-1480,1,2,3
62200245,0.55035400390625,-0.5157470703125,-0.5616455078125,-0.3402099609375,7957,-1559,-1480,1,2,2
62210229,0.55072021484375,-0.5157470703125,-0.5614013671875,-0.3399658203125,7989,-1559,-1498,1,2,2
62220211,0.551025390625,-0.51568603515625,-0.561279296875,-0.33978271484375,8018,-1551,-1497,2,2,2
62230192,0.5513916015625,-0.51568603515625,-0.56109619140625,-0.33953857421875,8051,-1562,-1511,2,1,2
62240182,0.55169677734375,-0.515625,-0.56097412109375,-0.3392333984375,8052,-1556,-1518,2,1,2
62250167,0.552001953125,-0.515625,-0.5609130859375,-0.3389892578125,8063,-1556,-1520,2,1,2
62260142,0.55224609375,-0.5155029296875,-0.5609130859375,-0.33868408203125,8047,-1552,-1523,2,1,1
62270122,0.55242919921875,-0.51531982421875,-0.56097412109375,-0.33856201171875,8039,-1548,-1505,2,1,-1
62280101,0.55255126953125,-0.51507568359375,-0.5611572265625,-0.33843994140625,8021,-1538,-1510,2,0,-1
62290085,0.55267333984375,-0.5147705078125,-0.5614013671875,-0.33831787109375,8003,-1532,-1507,3,0,-2
62300066,0.552734375,-0.514404296875,-0.56170654296875,-0.33831787109375,8001,-1530,-1507,3,0,-3
62310051,0.55267333984375,-0.5140380859375,-0.56207275390625,-0.33831787109375,7975,-1507,-1500,2,-1,-4
62320030,0.5526123046875,-0.5135498046875,-0.5625,-0.33837890625,7931,-1483,-1503,3,-1,-5
62330009,0.552490234375,-0.5130615234375,-0.56304931640625,-0.33843994140625,7882,-1465,-1484,2,-1,-6
62339996,0.55230712890625,-0.51251220703125,-0.56365966796875,-0.338623046875,7820,-1455,-1465,3,-1,-7
62349983,0.552001953125,-0.5118408203125,-0.5643310546875,-0.3388671875,7768,-1437,-1464,2,-1,-8
62359960,0.55169677734375,-0.51116943359375,-0.56512451171875,-0.33917236328125,7729,-1434,-1457,2,-1,-9
62369943,0.5513916015625,-0.5103759765625,-0.56591796875,-0.33953857421875,7723,-1418,-1442,2,-2,-10
62379925,0.551025390625,-0.50958251953125,-0.5667724609375,-0.3399658203125,7730,-1405,-1417,2,-2,-10
62389909,0.5506591796875,-0.5087890625,-0.56756591796875,-0.34033203125,7745,-1385,-1384,2,-2,-10
62399890,0.55035400390625,-0.50811767578125,-0.56829833984375,-0.34063720703125,7763,-1368,-1334,2,-3,-9
62409877,0.55010986328125,-0.5074462890625,-0.5689697265625,-0.34088134765625,7794,-1375,-1272,2,-3,-8
62419857,0.5499267578125,-0.5068359375,-0.569580078125,-0.341064453125,7799,-1374,-1189,2,-3,-7
62429839,0.54974365234375,-0.5062255859375,-0.57025146484375,-0.34124755859375,7804,-1362,-1082,2,-3,-7
62439821,0.54962158203125,-0.50543212890625,-0.57086181640625,-0.34149169921875,7818,-1347,-963,3,-3,-9
62449804,0.5494384765625,-0.50457763671875,-0.57159423828125,-0.34185791015625,7841,-1319,-864,2,-3,-10
62459786,0.5491943359375,-0.50372314453125,-0.57232666015625,-0.34228515625,7858,-1296,-814,3,-3,-10
62469768,0.54888916015625,-0.50274658203125,-0.57318115234375,-0.3427734375,7877,-1271,-766,2,-3,-11
62479760,0.548583984375,-0.50164794921875,-0.573974609375,-0.34344482421875,7849,-1252,-700,2,-3,-13
62489742,0.5482177734375,-0.50048828125,-0.57489013671875,-0.34423828125,7791,-1212,-652,2,-2,-14
62499718,0.54779052734375,-0.49920654296875,-0.5758056640625,-0.34527587890625,7701,-1167,-613,1,-2,-17
62509703,0.5472412109375,-0.49774169921875,-0.57684326171875,-0.34649658203125,7606,-1111,-551,1,-1,-19
62519686,0.546630859375,-0.49615478515625,-0.57794189453125,-0.347900390625,7541,-1057,-511,0,-1,-20
62529668,0.54595947265625,-0.49456787109375,-0.57904052734375,-0.34942626953125,7519,-1001,-489,-1,-1,-21
62539654,0.5452880859375,-0.49298095703125,-0.580078125,-0.35101318359375,7527,-958,-511,-1,0,-21
62549635,0.54461669921875,-0.49151611328125,-0.58099365234375,-0.3526611328125,7561,-896,-531,-2,0,-19
62559615,0.5439453125,-0.490234375,-0.58172607421875,-0.3541259765625,7597,-845,-579,-2,1,-17
62569597,0.54339599609375,-0.48919677734375,-0.582275390625,-0.35552978515625,7638,-798,-627,-3,1,-14
62579581,0.54296875,-0.48834228515625,-0.5826416015625,-0.35675048828125,7669,-763,-696,-4,2,-11
62589566,0.5426025390625,-0.48779296875,-0.58270263671875,-0.35791015625,7691,-743,-740,-5,2,-8
62599547,0.5423583984375,-0.48748779296875,-0.5826416015625,-0.35888671875,7709,-731,-797,-5,2,-6
62609531,0.54205322265625,-0.48724365234375,-0.58251953125,-0.35986328125,7734,-721,-841,-6,3,-5
62619513,0.541748046875,-0.487060546875,-0.58233642578125,-0.36090087890625,7752,-724,-887,-7,3,-5
62629496,0.54144287109375,-0.48687744140625,-0.58209228515625,-0.3619384765625,7789,-720,-951,-7,3,-6
62639478,0.5408935546875,-0.48675537109375,-0.5819091796875,-0.36309814453125,7832,-715,-1022,-8,3,-7
62649462,0.54034423828125,-0.4866943359375,-0.581787109375,-0.3643798828125,7891,-718,-1107,-9,3,-7
62659448,0.5396728515625,-0.486572265625,-0.5816650390625,-0.36566162109375,7955,-708,-1188,-9,3,-7
62669433,0.53900146484375,-0.486572265625,-0.58148193359375,-0.366943359375,8011,-695,-1261,-10,2,-7
62679417,0.5382080078125,-0.4866943359375,-0.58135986328125,-0.3681640625,8076,-689,-1333,-10,2,-6
62689399,0.53741455078125,-0.4869384765625,-0.5811767578125,-0.369384765625,8135,-673,-1412,-11,2,-6
62699376,0.53656005859375,-0.4873046875,-0.5809326171875,-0.3704833984375,8172,-657,-1476,-11,1,-4
62709359,0.53564453125,-0.48779296875,-0.5806884765625,-0.3714599609375,8160,-626,-1509,-12,0,-4
62719343,0.53460693359375,-0.48834228515625,-0.58056640625,-0.37249755859375,8112,-593,-1543,-12,-1,-4
62729322,0.533447265625,-0.48876953125,-0.58050537109375,-0.37359619140625,8038,-546,-1562,-12,-1,-6
62739307,0.5321044921875,-0.48919677734375,-0.58062744140625,-0.3748779296875,7962,-531,-1570,-13,-2,-9
62749292,0.530517578125,-0.48944091796875,-0.5809326171875,-0.37628173828125,7911,-504,-1608,-13,-3,-12
62759271,0.52874755859375,-0.48956298828125,-0.58148193359375,-0.3778076171875,7902,-485,-1650,-14,-4,-14
62769255,0.52685546875,-0.4896240234375,-0.58209228515625,-0.37939453125,7922,-463,-1688,-14,-4,-15
62779243,0.52484130859375,-0.48974609375,-0.582763671875,-0.38092041015625,7934,-433,-1737,-14,-5,-15
62789229,0.5228271484375,-0.489990234375,-0.58343505859375,-0.38238525390625,7938,-404,-1791,-14,-6,-13
62799208,0.5208740234375,-0.49029541015625,-0.58404541015625,-0.38372802734375,7956,-368,-1831,-14,-6,-12
62809189,0.5189208984375,-0.49072265625,-0.58465576171875,-0.3848876953125,7984,-322,-1848,-13,-7,-10
62819182,0.51708984375,-0.49127197265625,-0.58514404296875,-0.385986328125,8008,-271,-1859,-13,-7,-9
62829164,0.515380859375,-0.4918212890625,-0.58551025390625,-0.38690185546875,8050,-220,-1853,-12,-7,-7
62839141,0.51385498046875,-0.492431640625,-0.5858154296875,-0.38775634765625,8118,-167,-1855,-12,-6,-5
62849121,0.512451171875,-0.49310302734375,-0.5860595703125,-0.388427734375,8211,-128,-1871,-11,-6,-3
62859100,0.51123046875,-0.49383544921875,-0.586181640625,-0.388916015625,8306,-80,-1893,-10,-5,-1
62869090,0.5101318359375,-0.49456787109375,-0.58624267578125,-0.3892822265625,8395,-34,-1907,-9,-5,0
62879067,0.5091552734375,-0.4952392578125,-0.5863037109375,-0.38970947265625,8472,19,-1886,-8,-5,0
62889056,0.5081787109375,-0.49578857421875,-0.58636474609375,-0.39013671875,8567,78,-1844,-8,-4,-1
62899034,0.50726318359375,-0.49609375,-0.58648681640625,-0.39068603515625,8680,134,-1777,-7,-4,-3
62909017,0.50640869140625,-0.49615478515625,-0.58673095703125,-0.39141845703125,8821,193,-1700,-6,-3,-5
62919002,0.5054931640625,-0.4959716796875,-0.5870361328125,-0.39239501953125,8986,281,-1615,-6,-2,-7
62928991,0.504638671875,-0.49542236328125,-0.58740234375,-0.3935546875,9168,395,-1528,-5,-1,-9
62938978,0.5037841796875,-0.49462890625,-0.587890625,-0.39495849609375,9374,566,-1461,-5,0,-11
62948952,0.5029296875,-0.4935302734375,-0.58843994140625,-0.39654541015625,9608,729,-1421,-4,1,-12
62958934,0.50201416015625,-0.4920654296875,-0.5892333984375,-0.3984375,9832,899,-1423,-4,2,-17
62968917,0.50079345703125,-0.49005126953125,-0.59039306640625,-0.4007568359375,10040,1073,-1462,-3,3,-23
62978899,0.49920654296875,-0.4873046875,-0.5919189453125,-0.4036865234375,10230,1290,-1490,-3,6,-32
62988884,0.497314453125,-0.4837646484375,-0.59393310546875,-0.40740966796875,10377,1549,-1486,-4,7,-41
62998867,0.49493408203125,-0.47930908203125,-0.59637451171875,-0.411865234375,10458,1819,-1465,-4,9,-52
63008849,0.49200439453125,-0.473876953125,-0.59942626953125,-0.417236328125,10452,2092,-1453,-4,11,-64
63018833,0.48846435546875,-0.46734619140625,-0.60308837890625,-0.42352294921875,10359,2328,-1434,-5,13,-79
63028817,0.484130859375,-0.45953369140625,-0.607421875,-0.43072509765625,10211,2560,-1426,-5,15,-94
63038799,0.47918701171875,-0.4505615234375,-0.6123046875,-0.438720703125,10031,2744,-1412,-5,17,-107
63048784,0.4736328125,-0.440673828125,-0.61749267578125,-0.4473876953125,9869,2907,-1414,-6,19,-117
63058772,0.46783447265625,-0.4300537109375,-0.622802734375,-0.45648193359375,9702,3060,-1408,-6,21,-124
63068753,0.46185302734375,-0.41912841796875,-0.62799072265625,-0.465576171875,9595,3219,-1435,-5,23,-125
63078737,0.4560546875,-0.40814208984375,-0.6328125,-0.47442626953125,9544,3358,-1478,-5,25,-122
63088713,0.45062255859375,-0.3974609375,-0.63720703125,-0.48272705078125,9503,3499,-1545,-4,27,-116
63098695,0.4456787109375,-0.38702392578125,-0.64111328125,-0.490478515625,9440,3618,-1605,-3,28,-109
63108684,0.441162109375,-0.37689208984375,-0.644775390625,-0.4976806640625,9395,3734,-1658,0,29,-105
63118664,0.43701171875,-0.36676025390625,-0.64813232421875,-0.50445556640625,9357,3865,-1717,1,30,-102
63128648,0.43292236328125,-0.3564453125,-0.65142822265625,-0.51104736328125,9356,4000,-1799,3,32,-103
63138635,0.4288330078125,-0.34564208984375,-0.65484619140625,-0.517578125,9378,4151,-1869,4,34,-107
63148613,0.42449951171875,-0.334228515625,-0.6583251953125,-0.524169921875,9434,4329,-1954,6,35,-113
63158597,0.41973876953125,-0.322021484375,-0.66204833984375,-0.5308837890625,9466,4529,-2007,7,37,-120
63168580,0.41455078125,-0.30908203125,-0.6658935546875,-0.537841796875,9519,4748,-2006,8,37,-128
63178564,0.40899658203125,-0.2955322265625,-0.66973876953125,-0.54486083984375,9637,4983,-2022,8,38,-132
63188547,0.4033203125,-0.28167724609375,-0.6734619140625,-0.55181884765625,9829,5257,-2041,8,39,-136
63198530,0.39752197265625,-0.26763916015625,-0.67694091796875,-0.5587158203125,10036,5555,-2064,7,40,-136
63208511,0.39190673828125,-0.25341796875,-0.6800537109375,-0.56549072265625,10179,5840,-2054,7,43,-136
63218495,0.38616943359375,-0.23895263671875,-0.682861328125,-0.57232666015625,10179,6084,-1981,6,44,-138
63228478,0.3802490234375,-0.22412109375,-0.685302734375,-0.57928466796875,10087,6293,-1819,4,46,-142
63238462,0.37396240234375,-0.2088623046875,-0.6873779296875,-0.58660888671875,9922,6490,-1592,2,46,-147
63248448,0.3671875,-0.193115234375,-0.68902587890625,-0.59429931640625,9720,6664,-1342,-1,46,-153
63258431,0.35992431640625,-0.1771240234375,-0.69024658203125,-0.60223388671875,9532,6821,-1100,-4,46,-156
63268414,0.3525390625,-0.1612548828125,-0.69097900390625,-0.61016845703125,9359,6982,-890,-7,46,-156
63278397,0.34515380859375,-0.145751953125,-0.69122314453125,-0.61798095703125,9148,7124,-657,-10,45,-153
63288375,0.3377685546875,-0.130615234375,-0.69091796875,-0.625732421875,8910,7235,-415,-12,44,-151
63298357,0.33013916015625,-0.11566162109375,-0.690185546875,-0.63348388671875,8649,7315,-159,-14,42,-152
63308340,0.3221435546875,-0.1007080078125,-0.68914794921875,-0.6412353515625,8406,7393,59,-17,41,-155
63318322,0.31353759765625,-0.0858154296875,-0.68780517578125,-0.64910888671875,8213,7458,261,-19,38,-158
63328307,0.3045654296875,-0.07098388671875,-0.6861572265625,-0.6568603515625,8090,7531,423,-21,37,-161
63338292,0.29547119140625,-0.056396484375,-0.68414306640625,-0.66448974609375,7989,7595,547,-22,35,-160
63348270,0.286376953125,-0.04229736328125,-0.68182373046875,-0.67181396484375,7858,7640,658,-23,34,-157
63358255,0.27734375,-0.028564453125,-0.6793212890625,-0.6788330078125,7628,7670,780,-23,33,-154
63368245,0.26800537109375,-0.014892578125,-0.67657470703125,-0.68572998046875,7284,7660,930,-23,31,-156
63378231,0.25787353515625,-0.00079345703125,-0.6737060546875,-0.692626953125,6907,7664,1073,-23,29,-164
63388215,0.24639892578125,0.0140380859375,-0.67047119140625,-0.69970703125,6564,7725,1206,-24,27,-176
63398195,0.23388671875,0.029296875,-0.6668701171875,-0.7069091796875,6279,7829,1310,-26,24,-184
63408185,0.220947265625,0.04437255859375,-0.66302490234375,-0.71392822265625,6059,7935,1375,-27,22,-184
63418173,0.208251953125,0.05877685546875,-0.65899658203125,-0.72039794921875,5835,7985,1402,-27,21,-178
63428144,0.196044921875,0.07244873046875,-0.65478515625,-0.72637939453125,5567,7939,1416,-27,19,-171
63438120,0.18402099609375,0.08563232421875,-0.65045166015625,-0.73193359375,5229,7850,1435,-26,19,-168
63448104,0.17156982421875,0.098876953125,-0.64593505859375,-0.7373046875,4821,7750,1447,-26,17,-170
63458087,0.15838623046875,0.11248779296875,-0.64117431640625,-0.742431640625,4391,7651,1464,-25,16,-176
63468069,0.144287109375,0.12646484375,-0.63604736328125,-0.7474365234375,3970,7560,1480,-25,13,-184
63478052,0.12939453125,0.14056396484375,-0.630615234375,-0.75225830078125,3573,7492,1490,-26,11,-188
63488036,0.1142578125,0.15435791015625,-0.6248779296875,-0.75677490234375,3221,7438,1464,-26,9,-186
63498018,0.099609375,0.16729736328125,-0.61907958984375,-0.7608642578125,2947,7384,1403,-26,6,-179
63508000,0.085693359375,0.17919921875,-0.61334228515625,-0.76446533203125,2648,7354,1346,-26,5,-168
63517990,0.07220458984375,0.19036865234375,-0.60760498046875,-0.7677001953125,2316,7299,1291,-26,2,-162
63527966,0.05841064453125,0.20123291015625,-0.60174560546875,-0.770751953125,1923,7221,1266,-26,-1,-164
63537945,0.04376220703125,0.21221923828125,-0.5955810546875,-0.7735595703125,1585,7177,1222,-25,-4,-170
63547928,0.0281982421875,0.223388671875,-0.5889892578125,-0.77618408203125,1261,7145,1164,-26,-7,-178
63557912,0.0120849609375,0.234375,-0.58209228515625,-0.778564453125,1022,7099,1073,-26,-10,-180
63567894,-0.0037841796875,0.2447509765625,-0.57513427734375,-0.7806396484375,828,7026,965,-27,-13,-174
63577877,-0.01885986328125,0.2542724609375,-0.56829833984375,-0.7823486328125,667,6925,870,-26,-14,-164
63587859,-0.03289794921875,0.2628173828125,-0.56170654296875,-0.7838134765625,505,6736,792,-25,-14,-153
63597843,-0.04620361328125,0.270751953125,-0.5552978515625,-0.7850341796875,340,6495,723,-24,-14,-145
63607825,-0.05908203125,0.2784423828125,-0.54888916015625,-0.78594970703125,155,6259,699,-23,-13,-142
63617807,-0.07183837890625,0.2860107421875,-0.54248046875,-0.78662109375,-30,6060,693,-23,-13,-141
63627790,-0.08465576171875,0.293701171875,-0.535888671875,-0.78704833984375,-228,5829,719,-22,-12,-142
63637771,-0.09771728515625,0.3016357421875,-0.52899169921875,-0.7872314453125,-468,5589,754,-22,-11,-145
63647762,-0.11102294921875,0.30975341796875,-0.52191162109375,-0.78704833984375,-724,5361,794,-22,-10,-147
63657745,-0.12420654296875,0.31793212890625,-0.5146484375,-0.78656005859375,-960,5141,848,-21,-9,-145
63667721,-0.136962890625,0.32574462890625,-0.50750732421875,-0.785888671875,-1195,4941,914,-20,-9,-140
63677708,-0.14892578125,0.33306884765625,-0.50079345703125,-0.78497314453125,-1404,4827,943,-18,-7,-131
63687689,-0.15985107421875,0.33966064453125,-0.4945068359375,-0.78399658203125,-1644,4681,1013,-17,-7,-120
63697671,-0.17041015625,0.34600830078125,-0.48828125,-0.78289794921875,-1957,4480,1119,-16,-7,-117
63707653,-0.18133544921875,0.35247802734375,-0.48175048828125,-0.78155517578125,-2294,4279,1244,-15,-7,-121
63717637,-0.1927490234375,0.359130859375,-0.47491455078125,-0.780029296875,-2623,4100,1355,-15,-8,-126
63727620,-0.20465087890625,0.3658447265625,-0.46771240234375,-0.7781982421875,-2923,3928,1459,-15,-10,-129
63737603,-0.2164306640625,0.3721923828125,-0.46038818359375,-0.7763671875,-3183,3764,1585,-15,-11,-126
63747585,-0.2276611328125,0.3779296875,-0.45318603515625,-0.77459716796875,-3453,3551,1732,-15,-12,-118
63757567,-0.238037109375,0.38299560546875,-0.44622802734375,-0.7730712890625,-3718,3313,1860,-15,-14,-106
63767550,-0.247314453125,0.38720703125,-0.439697265625,-0.77178955078125,-3952,3059,1979,-14,-15,-93
63777532,-0.25537109375,0.3905029296875,-0.43377685546875,-0.7708740234375,-4140,2822,2097,-14,-16,-80
63787516,-0.26251220703125,0.39306640625,-0.42822265625,-0.770263671875,-4310,2589,2204,-14,-18,-70
63797500,-0.2691650390625,0.395263671875,-0.4228515625,-0.769775390625,-4466,2363,2303,-13,-18,-65
63807482,-0.27587890625,0.39727783203125,-0.41748046875,-0.769287109375,-4589,2147,2380,-13,-19,-66
63817466,-0.2825927734375,0.39947509765625,-0.41204833984375,-0.7686767578125,-4662,1938,2439,-12,-18,-67
63827449,-0.28936767578125,0.40167236328125,-0.40673828125,-0.767822265625,-4690,1719,2482,-11,-16,-66
63837437,-0.29608154296875,0.4039306640625,-0.40155029296875,-0.76678466796875,-4713,1498,2511,-10,-15,-66
63847421,-0.302734375,0.4063720703125,-0.3966064453125,-0.7655029296875,-4764,1306,2535,-8,-12,-66
63857403,-0.3094482421875,0.4090576171875,-0.3917236328125,-0.763916015625,-4832,1179,2580,-7,-10,-67
63867381,-0.31610107421875,0.41192626953125,-0.386962890625,-0.76202392578125,-4885,1123,2631,-7,-6,-69
63877364,-0.322509765625,0.41534423828125,-0.382080078125,-0.760009765625,-4908,1125,2730,-11,-1,-70
63887351,-0.3280029296875,0.41912841796875,-0.37701416015625,-0.758056640625,-4870,1168,2866,-17,4,-66
63897329,-0.33184814453125,0.42333984375,-0.3719482421875,-0.756591796875,-4817,1225,3003,-26,12,-55
63907313,-0.333251953125,0.427978515625,-0.366943359375,-0.75579833984375,-4833,1230,3049,-38,20,-39
63917295,-0.332275390625,0.43310546875,-0.362060546875,-0.755615234375,-4960,1081,2962,-49,27,-21
63927278,-0.3292236328125,0.438720703125,-0.35736083984375,-0.7559814453125,-5197,799,2764,-56,31,-6
63937260,-0.32470703125,0.44451904296875,-0.35284423828125,-0.75665283203125,-5529,429,2545,-60,33,6
63947238,-0.3193359375,0.4503173828125,-0.3486328125,-0.7574462890625,-5932,14,2347,-61,34,14
63957230,-0.31353759765625,0.45587158203125,-0.34466552734375,-0.75836181640625,-6310,-425,2174,-60,33,21
63967212,-0.3074951171875,0.46112060546875,-0.34112548828125,-0.75927734375,-6635,-863,2002,-56,32,26
63977191,-0.30108642578125,0.4658203125,-0.3382568359375,-0.76025390625,-6891,-1286,1840,-52,30,36
63987185,-0.2940673828125,0.46966552734375,-0.33648681640625,-0.76141357421875,-7130,-1660,1712,-44,29,48
63997173,-0.28631591796875,0.4725341796875,-0.33612060546875,-0.76275634765625,-7400,-1978,1638,-36,27,63
64007144,-0.2779541015625,0.474365234375,-0.337158203125,-0.7642822265625,-7636,-2194,1607,-28,25,76
64017120,-0.26922607421875,0.47509765625,-0.3394775390625,-0.765869140625,-7815,-2300,1590,-19,22,84
64027105,-0.26080322265625,0.47503662109375,-0.34271240234375,-0.7674560546875,-7955,-2333,1590,-10,18,87
64037088,-0.25311279296875,0.474365234375,-0.346435546875,-0.76873779296875,-8010,-2300,1597,-2,14,84
64047074,-0.246337890625,0.47314453125,-0.3505859375,-0.76983642578125,-7999,-2227,1601,4,11,80
64059995,-0.24017333984375,0.47137451171875,-0.3551025390625,-0.770751953125,-7945,-2110,1616,11,7,80
64067042,-0.23406982421875,0.46881103515625,-0.36041259765625,-0.771728515625,-7897,-1971,1648,17,3,85
64077023,-0.2276611328125,0.4652099609375,-0.36663818359375,-0.77288818359375,-7884,-1794,1695,23,-1,95
64087001,-0.22088623046875,0.46051025390625,-0.37371826171875,-0.7742919921875,-7872,-1569,1762,28,-6,103
64096991,-0.21405029296875,0.4547119140625,-0.38134765625,-0.77593994140625,-7790,-1298,1811,33,-12,107
64106973,-0.20733642578125,0.447998046875,-0.38922119140625,-0.7777099609375,-7605,-1017,1848,35,-18,109
64116951,-0.20062255859375,0.4404296875,-0.3973388671875,-0.77972412109375,-7289,-706,1854,37,-23,112
64126933,-0.19342041015625,0.4320068359375,-0.40576171875,-0.7818603515625,-6879,-366,1825,37,-27,119
64136917,-0.18524169921875,0.422607421875,-0.41485595703125,-0.78424072265625,-6465,-22,1780,38,-29,130
64146901,-0.17584228515625,0.412109375,-0.42462158203125,-0.7867431640625,-6097,306,1750,39,-32,144
64156883,-0.165283203125,0.4005126953125,-0.434814453125,-0.78948974609375,-5725,652,1733,39,-34,155
64166866,-0.15386962890625,0.38812255859375,-0.4451904296875,-0.79217529296875,-5358,996,1708,38,-36,161
64176848,-0.142333984375,0.37518310546875,-0.45513916015625,-0.79486083984375,-4947,1349,1706,35,-39,160
64186832,-0.13104248046875,0.362060546875,-0.46453857421875,-0.7974853515625,-4501,1718,1691,32,-41,155
64196814,-0.11981201171875,0.34881591796875,-0.473388671875,-0.79998779296875,-4045,2071,1661,29,-42,152
64206795,-0.108154296875,0.33514404296875,-0.48193359375,-0.8023681640625,-3613,2370,1628,26,-43,157
64216784,-0.0955810546875,0.32080078125,-0.49041748046875,-0.8046875,-3294,2594,1626,24,-43,165
64226767,-0.08203125,0.3056640625,-0.49871826171875,-0.80694580078125,-3083,2773,1654,22,-45,175
64236750,-0.06805419921875,0.289794921875,-0.5067138671875,-0.80914306640625,-2896,2951,1724,20,-49,180
64246734,-0.05413818359375,0.27337646484375,-0.51409912109375,-0.81121826171875,-2619,3135,1760,17,-52,177
64256711,-0.04052734375,0.25640869140625,-0.52081298828125,-0.81329345703125,-2153,3360,1742,13,-57,174
64266696,-0.02667236328125,0.23876953125,-0.5272216796875,-0.81512451171875,-1507,3629,1661,10,-59,176
64276682,-0.011474609375,0.2198486328125,-0.53350830078125,-0.81671142578125,-796,3861,1588,7,-60,191
64286662,0.00579833984375,0.19927978515625,-0.53985595703125,-0.81781005859375,-165,4021,1534,7,-60,211
64296646,0.02490234375,0.1773681640625,-0.546142578125,-0.818359375,274,4112,1534,6,-61,228
64306635,0.04449462890625,0.15484619140625,-0.55169677734375,-0.818359375,615,4156,1591,3,-62,231
64316610,0.06329345703125,0.13238525390625,-0.556396484375,-0.81793212890625,1130,4311,1616,1,-64,220
64326593,0.08123779296875,0.10980224609375,-0.56048583984375,-0.81689453125,1968,4685,1545,-2,-66,211
64336574,0.099365234375,0.086669921875,-0.56414794921875,-0.81512451171875,2938,5081,1440,-4,-66,213
64346558,0.11865234375,0.06256103515625,-0.56732177734375,-0.81256103515625,3907,5355,1341,-5,-65,225
64356542,0.13946533203125,0.037353515625,-0.57000732421875,-0.80889892578125,4661,5440,1289,-5,-62,241
64366523,0.16119384765625,0.01202392578125,-0.5718994140625,-0.80426025390625,5105,5396,1323,-5,-59,248
64376507,0.18231201171875,-0.01275634765625,-0.57293701171875,-0.79901123046875,5423,5311,1406,-6,-58,241
64386491,0.201904296875,-0.0364990234375,-0.57318115234375,-0.7933349609375,5835,5328,1485,-7,-58,226
64396473,0.21978759765625,-0.05938720703125,-0.57293701171875,-0.787353515625,6436,5486,1557,-8,-59,211
64406454,0.23663330078125,-0.0819091796875,-0.572265625,-0.78094482421875,7149,5635,1579,-10,-60,204
64416434,0.2529296875,-0.10430908203125,-0.57110595703125,-0.77398681640625,7740,5659,1574,-10,-61,202
64426427,0.2689208984375,-0.12664794921875,-0.5694580078125,-0.76641845703125,8142,5499,1574,-10,-61,202
64436409,0.28436279296875,-0.1485595703125,-0.56732177734375,-0.75848388671875,8281,5212,1614,-9,-62,200
64446393,0.298828125,-0.16961669921875,-0.5648193359375,-0.75030517578125,8217,4861,1706,-9,-63,191
64456370,0.3118896484375,-0.1898193359375,-0.56207275390625,-0.7421875,8328,4568,1778,-10,-65,180
64466353,0.32391357421875,-0.209716796875,-0.5592041015625,-0.73382568359375,8817,4435,1804,-11,-67,174
64476335,0.33587646484375,-0.23004150390625,-0.55609130859375,-0.724609375,9535,4404,1738,-11,-69,179
64486320,0.3486328125,-0.251220703125,-0.55255126953125,-0.7142333984375,10342,4372,1602,-9,-69,193
64496301,0.3626708984375,-0.27325439453125,-0.5482177734375,-0.70233154296875,11026,4222,1493,-7,-69,212
64506282,0.37786865234375,-0.29583740234375,-0.54302978515625,-0.68914794921875,11453,3929,1411,-4,-67,225
64516266,0.393310546875,-0.31805419921875,-0.537109375,-0.675048828125,11578,3534,1386,-2,-66,228
64526246,0.4078369140625,-0.33892822265625,-0.53094482421875,-0.66094970703125,11505,3107,1425,-1,-64,217
64536244,0.42071533203125,-0.35791015625,-0.525146484375,-0.6474609375,11510,2707,1467,1,-62,195
64546224,0.431396484375,-0.3748779296875,-0.52008056640625,-0.634765625,11676,2458,1465,1,-60,171
64556206,0.440185546875,-0.389892578125,-0.51580810546875,-0.623046875,11838,2288,1505,2,-59,150
64566194,0.447509765625,-0.4031982421875,-0.51226806640625,-0.6121826171875,11985,2117,1501,4,-57,132
64576177,0.453857421875,-0.41510009765625,-0.5093994140625,-0.6019287109375,12060,1944,1472,6,-55,119
64586160,0.45953369140625,-0.42584228515625,-0.5069580078125,-0.59210205078125,12038,1768,1424,9,-52,110
64596130,0.46502685546875,-0.4356689453125,-0.5047607421875,-0.5823974609375,11945,1583,1343,12,-49,106
64606114,0.4705810546875,-0.44488525390625,-0.502685546875,-0.57275390625,11812,1395,1247,15,-47,103
64616097,0.47613525390625,-0.45355224609375,-0.50067138671875,-0.56298828125,11733,1280,1113,18,-45,104
64626081,0.48199462890625,-0.46197509765625,-0.49859619140625,-0.55291748046875,11673,1239,1002,21,-44,108
64636064,0.48834228515625,-0.47021484375,-0.496337890625,-0.5423583984375,11622,1199,910,25,-42,114
64646050,0.4951171875,-0.4783935546875,-0.4937744140625,-0.53125,11600,1149,823,27,-41,120
64656031,0.50244140625,-0.48663330078125,-0.4908447265625,-0.51953125,11582,1087,741,30,-41,127
64666013,0.50994873046875,-0.49462890625,-0.48773193359375,-0.50738525390625,11539,1034,633,32,-40,130
64675996,0.517333984375,-0.5023193359375,-0.4847412109375,-0.4951171875,11525,1015,510,34,-39,128
64685984,0.52435302734375,-0.50927734375,-0.4820556640625,-0.48309326171875,11539,1071,374,36,-38,123
64695960,0.53076171875,-0.5155029296875,-0.47991943359375,-0.47149658203125,11516,1155,249,37,-38,115
64705942,0.53656005859375,-0.520751953125,-0.4783935546875,-0.46051025390625,11424,1226,175,38,-37,103
64715924,0.54156494140625,-0.5250244140625,-0.47772216796875,-0.45050048828125,11277,1248,148,39,-37,89
64725907,0.545654296875,-0.528076171875,-0.47796630859375,-0.44158935546875,11083,1221,146,40,-36,72
64735891,0.5489501953125,-0.52996826171875,-0.4791259765625,-0.43389892578125,10852,1172,160,40,-34,54
64745877,0.55145263671875,-0.53076171875,-0.48126220703125,-0.4273681640625,10620,1127,162,39,-33,39
64755857,0.5533447265625,-0.53070068359375,-0.4840087890625,-0.421875,10403,1097,162,39,-30,26
64765840,0.55474853515625,-0.5299072265625,-0.48724365234375,-0.41729736328125,10233,1098,152,39,-28,17
64775822,0.55596923828125,-0.5286865234375,-0.4906005859375,-0.41326904296875,10075,1150,150,38,-26,13
64785805,0.55706787109375,-0.52728271484375,-0.493896484375,-0.40960693359375,9922,1218,138,37,-23,12
64795789,0.55841064453125,-0.52593994140625,-0.49688720703125,-0.40594482421875,9776,1282,124,36,-21,15
64805768,0.55987548828125,-0.5247802734375,-0.49932861328125,-0.40234375,9648,1330,115,34,-19,19
64815759,0.56158447265625,-0.52386474609375,-0.50140380859375,-0.39862060546875,9558,1325,74,33,-18,23
64825742,0.56341552734375,-0.523193359375,-0.5030517578125,-0.394775390625,9445,1264,36,32,-16,25
64835719,0.56524658203125,-0.52252197265625,-0.5045166015625,-0.39111328125,9339,1175,21,31,-15,24
64845702,0.5670166015625,-0.521728515625,-0.50604248046875,-0.3876953125,9200,1058,22,29,-14,20
64855685,0.5684814453125,-0.52056884765625,-0.50775146484375,-0.384765625,9075,952,2,29,-13,14
64865668,0.56964111328125,-0.51922607421875,-0.509765625,-0.38226318359375,8967,871,-30,28,-13,8
64875650,0.5704345703125,-0.51751708984375,-0.5120849609375,-0.3802490234375,8894,783,-65,27,-13,2
64885635,0.571044921875,-0.51556396484375,-0.51470947265625,-0.3785400390625,8871,679,-92,26,-13,-3
64895611,0.5712890625,-0.513427734375,-0.51751708984375,-0.37713623046875,8897,567,-129,25,-13,-7
64905595,0.57147216796875,-0.51116943359375,-0.5203857421875,-0.37603759765625,8926,451,-158,24,-13,-10
64915577,0.57147216796875,-0.5087890625,-0.52337646484375,-0.37506103515625,8949,325,-187,24,-13,-12
64925561,0.5714111328125,-0.50640869140625,-0.5263671875,-0.37420654296875,8959,207,-230,24,-12,-13
64935543,0.5712890625,-0.5040283203125,-0.52935791015625,-0.3734130859375,8978,88,-290,23,-12,-14
64945526,0.57122802734375,-0.5015869140625,-0.53228759765625,-0.37261962890625,9004,-19,-342,23,-11,-15
64955509,0.57110595703125,-0.499267578125,-0.53515625,-0.37176513671875,9059,-129,-428,23,-11,-14
64965492,0.571044921875,-0.4970703125,-0.53790283203125,-0.370849609375,9117,-220,-521,23,-10,-13
64975476,0.57110595703125,-0.49493408203125,-0.54052734375,-0.369873046875,9160,-303,-620,22,-9,-11
64985456,0.5711669921875,-0.492919921875,-0.54302978515625,-0.3687744140625,9180,-369,-717,22,-9,-10
64995437,0.57122802734375,-0.4908447265625,-0.54547119140625,-0.3677978515625,9144,-440,-798,22,-8,-12
65005428,0.57122802734375,-0.48870849609375,-0.5479736328125,-0.36700439453125,9079,-487,-884,21,-8,-14
65015413,0.57110595703125,-0.48638916015625,-0.550537109375,-0.36639404296875,9008,-544,-959,21,-7,-17
65025395,0.57086181640625,-0.48382568359375,-0.55328369140625,-0.3660888671875,8924,-590,-1024,20,-6,-21
65035374,0.5704345703125,-0.4810791015625,-0.55615234375,-0.365966796875,8802,-625,-1079,20,-6,-24
65045355,0.5699462890625,-0.4781494140625,-0.55902099609375,-0.3660888671875,8656,-649,-1065,20,-5,-26
65055337,0.56939697265625,-0.47515869140625,-0.56195068359375,-0.36639404296875,8496,-626,-1040,19,-5,-27
65065320,0.56878662109375,-0.47210693359375,-0.56488037109375,-0.36676025390625,8360,-605,-1023,19,-5,-28
65075303,0.56817626953125,-0.46917724609375,-0.5677490234375,-0.36700439453125,8264,-586,-1011,19,-6,-26
65085292,0.567626953125,-0.46649169921875,-0.57049560546875,-0.36712646484375,8200,-580,-1029,18,-6,-24
65095271,0.56719970703125,-0.4639892578125,-0.572998046875,-0.3670654296875,8168,-576,-1043,18,-6,-21
65105255,0.5667724609375,-0.46173095703125,-0.57537841796875,-0.3668212890625,8137,-553,-1050,17,-6,-18
65115242,0.56646728515625,-0.45965576171875,-0.5775146484375,-0.36651611328125,8103,-523,-1050,16,-5,-16
65125223,0.56634521484375,-0.457763671875,-0.5794677734375,-0.3660888671875,8066,-491,-1021,16,-5,-14
65135206,0.56622314453125,-0.45599365234375,-0.58123779296875,-0.36566162109375,8072,-462,-1007,15,-5,-12
65145187,0.566162109375,-0.45428466796875,-0.5828857421875,-0.365234375,8096,-436,-1006,14,-4,-11
65155180,0.56610107421875,-0.4527587890625,-0.58441162109375,-0.36480712890625,8132,-427,-1021,13,-4,-10
65165162,0.56610107421875,-0.45135498046875,-0.585693359375,-0.3643798828125,8199,-417,-1020,12,-3,-9
65175137,0.566162109375,-0.45013427734375,-0.58685302734375,-0.364013671875,8249,-426,-1004,10,-2,-7
65185115,0.56622314453125,-0.44903564453125,-0.58782958984375,-0.36370849609375,8253,-441,-981,9,-2,-7
65195094,0.56622314453125,-0.447998046875,-0.5887451171875,-0.36346435546875,8234,-439,-975,8,-2,-7
65205078,0.566162109375,-0.447021484375,-0.589599609375,-0.3634033203125,8206,-440,-968,7,-2,-8
65215060,0.56591796875,-0.44598388671875,-0.59051513671875,-0.36358642578125,8162,-423,-976,5,-1,-10
65225050,0.5655517578125,-0.44488525390625,-0.5914306640625,-0.36395263671875,8123,-385,-938,4,-1,-11
65235026,0.56512451171875,-0.44384765625,-0.59228515625,-0.36456298828125,8104,-352,-903,2,-1,-12
65245006,0.5645751953125,-0.44281005859375,-0.59307861328125,-0.3653564453125,8092,-327,-881,0,-1,-12
65254996,0.56396484375,-0.44189453125,-0.59375,-0.36627197265625,8077,-322,-849,-1,0,-12
65264978,0.56341552734375,-0.441162109375,-0.59429931640625,-0.3671875,8091,-350,-838,-2,0,-11
65274956,0.56280517578125,-0.440673828125,-0.59466552734375,-0.3680419921875,8127,-377,-832,-3,0,-10
65284938,0.562255859375,-0.44024658203125,-0.594970703125,-0.368896484375,8132,-385,-822,-4,0,-9
65294921,0.56170654296875,-0.43994140625,-0.59521484375,-0.3697509765625,8103,-367,-799,-5,0,-8
65304904,0.56121826171875,-0.43963623046875,-0.5953369140625,-0.37066650390625,8056,-348,-748,-5,0,-8
65314888,0.56060791015625,-0.4393310546875,-0.59552001953125,-0.37164306640625,8034,-332,-708,-6,0,-8
65324871,0.56005859375,-0.43902587890625,-0.59564208984375,-0.37261962890625,8021,-331,-678,-6,0,-9
65334853,0.5594482421875,-0.438720703125,-0.5958251953125,-0.3736572265625,8041,-338,-672,-5,0,-9
65344836,0.558837890625,-0.4384765625,-0.59600830078125,-0.37451171875,8071,-352,-667,-5,-1,-8
65354817,0.5582275390625,-0.43829345703125,-0.59619140625,-0.37530517578125,8087,-358,-671,-5,-1,-8
65364801,0.55767822265625,-0.4381103515625,-0.596435546875,-0.37603759765625,8075,-333,-655,-4,-2,-7
65374784,0.55712890625,-0.4378662109375,-0.5966796875,-0.37664794921875,8040,-300,-637,-4,-2,-7
65384771,0.5565185546875,-0.43756103515625,-0.5970458984375,-0.3773193359375,7990,-261,-627,-3,-3,-8
65394756,0.55596923828125,-0.43719482421875,-0.5975341796875,-0.37786865234375,7943,-237,-622,-2,-3,-8
65404741,0.5552978515625,-0.43670654296875,-0.59814453125,-0.37841796875,7902,-225,-591,-1,-4,-9
65414720,0.55474853515625,-0.4361572265625,-0.59881591796875,-0.37884521484375,7893,-202,-567,0,-5,-9
65424702,0.55413818359375,-0.435546875,-0.59967041015625,-0.37908935546875,7885,-176,-555,2,-6,-8
65434684,0.5535888671875,-0.43499755859375,-0.60052490234375,-0.379150390625,7902,-142,-568,3,-6,-8
65444668,0.5531005859375,-0.43450927734375,-0.60137939453125,-0.3790283203125,7938,-120,-588,4,-7,-6
65454653,0.55267333984375,-0.4339599609375,-0.60235595703125,-0.3787841796875,7994,-92,-622,5,-7,-6
65464635,0.5523681640625,-0.43341064453125,-0.603271484375,-0.37835693359375,8046,-65,-659,6,-7,-5
65474619,0.55206298828125,-0.43280029296875,-0.60430908203125,-0.3778076171875,8112,-54,-701,8,-7,-5
65484602,0.5518798828125,-0.43212890625,-0.6053466796875,-0.37725830078125,8173,-36,-758,8,-6,-5
65494585,0.5517578125,-0.43133544921875,-0.60638427734375,-0.37664794921875,8230,-17,-808,9,-6,-5
65504567,0.5516357421875,-0.43048095703125,-0.60748291015625,-0.3759765625,8276,33,-845,10,-5,-5
