subject,Joshua Spiesman
arm,left
label,2
hz,100.17503969388336
time,5.250809

timestamp_us,q0,q1,q2,q3,ax,ay,az,gx,gy,gz
204697990,-0.149169921875,0.64569091796875,-0.27642822265625,0.6959228515625,6638,-4642,121,-1,0,-1
204707975,-0.14910888671875,0.64569091796875,-0.2764892578125,0.69598388671875,6624,-4649,117,-1,0,-1
204717951,-0.14892578125,0.6456298828125,-0.2764892578125,0.696044921875,6629,-4651,114,-1,0,-2
204727934,-0.14874267578125,0.64569091796875,-0.27642822265625,0.696044921875,6629,-4648,99,-1,0,-2
204737915,-0.1485595703125,0.6456298828125,-0.2764892578125,0.69610595703125,6632,-4651,101,-1,0,-1
204747898,-0.1484375,0.6456298828125,-0.27655029296875,0.69610595703125,6635,-4655,101,-1,0,-1
204757884,-0.14837646484375,0.64556884765625,-0.27667236328125,0.6961669921875,6636,-4655,115,-1,0,0
204767865,-0.14825439453125,0.6455078125,-0.27679443359375,0.6961669921875,6636,-4660,121,-2,0,0
204777847,-0.148193359375,0.6453857421875,-0.2769775390625,0.69622802734375,6645,-4680,124,-2,0,0
204787829,-0.14813232421875,0.64532470703125,-0.27716064453125,0.69622802734375,6650,-4684,116,-2,0,0
204797813,-0.14813232421875,0.645263671875,-0.27728271484375,0.69622802734375,6651,-4695,104,-1,0,0
204807796,-0.14801025390625,0.64520263671875,-0.27740478515625,0.6962890625,6658,-4687,112,-1,0,-1
204817778,-0.14788818359375,0.6451416015625,-0.2774658203125,0.69635009765625,6676,-4701,107,-1,0,-1
204827763,-0.147705078125,0.6451416015625,-0.2774658203125,0.6964111328125,6674,-4706,103,-1,1,-2
204837746,-0.1474609375,0.64508056640625,-0.2774658203125,0.69647216796875,6678,-4707,106,-1,1,-1
204847730,-0.1473388671875,0.64501953125,-0.27752685546875,0.696533203125,6671,-4706,99,-1,0,-1
204857707,-0.14715576171875,0.64501953125,-0.277587890625,0.69659423828125,6675,-4698,97,-1,1,-1
204867694,-0.1470947265625,0.6448974609375,-0.2777099609375,0.6966552734375,6660,-4693,100,-2,1,0
204877673,-0.14697265625,0.644775390625,-0.27783203125,0.69671630859375,6654,-4694,109,-2,1,0
204887656,-0.14697265625,0.6446533203125,-0.27801513671875,0.69671630859375,6638,-4678,115,-1,1,0
204897638,-0.14691162109375,0.64459228515625,-0.27813720703125,0.69683837890625,6630,-4685,118,-1,1,0
204907623,-0.14678955078125,0.64447021484375,-0.27825927734375,0.6968994140625,6633,-4688,121,-1,1,-1
204917602,-0.1466064453125,0.6444091796875,-0.2783203125,0.6968994140625,6620,-4685,114,-2,1,-1
204927585,-0.14642333984375,0.64434814453125,-0.27838134765625,0.697021484375,6627,-4694,110,-2,1,-1
204937567,-0.146240234375,0.644287109375,-0.27850341796875,0.69708251953125,6627,-4695,115,-2,1,-1
204947556,-0.1461181640625,0.64422607421875,-0.27862548828125,0.69708251953125,6612,-4704,112,-2,1,0
204957536,-0.14605712890625,0.64410400390625,-0.27880859375,0.6971435546875,6620,-4702,125,-2,1,0
204967516,-0.14599609375,0.64398193359375,-0.27899169921875,0.6971435546875,6625,-4708,121,-2,1,0
204977498,-0.14593505859375,0.6439208984375,-0.2791748046875,0.69720458984375,6635,-4714,108,-2,1,0
204987484,-0.14581298828125,0.64385986328125,-0.279296875,0.69720458984375,6637,-4719,101,-2,0,-1
204997462,-0.14569091796875,0.643798828125,-0.2794189453125,0.697265625,6630,-4734,89,-1,0,-1
205007446,-0.14556884765625,0.64373779296875,-0.2794189453125,0.69732666015625,6615,-4720,98,-1,1,-2
205017425,-0.1453857421875,0.64373779296875,-0.2794189453125,0.6973876953125,6604,-4715,106,-1,0,-1
205027416,-0.145263671875,0.6436767578125,-0.27947998046875,0.69744873046875,6593,-4721,111,-1,0,-1
205037399,-0.14520263671875,0.64361572265625,-0.27947998046875,0.697509765625,6585,-4732,119,-1,0,-1
205047373,-0.1451416015625,0.6435546875,-0.279541015625,0.697509765625,6591,-4731,114,-1,0,-1
205057359,-0.14520263671875,0.6435546875,-0.27960205078125,0.697509765625,6594,-4726,120,-1,0,0
205067344,-0.14520263671875,0.64349365234375,-0.27972412109375,0.697509765625,6578,-4721,120,-1,0,0
205077324,-0.145263671875,0.6434326171875,-0.27984619140625,0.697509765625,6590,-4714,132,-1,0,0
205087308,-0.145263671875,0.64337158203125,-0.2799072265625,0.697509765625,6584,-4704,128,-1,0,0
205097288,-0.145263671875,0.64337158203125,-0.2799072265625,0.697509765625,6588,-4701,120,-1,0,-1
205107270,-0.14520263671875,0.6434326171875,-0.2799072265625,0.697509765625,6597,-4700,111,-1,0,-1
205117254,-0.14508056640625,0.64349365234375,-0.27984619140625,0.697509765625,6590,-4694,113,-1,-1,-1
205127235,-0.14501953125,0.64349365234375,-0.2799072265625,0.697509765625,6598,-4699,108,-1,0,-1
205137227,-0.14501953125,0.64349365234375,-0.27996826171875,0.69744873046875,6604,-4696,104,-1,-1,0
205147207,-0.14508056640625,0.64349365234375,-0.28009033203125,0.6973876953125,6606,-4718,93,-1,-1,0
205157199,-0.1451416015625,0.64349365234375,-0.2801513671875,0.69732666015625,6624,-4724,90,0,-1,0
205167182,-0.14520263671875,0.64349365234375,-0.2802734375,0.69732666015625,6622,-4727,95,-1,-1,0
205177175,-0.14520263671875,0.64349365234375,-0.2802734375,0.69732666015625,6624,-4725,109,0,-1,-1
205187138,-0.1451416015625,0.64349365234375,-0.28021240234375,0.69732666015625,6608,-4717,130,-1,-1,-1
205197123,-0.14508056640625,0.64349365234375,-0.2801513671875,0.6973876953125,6616,-4708,132,0,0,-1
205207105,-0.14508056640625,0.64349365234375,-0.28009033203125,0.6973876953125,6613,-4707,140,0,0,-1
205217089,-0.14508056640625,0.64349365234375,-0.280029296875,0.6973876953125,6615,-4698,130,0,-1,0
205227065,-0.1451416015625,0.64349365234375,-0.28009033203125,0.6973876953125,6605,-4694,122,0,-1,0
205237046,-0.145263671875,0.64349365234375,-0.2801513671875,0.69732666015625,6587,-4691,115,0,-1,0
205247030,-0.1453857421875,0.64349365234375,-0.28021240234375,0.697265625,6587,-4693,116,0,-1,0
205257015,-0.1453857421875,0.64349365234375,-0.2801513671875,0.697265625,6600,-4683,116,0,-1,-1
205266991,-0.1453857421875,0.6435546875,-0.2801513671875,0.697265625,6619,-4687,118,0,-1,-1
205276980,-0.1453857421875,0.6436767578125,-0.28009033203125,0.69720458984375,6613,-4693,111,0,-1,-1
205286959,-0.1453857421875,0.64373779296875,-0.280029296875,0.6971435546875,6612,-4675,117,0,-1,-1
205296945,-0.14544677734375,0.64373779296875,-0.27996826171875,0.6971435546875,6597,-4683,112,0,-1,0
205306924,-0.1455078125,0.643798828125,-0.27996826171875,0.697021484375,6614,-4696,105,0,-1,0
205316905,-0.14556884765625,0.64385986328125,-0.27996826171875,0.69696044921875,6625,-4699,99,0,-1,0
205326888,-0.14569091796875,0.6439208984375,-0.27996826171875,0.6968994140625,6641,-4708,89,0,-1,0
205336874,-0.145751953125,0.64398193359375,-0.2799072265625,0.69683837890625,6637,-4722,97,0,-1,-1
205346852,-0.14581298828125,0.64404296875,-0.27984619140625,0.69683837890625,6647,-4720,107,0,-1,-1
205356832,-0.14581298828125,0.64410400390625,-0.27978515625,0.69677734375,6659,-4719,101,0,-1,-1
205366815,-0.14581298828125,0.6441650390625,-0.2796630859375,0.69677734375,6655,-4717,106,0,-1,-1
205376803,-0.1458740234375,0.6441650390625,-0.27960205078125,0.69677734375,6651,-4712,108,0,-1,0
205386783,-0.14593505859375,0.64422607421875,-0.27960205078125,0.69671630859375,6650,-4705,102,0,-1,0
205396762,-0.14593505859375,0.64422607421875,-0.27960205078125,0.69671630859375,6633,-4688,106,0,-1,0
205406753,-0.14593505859375,0.644287109375,-0.279541015625,0.69671630859375,6640,-4679,106,0,-1,-1
205416736,-0.14593505859375,0.64434814453125,-0.27947998046875,0.69671630859375,6642,-4671,116,-1,-1,-1
205426713,-0.1458740234375,0.64434814453125,-0.2794189453125,0.69671630859375,6629,-4678,111,0,-1,-1
205436698,-0.1458740234375,0.6444091796875,-0.2794189453125,0.6966552734375,6629,-4686,127,0,-1,-1
205446681,-0.1458740234375,0.6444091796875,-0.2794189453125,0.6966552734375,6629,-4696,101,0,-1,-1
205456658,-0.1458740234375,0.64447021484375,-0.2794189453125,0.69659423828125,6629,-4686,88,-1,-1,-1
205466649,-0.1458740234375,0.64447021484375,-0.2794189453125,0.69659423828125,6627,-4688,83,0,-1,0
205476629,-0.1458740234375,0.64453125,-0.2794189453125,0.696533203125,6623,-4687,65,0,-1,0
205486614,-0.14593505859375,0.64459228515625,-0.2794189453125,0.69647216796875,6635,-4689,66,0,-1,0
205496591,-0.14593505859375,0.64459228515625,-0.2794189453125,0.69647216796875,6634,-4675,65,-1,-1,0
205506576,-0.14593505859375,0.6446533203125,-0.27935791015625,0.6964111328125,6634,-4669,75,0,-1,0
205516558,-0.14593505859375,0.64471435546875,-0.27935791015625,0.6964111328125,6627,-4662,75,-1,-1,-1
205526536,-0.1458740234375,0.64471435546875,-0.279296875,0.6964111328125,6621,-4652,71,-1,-1,-1
205536518,-0.14581298828125,0.644775390625,-0.279296875,0.69635009765625,6607,-4634,73,-1,-1,-1
205546499,-0.14581298828125,0.64483642578125,-0.279296875,0.6962890625,6591,-4619,70,-1,-1,-1
205556485,-0.145751953125,0.6448974609375,-0.27935791015625,0.69622802734375,6591,-4615,77,-1,-1,0
205566467,-0.145751953125,0.64495849609375,-0.2794189453125,0.6961669921875,6585,-4603,70,-1,-1,0
205576449,-0.145751953125,0.64508056640625,-0.27947998046875,0.696044921875,6596,-4607,75,-1,-2,0
205586431,-0.145751953125,0.6451416015625,-0.279541015625,0.6959228515625,6592,-4610,65,-1,-1,0
205596420,-0.14569091796875,0.645263671875,-0.2796630859375,0.69580078125,6594,-4613,73,-2,-1,0
205606411,-0.14569091796875,0.64532470703125,-0.27972412109375,0.69573974609375,6590,-4616,73,-2,-1,-1
205616385,-0.14556884765625,0.64544677734375,-0.27978515625,0.69561767578125,6591,-4620,67,-2,-1,-1
205626361,-0.1455078125,0.64556884765625,-0.27984619140625,0.69549560546875,6609,-4623,74,-2,-2,-1
205636344,-0.1453857421875,0.64569091796875,-0.2799072265625,0.69537353515625,6624,-4621,71,-2,-1,-1
205646329,-0.145263671875,0.645751953125,-0.280029296875,0.69525146484375,6623,-4619,63,-2,-1,0
205656311,-0.1451416015625,0.6458740234375,-0.2801513671875,0.69512939453125,6637,-4615,63,-2,-1,0
205666292,-0.14501953125,0.64599609375,-0.28033447265625,0.69500732421875,6638,-4617,54,-2,-1,0
205676276,-0.1448974609375,0.6461181640625,-0.280517578125,0.69488525390625,6648,-4619,47,-2,-1,0
205686258,-0.144775390625,0.64617919921875,-0.28070068359375,0.6947021484375,6652,-4617,45,-3,-1,0
205696236,-0.14459228515625,0.64630126953125,-0.2808837890625,0.694580078125,6670,-4621,41,-3,-1,0
205706227,-0.1444091796875,0.6463623046875,-0.2811279296875,0.6944580078125,6657,-4626,22,-3,-1,0
205716211,-0.14422607421875,0.646484375,-0.28131103515625,0.6943359375,6652,-4630,26,-3,-1,0
205726189,-0.14398193359375,0.64654541015625,-0.281494140625,0.6942138671875,6658,-4635,46,-3,-1,-1
205736180,-0.14373779296875,0.64666748046875,-0.28167724609375,0.694091796875,6651,-4632,36,-3,-1,-1
205746167,-0.1435546875,0.646728515625,-0.28192138671875,0.6939697265625,6643,-4623,39,-3,-1,0
205756139,-0.14337158203125,0.64678955078125,-0.2821044921875,0.69390869140625,6639,-4613,47,-3,-1,0
205766118,-0.1431884765625,0.6468505859375,-0.28240966796875,0.6937255859375,6620,-4622,35,-3,-1,0
205776099,-0.14306640625,0.64691162109375,-0.28265380859375,0.693603515625,6618,-4618,22,-3,-1,0
205786081,-0.14288330078125,0.64703369140625,-0.28289794921875,0.69342041015625,6634,-4613,6,-3,-1,0
205796067,-0.14263916015625,0.64715576171875,-0.28314208984375,0.69329833984375,6636,-4630,-10,-3,-1,-1
205806045,-0.14239501953125,0.64727783203125,-0.2833251953125,0.693115234375,6645,-4634,-11,-3,-1,-1
205816029,-0.14215087890625,0.64739990234375,-0.283447265625,0.6929931640625,6634,-4641,-8,-3,-1,-1
205826018,-0.1419677734375,0.64752197265625,-0.28369140625,0.69281005859375,6634,-4654,-19,-3,-1,0
205835994,-0.141845703125,0.64764404296875,-0.28399658203125,0.692626953125,6627,-4657,-38,-3,-2,1
205845981,-0.14178466796875,0.64776611328125,-0.28436279296875,0.6923828125,6628,-4658,-38,-3,-2,1
205855958,-0.14178466796875,0.6478271484375,-0.28472900390625,0.692138671875,6623,-4646,-37,-3,-2,2
205865940,-0.1417236328125,0.64794921875,-0.28509521484375,0.69189453125,6616,-4647,-35,-3,-2,1
205875924,-0.14166259765625,0.6480712890625,-0.285400390625,0.69171142578125,6600,-4650,-33,-3,-2,0
205885909,-0.1414794921875,0.64825439453125,-0.28558349609375,0.69146728515625,6573,-4633,-44,-3,-2,-1
205895888,-0.1412353515625,0.6484375,-0.2857666015625,0.6912841796875,6567,-4632,-48,-3,-2,-1
205905871,-0.14093017578125,0.648681640625,-0.285888671875,0.69110107421875,6577,-4612,-59,-3,-2,-2
205915853,-0.14068603515625,0.64892578125,-0.2860107421875,0.69085693359375,6574,-4618,-64,-3,-2,-2
205925834,-0.14044189453125,0.649169921875,-0.2861328125,0.69061279296875,6563,-4604,-68,-3,-2,-1
205935823,-0.14019775390625,0.64935302734375,-0.286376953125,0.69036865234375,6572,-4591,-77,-4,-2,0
205945801,-0.1400146484375,0.64959716796875,-0.28662109375,0.69012451171875,6584,-4569,-78,-4,-2,1
205955785,-0.139892578125,0.6497802734375,-0.2869873046875,0.6898193359375,6611,-4553,-81,-4,-2,1
205965765,-0.1397705078125,0.64996337890625,-0.28741455078125,0.68951416015625,6643,-4544,-73,-4,-3,1
205975756,-0.13958740234375,0.650146484375,-0.28778076171875,0.689208984375,6691,-4541,-67,-4,-2,1
205985739,-0.1392822265625,0.65032958984375,-0.28814697265625,0.68890380859375,6741,-4561,-57,-5,-2,0
205995715,-0.1387939453125,0.65057373046875,-0.288330078125,0.688720703125,6857,-4588,-49,-5,-2,-2
206005696,-0.13812255859375,0.6507568359375,-0.2884521484375,0.6885986328125,7000,-4616,-48,-5,-1,-3
206015680,-0.13726806640625,0.6510009765625,-0.28839111328125,0.6885986328125,7154,-4620,-56,-5,0,-4
206025658,-0.13623046875,0.651123046875,-0.2882080078125,0.688720703125,7309,-4616,-50,-5,2,-6
206035642,-0.135009765625,0.6512451171875,-0.287841796875,0.68902587890625,7461,-4623,-43,-4,3,-8
206045629,-0.13336181640625,0.6512451171875,-0.28717041015625,0.6895751953125,7614,-4618,-1,-4,5,-12
206055606,-0.1312255859375,0.6512451171875,-0.2860107421875,0.69049072265625,7767,-4611,59,-3,8,-18
206065590,-0.12835693359375,0.65130615234375,-0.2841796875,0.6917724609375,7898,-4605,130,-4,10,-27
206075572,-0.12451171875,0.6514892578125,-0.281494140625,0.693359375,8048,-4593,190,-3,12,-38
206085557,-0.11962890625,0.65191650390625,-0.27789306640625,0.69525146484375,8272,-4538,241,-3,14,-50
206095538,-0.1136474609375,0.65252685546875,-0.273193359375,0.69757080078125,8517,-4400,323,-2,16,-61
206105523,-0.10675048828125,0.65325927734375,-0.26763916015625,0.70013427734375,8762,-4244,396,-1,18,-70
206115507,-0.09906005859375,0.654052734375,-0.26116943359375,0.70294189453125,9056,-4112,495,-1,19,-79
206125494,-0.09063720703125,0.65484619140625,-0.25396728515625,0.7059326171875,9397,-3984,569,1,21,-88
206135474,-0.08135986328125,0.6558837890625,-0.245849609375,0.70904541015625,9727,-3802,593,2,22,-97
206145457,-0.0711669921875,0.6571044921875,-0.23681640625,0.7120361328125,10005,-3543,597,2,21,-107
206155443,-0.0601806640625,0.6585693359375,-0.226806640625,0.7149658203125,10220,-3206,611,3,21,-117
206165429,-0.0484619140625,0.66021728515625,-0.21600341796875,0.71771240234375,10411,-2829,662,3,20,-124
206175414,-0.0364990234375,0.66180419921875,-0.2047119140625,0.72021484375,10618,-2440,736,4,19,-127
206185394,-0.02459716796875,0.66326904296875,-0.19342041015625,0.72247314453125,10876,-2096,856,4,17,-124
206195369,-0.01318359375,0.66461181640625,-0.18243408203125,0.72442626953125,11157,-1789,947,4,16,-119
206205352,-0.00244140625,0.665771484375,-0.17181396484375,0.72607421875,11381,-1512,1020,5,14,-113
206215334,0.0081787109375,0.6668701171875,-0.16131591796875,0.7274169921875,11579,-1255,1056,5,13,-114
206225317,0.01910400390625,0.66796875,-0.15045166015625,0.728515625,11759,-1007,1079,5,12,-120
206235300,0.03082275390625,0.669189453125,-0.13885498046875,0.72930908203125,11918,-773,1083,5,12,-131
206245287,0.0435791015625,0.67034912109375,-0.12628173828125,0.7298583984375,12053,-555,1071,5,12,-143
206255264,0.057373046875,0.67144775390625,-0.11279296875,0.7301025390625,12133,-361,1046,5,13,-156
206265250,0.07208251953125,0.67236328125,-0.098388671875,0.7301025390625,12198,-198,1020,5,15,-167
206275238,0.0872802734375,0.6728515625,-0.0833740234375,0.72979736328125,12263,-44,991,5,16,-174
206285222,0.10260009765625,0.6729736328125,-0.06805419921875,0.72930908203125,12323,136,951,6,19,-176
206295203,0.11773681640625,0.672607421875,-0.052734375,0.72857666015625,12356,320,892,7,21,-176
206305184,0.13275146484375,0.671875,-0.03729248046875,0.7276611328125,12353,518,829,8,23,-177
206315175,0.147705078125,0.67059326171875,-0.021728515625,0.7265625,12291,735,783,8,25,-179
206325159,0.16265869140625,0.6688232421875,-0.00592041015625,0.725341796875,12193,953,746,9,28,-181
206335134,0.177490234375,0.66656494140625,0.0098876953125,0.723876953125,12103,1164,704,9,30,-182
206345111,0.19195556640625,0.663818359375,0.0255126953125,0.7222900390625,12020,1346,673,9,32,-179
206355094,0.205810546875,0.66070556640625,0.040771484375,0.72064208984375,11925,1545,641,10,34,-175
206365077,0.21905517578125,0.6572265625,0.0557861328125,0.71893310546875,11722,1774,659,11,35,-171
206375058,0.2322998046875,0.6533203125,0.07073974609375,0.71697998046875,11437,2037,711,10,36,-172
206385045,0.245849609375,0.64898681640625,0.08599853515625,0.7147216796875,11150,2315,774,9,37,-178
206395023,0.25994873046875,0.64422607421875,0.10162353515625,0.7120361328125,10877,2617,819,8,37,-184
206405005,0.27459716796875,0.638916015625,0.1175537109375,0.70880126953125,10599,2891,860,6,38,-190
206414989,0.28955078125,0.63323974609375,0.1334228515625,0.70513916015625,10355,3132,888,3,38,-194
206424977,0.304443359375,0.627197265625,0.1490478515625,0.701171875,10125,3360,915,2,38,-192
206434953,0.3189697265625,0.620849609375,0.16412353515625,0.69696044921875,9838,3566,942,0,37,-189
206444937,0.33319091796875,0.6142578125,0.17864990234375,0.69256591796875,9464,3748,997,-1,36,-185
206454917,0.34747314453125,0.60736083984375,0.19305419921875,0.687744140625,9009,3939,1046,-3,35,-187
206464899,0.36224365234375,0.5999755859375,0.20751953125,0.682373046875,8569,4145,1122,-6,34,-193
206474883,0.377685546875,0.59210205078125,0.22216796875,0.67626953125,8215,4344,1157,-8,33,-200
206484871,0.3934326171875,0.58367919921875,0.2366943359375,0.66961669921875,7957,4528,1157,-11,32,-205
206494848,0.4090576171875,0.5750732421875,0.250732421875,0.66253662109375,7723,4645,1108,-13,31,-203
206504831,0.4241943359375,0.56634521484375,0.26409912109375,0.65533447265625,7441,4721,1073,-15,30,-198
206514813,0.4388427734375,0.5574951171875,0.2767333984375,0.64794921875,7108,4763,1054,-17,28,-193
206524797,0.453125,0.54852294921875,0.28875732421875,0.64056396484375,6772,4799,1040,-19,27,-189
206534780,0.4671630859375,0.53936767578125,0.30029296875,0.63287353515625,6456,4834,1020,-21,26,-187
206544767,0.4810791015625,0.530029296875,0.311279296875,0.625,6119,4861,1003,-23,24,-186
206554752,0.49505615234375,0.5203857421875,0.322021484375,0.61669921875,5723,4840,1001,-25,22,-187
206564734,0.50909423828125,0.5103759765625,0.33258056640625,0.60797119140625,5352,4798,999,-26,21,-189
206574710,0.52301025390625,0.50030517578125,0.34271240234375,0.59881591796875,5085,4738,982,-27,19,-188
206584693,0.536376953125,0.49029541015625,0.3521728515625,0.5897216796875,4922,4664,949,-27,18,-182
206594676,0.548828125,0.48077392578125,0.36083984375,0.580810546875,4796,4608,884,-27,16,-174
206604658,0.5604248046875,0.4715576171875,0.3687744140625,0.57220458984375,4634,4537,860,-26,15,-165
206614640,0.57147216796875,0.46258544921875,0.37628173828125,0.56365966796875,4373,4470,842,-25,13,-160
206624623,0.582275390625,0.45355224609375,0.38372802734375,0.55487060546875,4017,4365,841,-24,13,-159
206634605,0.59320068359375,0.44415283203125,0.39129638671875,0.54559326171875,3619,4268,888,-23,12,-164
206644587,0.6043701171875,0.43426513671875,0.3990478515625,0.5355224609375,3257,4191,940,-23,11,-169
206654573,0.61541748046875,0.42425537109375,0.40673828125,0.52508544921875,3007,4164,971,-22,11,-170
206664554,0.62591552734375,0.41448974609375,0.4140625,0.51458740234375,2840,4169,966,-21,10,-165
206674536,0.63543701171875,0.40545654296875,0.420654296875,0.50469970703125,2668,4143,981,-19,9,-151
206684519,0.64385986328125,0.397216796875,0.426513671875,0.49566650390625,2408,4086,1016,-17,8,-137
206694501,0.6514892578125,0.38946533203125,0.43182373046875,0.48712158203125,2042,3990,1078,-15,7,-126
206704485,0.65863037109375,0.38201904296875,0.4368896484375,0.478759765625,1661,3901,1148,-13,6,-122
206714467,0.665771484375,0.37457275390625,0.4420166015625,0.4700927734375,1298,3828,1233,-11,5,-124
206724450,0.67303466796875,0.36676025390625,0.447265625,0.4608154296875,964,3777,1324,-11,5,-129
206734430,0.680419921875,0.35858154296875,0.4527587890625,0.450927734375,668,3737,1414,-9,5,-135
206744419,0.68780517578125,0.35028076171875,0.45819091796875,0.44061279296875,409,3689,1504,-8,5,-136
206754404,0.69488525390625,0.34210205078125,0.46356201171875,0.4302978515625,134,3657,1611,-7,5,-133
206764386,0.701416015625,0.3341064453125,0.4686279296875,0.42022705078125,-183,3616,1743,-6,6,-126
206774362,0.70733642578125,0.32659912109375,0.473388671875,0.4107666015625,-510,3580,1855,-5,6,-116
206784345,0.71258544921875,0.31964111328125,0.477783203125,0.402099609375,-826,3560,1938,-3,7,-105
206794324,0.717041015625,0.31329345703125,0.48187255859375,0.3941650390625,-1143,3545,2023,-2,7,-94
206804308,0.72100830078125,0.307373046875,0.4857177734375,0.38690185546875,-1493,3505,2121,-1,8,-87
206814294,0.7244873046875,0.30169677734375,0.48944091796875,0.3800048828125,-1853,3436,2200,0,10,-81
206824275,0.7275390625,0.2962646484375,0.49334716796875,0.3734130859375,-2208,3339,2248,2,12,-76
206834257,0.73004150390625,0.2911376953125,0.497314453125,0.3671875,-2583,3222,2289,4,15,-70
206844236,0.73211669921875,0.2862548828125,0.50140380859375,0.36138916015625,-2972,3125,2338,6,17,-64
206854228,0.733642578125,0.28179931640625,0.5054931640625,0.35601806640625,-3389,3040,2380,8,18,-56
206864211,0.73468017578125,0.27777099609375,0.50958251953125,0.35107421875,-3832,2957,2422,10,20,-50
206874190,0.7353515625,0.27410888671875,0.51373291015625,0.346435546875,-4283,2902,2486,12,21,-44
206884182,0.73577880859375,0.27069091796875,0.51788330078125,0.34210205078125,-4767,2864,2580,13,22,-40
206894167,0.73590087890625,0.26751708984375,0.52203369140625,0.33795166015625,-5245,2835,2648,15,22,-35
206904138,0.73577880859375,0.26470947265625,0.52618408203125,0.3341064453125,-5720,2790,2690,16,23,-30
206914117,0.7353515625,0.2623291015625,0.53021240234375,0.33050537109375,-6173,2724,2694,18,22,-23
206924099,0.73468017578125,0.26043701171875,0.5340576171875,0.3272705078125,-6611,2646,2701,19,21,-17
206934080,0.73382568359375,0.25897216796875,0.53759765625,0.324462890625,-7039,2611,2728,20,20,-11
206944064,0.73291015625,0.2578125,0.5408935546875,0.322021484375,-7416,2595,2761,19,18,-6
206954049,0.73193359375,0.25714111328125,0.543701171875,0.32000732421875,-7688,2577,2782,19,16,0
206964025,0.7308349609375,0.25701904296875,0.54608154296875,0.31866455078125,-7901,2494,2794,19,13,9
206974008,0.7294921875,0.25762939453125,0.5478515625,0.31817626953125,-7995,2468,2791,19,11,21
206983992,0.72772216796875,0.25933837890625,0.54888916015625,0.31890869140625,-8106,2505,2824,18,8,35
206993980,0.72552490234375,0.2623291015625,0.5491943359375,0.321044921875,-8022,2491,2775,18,6,52
207003957,0.72283935546875,0.2666015625,0.548583984375,0.32464599609375,-7883,2508,2729,18,2,69
207013939,0.7197265625,0.27197265625,0.54705810546875,0.32965087890625,-7635,2525,2651,17,-1,84
207023918,0.71624755859375,0.27825927734375,0.5447998046875,0.33563232421875,-7367,2581,2602,16,-3,94
207033901,0.71246337890625,0.2852783203125,0.54180908203125,0.342529296875,-7010,2626,2528,14,-6,103
207043882,0.708251953125,0.29296875,0.53814697265625,0.35040283203125,-6585,2658,2429,13,-7,114
207053871,0.70355224609375,0.301513671875,0.53375244140625,0.35931396484375,-6088,2671,2326,13,-9,126
207063851,0.69805908203125,0.31097412109375,0.5286865234375,0.36932373046875,-5572,2688,2226,12,-9,139
207073834,0.6917724609375,0.32122802734375,0.52294921875,0.38031005859375,-5055,2720,2093,13,-9,150
207083815,0.6849365234375,0.33197021484375,0.51666259765625,0.39190673828125,-4589,2770,1995,12,-10,157
207093798,0.6776123046875,0.3428955078125,0.510009765625,0.40380859375,-4093,2834,1932,12,-10,160
207103781,0.66998291015625,0.35394287109375,0.5028076171875,0.4158935546875,-3537,2888,1871,11,-11,162
207113760,0.6617431640625,0.36517333984375,0.49517822265625,0.42828369140625,-2885,2922,1758,11,-10,168
207123752,0.6524658203125,0.37713623046875,0.48681640625,0.4415283203125,-2128,2959,1643,12,-9,179
207133734,0.6417236328125,0.3902587890625,0.47747802734375,0.4559326171875,-1374,3028,1499,14,-9,196
207143711,0.62945556640625,0.40423583984375,0.46722412109375,0.47113037109375,-777,3174,1386,16,-8,210
207153693,0.6163330078125,0.41839599609375,0.4564208984375,0.4864501953125,-429,3369,1346,17,-8,214
207163678,0.603271484375,0.43170166015625,0.44573974609375,0.5008544921875,-160,3601,1347,16,-9,204
207173659,0.59100341796875,0.44390869140625,0.43524169921875,0.51385498046875,342,3806,1347,14,-11,187
207183642,0.5792236328125,0.45550537109375,0.42474365234375,0.52587890625,1147,4003,1214,11,-12,175
207193629,0.56671142578125,0.46722412109375,0.41363525390625,0.537841796875,2120,4108,1010,11,-12,179
207203608,0.55267333984375,0.479736328125,0.4014892578125,0.550537109375,3041,4169,797,13,-11,195
207213590,0.53668212890625,0.492919921875,0.38824462890625,0.56402587890625,3669,4242,674,16,-10,213
207223573,0.519775390625,0.50592041015625,0.37451171875,0.57745361328125,3988,4348,636,17,-8,217
207233556,0.503173828125,0.51788330078125,0.36126708984375,0.58990478515625,4360,4535,641,17,-8,206
207243541,0.4871826171875,0.52880859375,0.348388671875,0.60125732421875,5098,4746,595,15,-7,189
207253523,0.47149658203125,0.53912353515625,0.3355712890625,0.61175537109375,6080,4963,477,12,-6,180
207263505,0.45538330078125,0.54913330078125,0.3223876953125,0.62213134765625,6986,5095,325,11,-4,182
207273487,0.4384765625,0.558837890625,0.3087158203125,0.6324462890625,7490,5131,259,11,-2,189
207283471,0.4215087890625,0.5677490234375,0.29510498046875,0.6424560546875,7550,5127,309,10,-1,189
207293456,0.4051513671875,0.5755615234375,0.28216552734375,0.65179443359375,7444,5140,430,10,0,180
207303443,0.38983154296875,0.58233642578125,0.26983642578125,0.6602783203125,7596,5158,516,7,2,167
207313427,0.375,0.5885009765625,0.2576904296875,0.668212890625,8105,5224,508,4,3,160
207323406,0.36004638671875,0.59417724609375,0.2451171875,0.67608642578125,8717,5319,487,1,6,162
207333388,0.34466552734375,0.599365234375,0.23193359375,0.68408203125,9167,5385,465,-3,9,168
207343363,0.3291015625,0.6038818359375,0.21832275390625,0.6922607421875,9289,5389,499,-6,12,172
207353346,0.31396484375,0.6075439453125,0.2047119140625,0.7001953125,9040,5315,596,-10,13,170
207363329,0.300048828125,0.6102294921875,0.19171142578125,0.7076416015625,8533,5254,762,-13,14,160
207373311,0.28759765625,0.612060546875,0.17926025390625,0.71441650390625,8095,5180,979,-17,12,149
207383293,0.27618408203125,0.613525390625,0.1668701171875,0.72064208984375,8039,5115,1148,-22,9,143
207393275,0.2646484375,0.6151123046875,0.15350341796875,0.72662353515625,8283,4976,1296,-27,6,150
207403258,0.25164794921875,0.6170654296875,0.1380615234375,0.73260498046875,8677,4734,1368,-31,2,170
207413239,0.23626708984375,0.61944580078125,0.12030029296875,0.73883056640625,8972,4412,1423,-32,-1,197
207423226,0.21881103515625,0.62200927734375,0.10052490234375,0.7449951171875,8998,4076,1493,-32,-4,220
207433211,0.200439453125,0.6243896484375,0.0799560546875,0.75067138671875,8724,3763,1575,-33,-8,226
207443190,0.18316650390625,0.6263427734375,0.06005859375,0.75531005859375,8293,3487,1711,-34,-12,211
207453182,0.16845703125,0.6278076171875,0.04193115234375,0.7586669921875,8126,3200,1844,-37,-15,183
207463167,0.1566162109375,0.629150390625,0.0255126953125,0.7608642578125,8339,2891,1955,-41,-18,155
207473140,0.146728515625,0.63043212890625,0.01025390625,0.7620849609375,8828,2511,1992,-44,-21,137
207483116,0.137451171875,0.6318359375,-0.00482177734375,0.76275634765625,9368,2077,1949,-44,-22,132
207493099,0.12774658203125,0.6331787109375,-0.02020263671875,0.7630615234375,9725,1639,1889,-44,-23,138
207503082,0.1170654296875,0.63427734375,-0.03619384765625,0.76324462890625,9847,1229,1842,-43,-24,148
207513063,0.10577392578125,0.6351318359375,-0.052490234375,0.76324462890625,9691,919,1821,-42,-24,153
207523045,0.0946044921875,0.63568115234375,-0.06842041015625,0.76300048828125,9458,619,1843,-41,-25,149
207533031,0.08416748046875,0.63604736328125,-0.0836181640625,0.76239013671875,9288,337,1849,-41,-25,140
207543014,0.0745849609375,0.6363525390625,-0.0980224609375,0.761474609375,9220,37,1857,-41,-25,130
207552995,0.0655517578125,0.63653564453125,-0.1119384765625,0.76019287109375,9347,-340,1825,-41,-25,125
207562984,0.05621337890625,0.636474609375,-0.1259765625,0.7587890625,9556,-728,1780,-40,-24,129
207572961,0.04595947265625,0.6361083984375,-0.14044189453125,0.75726318359375,9688,-1124,1721,-38,-23,139
207582942,0.0345458984375,0.6353759765625,-0.15545654296875,0.75555419921875,9695,-1503,1620,-36,-23,149
207592926,0.02239990234375,0.63421630859375,-0.17083740234375,0.753662109375,9561,-1844,1516,-34,-23,154
207602908,0.01007080078125,0.6328125,-0.18597412109375,0.75152587890625,9391,-2135,1408,-32,-23,154
207612891,-0.00201416015625,0.6312255859375,-0.20062255859375,0.7491455078125,9284,-2448,1306,-31,-23,150
207622874,-0.01373291015625,0.629638671875,-0.21484375,0.74639892578125,9298,-2790,1196,-31,-23,145
207632856,-0.025146484375,0.6280517578125,-0.228515625,0.743408203125,9400,-3139,1074,-30,-24,141
207642839,-0.036376953125,0.62640380859375,-0.24188232421875,0.7401123046875,9541,-3490,944,-29,-24,140
207652823,-0.04766845703125,0.62457275390625,-0.2550048828125,0.736572265625,9705,-3825,791,-27,-24,140
207662807,-0.05889892578125,0.6226806640625,-0.26788330078125,0.7327880859375,9825,-4095,649,-27,-25,140
207672789,-0.07000732421875,0.6207275390625,-0.280517578125,0.728759765625,9912,-4295,528,-26,-26,139
207682778,-0.08056640625,0.618896484375,-0.29241943359375,0.7244873046875,9932,-4410,420,-26,-26,132
207692760,-0.09027099609375,0.61724853515625,-0.30352783203125,0.72015380859375,9946,-4485,374,-26,-27,123
207702743,-0.0987548828125,0.61602783203125,-0.31353759765625,0.7158203125,9939,-4523,349,-26,-28,110
207712717,-0.10601806640625,0.615234375,-0.322509765625,0.71148681640625,9892,-4566,368,-27,-29,97
207722702,-0.1119384765625,0.6148681640625,-0.33038330078125,0.707275390625,9802,-4612,364,-27,-29,83
207732684,-0.11669921875,0.61492919921875,-0.33709716796875,0.7032470703125,9659,-4611,341,-27,-28,69
207742667,-0.12042236328125,0.615478515625,-0.3427734375,0.69940185546875,9543,-4564,303,-25,-28,58
207752651,-0.1234130859375,0.61627197265625,-0.34759521484375,0.69580078125,9453,-4490,275,-24,-27,50
207762632,-0.12591552734375,0.61724853515625,-0.3516845703125,0.69244384765625,9418,-4361,309,-22,-27,45
207772614,-0.12811279296875,0.6181640625,-0.35528564453125,0.6893310546875,9446,-4209,409,-21,-26,43
207782596,-0.13031005859375,0.61895751953125,-0.35845947265625,0.68658447265625,9470,-4085,519,-18,-25,41
207792576,-0.13238525390625,0.61968994140625,-0.361328125,0.68402099609375,9500,-3996,612,-16,-24,39
207802561,-0.13427734375,0.62030029296875,-0.3636474609375,0.68182373046875,9539,-3935,660,-13,-22,35
207812542,-0.13592529296875,0.62103271484375,-0.36529541015625,0.67999267578125,9573,-3850,696,-10,-20,30
207822526,-0.13702392578125,0.621826171875,-0.3662109375,0.67852783203125,9577,-3731,736,-7,-19,22
207832509,-0.1373291015625,0.6229248046875,-0.365966796875,0.6776123046875,9639,-3586,807,-4,-16,11
207842486,-0.13677978515625,0.62420654296875,-0.36468505859375,0.67718505859375,9737,-3452,926,-1,-14,0
207852473,-0.13543701171875,0.625732421875,-0.36236572265625,0.67730712890625,9864,-3331,1057,1,-12,-10
207862449,-0.1334228515625,0.62738037109375,-0.3592529296875,0.6778564453125,10006,-3186,1165,3,-10,-17
207872430,-0.13104248046875,0.62896728515625,-0.3555908203125,0.67877197265625,10163,-3075,1208,5,-8,-20
207882420,-0.12860107421875,0.63055419921875,-0.3515625,0.67987060546875,10325,-2958,1180,8,-6,-22
207892403,-0.1260986328125,0.6319580078125,-0.3472900390625,0.68121337890625,10446,-2853,1132,10,-3,-24
207902388,-0.1231689453125,0.63330078125,-0.342529296875,0.682861328125,10501,-2711,1142,12,0,-30
207912363,-0.119384765625,0.63470458984375,-0.3369140625,0.68505859375,10564,-2546,1248,13,3,-41
207922345,-0.11456298828125,0.63623046875,-0.33026123046875,0.68768310546875,10693,-2412,1385,13,6,-53
207932327,-0.10882568359375,0.637939453125,-0.32275390625,0.69061279296875,10873,-2339,1478,14,8,-62
207942311,-0.1024169921875,0.63958740234375,-0.314697265625,0.69378662109375,11105,-2340,1511,15,11,-68
207952293,-0.095703125,0.64111328125,-0.306396484375,0.69708251953125,11315,-2383,1449,16,14,-72
207962276,-0.08868408203125,0.64239501953125,-0.29779052734375,0.7005615234375,11498,-2458,1396,17,18,-76
207972258,-0.0810546875,0.64349365234375,-0.28857421875,0.70428466796875,11639,-2490,1355,18,22,-85
207982250,-0.07244873046875,0.64459228515625,-0.27850341796875,0.70831298828125,11757,-2512,1348,19,25,-97
207992232,-0.062744140625,0.64556884765625,-0.2674560546875,0.7125244140625,11876,-2544,1356,19,28,-109
208002216,-0.052001953125,0.64654541015625,-0.255615234375,0.71685791015625,12049,-2573,1337,19,32,-120
208012199,-0.04052734375,0.64727783203125,-0.2432861328125,0.72119140625,12230,-2615,1312,18,35,-127
208022187,-0.02862548828125,0.64776611328125,-0.23065185546875,0.7254638671875,12438,-2690,1236,18,38,-131
208032168,-0.0167236328125,0.64776611328125,-0.21807861328125,0.72967529296875,12639,-2777,1140,19,42,-132
208042151,-0.00482177734375,0.64739990234375,-0.20550537109375,0.73382568359375,12812,-2871,1042,19,44,-133
208052122,0.00726318359375,0.64666748046875,-0.1927490234375,0.7379150390625,12942,-2935,993,19,47,-138
208062104,0.01983642578125,0.64569091796875,-0.1795654296875,0.7418212890625,13038,-2970,936,19,49,-145
208072087,0.03326416015625,0.64459228515625,-0.16571044921875,0.74560546875,13083,-2958,913,18,51,-156
208082070,0.0477294921875,0.643310546875,-0.151123046875,0.74896240234375,13108,-2925,906,17,52,-168
208092052,0.06298828125,0.64178466796875,-0.13604736328125,0.75201416015625,13179,-2907,882,16,53,-175
208102038,0.07843017578125,0.64007568359375,-0.12091064453125,0.754638671875,13271,-2896,848,15,53,-178
208112020,0.09356689453125,0.63812255859375,-0.1060791015625,0.75677490234375,13326,-2887,829,14,53,-176
208122002,0.10845947265625,0.63592529296875,-0.0914306640625,0.758544921875,13324,-2832,827,14,52,-176
208131990,0.12347412109375,0.63348388671875,-0.07659912109375,0.7598876953125,13233,-2711,845,14,52,-181
208141974,0.13916015625,0.6309814453125,-0.06121826171875,0.76068115234375,13091,-2544,883,13,50,-189
208151951,0.15576171875,0.62823486328125,-0.04522705078125,0.7608642578125,12942,-2379,926,12,50,-201
208164989,0.173095703125,0.6253662109375,-0.028564453125,0.76031494140625,12779,-2192,951,12,48,-210
208171917,0.19073486328125,0.6221923828125,-0.01165771484375,0.75909423828125,12652,-1994,954,11,48,-214
208181899,0.20819091796875,0.61883544921875,0.00518798828125,0.75732421875,12495,-1771,961,12,47,-213
208191881,0.22503662109375,0.615234375,0.021728515625,0.75518798828125,12289,-1516,976,13,45,-209
208201864,0.24127197265625,0.61138916015625,0.0379638671875,0.75262451171875,12035,-1243,1000,13,45,-205
208211847,0.2574462890625,0.607177734375,0.0540771484375,0.74969482421875,11730,-920,1053,13,45,-205
208221829,0.273681640625,0.60260009765625,0.07037353515625,0.74627685546875,11465,-581,1091,12,45,-209
208231811,0.2900390625,0.59765625,0.086669921875,0.7423095703125,11195,-251,1103,11,45,-210
208241794,0.3062744140625,0.59234619140625,0.1029052734375,0.73797607421875,10954,50,1085,10,45,-210
208251778,0.32208251953125,0.58673095703125,0.11883544921875,0.73333740234375,10732,324,1053,10,46,-208
208261765,0.3372802734375,0.58087158203125,0.13427734375,0.728515625,10417,579,1031,9,46,-202
208271748,0.35205078125,0.57464599609375,0.1495361328125,0.72344970703125,9974,841,1027,10,46,-200
208281731,0.366943359375,0.5679931640625,0.1650390625,0.7178955078125,9421,1122,1053,9,46,-203
208291709,0.38262939453125,0.5606689453125,0.18096923828125,0.71160888671875,8827,1429,1113,7,46,-213
208301692,0.399169921875,0.5526123046875,0.1973876953125,0.70440673828125,8275,1735,1181,5,45,-223
208311674,0.416259765625,0.54400634765625,0.21392822265625,0.69635009765625,7742,2014,1236,2,44,-228
208321654,0.43341064453125,0.53497314453125,0.23016357421875,0.68768310546875,7197,2250,1288,0,42,-228
208331638,0.4501953125,0.52557373046875,0.245849609375,0.67864990234375,6649,2436,1329,-2,40,-224
208341617,0.46624755859375,0.51617431640625,0.26068115234375,0.66937255859375,6070,2613,1384,-2,37,-215
208351600,0.4815673828125,0.50677490234375,0.2747802734375,0.6600341796875,5508,2780,1451,-4,35,-207
208361583,0.496337890625,0.49737548828125,0.2879638671875,0.65057373046875,5023,2918,1495,-5,32,-200
208371565,0.510498046875,0.488037109375,0.30035400390625,0.6409912109375,4611,3056,1538,-7,29,-194
208381547,0.524169921875,0.47869873046875,0.31201171875,0.63134765625,4226,3152,1573,-8,27,-189
208391529,0.537353515625,0.4693603515625,0.32305908203125,0.6217041015625,3909,3227,1586,-9,26,-184
208401514,0.54998779296875,0.4600830078125,0.33349609375,0.6119384765625,3622,3253,1584,-10,24,-179
208411496,0.56195068359375,0.450927734375,0.34332275390625,0.60235595703125,3389,3282,1572,-11,23,-172
208421476,0.5731201171875,0.44195556640625,0.35260009765625,0.59307861328125,3171,3291,1565,-10,23,-164
208431460,0.583740234375,0.43304443359375,0.36138916015625,0.583984375,2916,3298,1584,-11,23,-159
208441443,0.59393310546875,0.424072265625,0.3699951171875,0.5748291015625,2632,3308,1596,-11,24,-157
208451431,0.60394287109375,0.41485595703125,0.37847900390625,0.56549072265625,2360,3310,1611,-11,24,-156
208461413,0.61370849609375,0.405517578125,0.38677978515625,0.5560302734375,2109,3306,1627,-11,24,-156
208471395,0.62310791015625,0.3961181640625,0.39501953125,0.5465087890625,1840,3308,1636,-10,24,-153
208481372,0.63201904296875,0.38677978515625,0.40301513671875,0.537109375,1556,3303,1673,-9,25,-148
208491354,0.64019775390625,0.377685546875,0.41064453125,0.5279541015625,1268,3313,1703,-7,25,-140
208501337,0.64752197265625,0.369140625,0.4178466796875,0.51934814453125,984,3337,1736,-6,24,-129
208511321,0.65411376953125,0.361083984375,0.424560546875,0.51129150390625,681,3354,1783,-5,24,-120
208521303,0.66015625,0.35333251953125,0.43096923828125,0.50347900390625,358,3361,1818,-4,23,-114
208531287,0.666015625,0.34564208984375,0.43731689453125,0.49560546875,46,3381,1876,-3,23,-113
208541266,0.67156982421875,0.33807373046875,0.4434814453125,0.48773193359375,-168,3435,1903,-2,22,-111
208551255,0.67669677734375,0.3309326171875,0.44940185546875,0.48004150390625,-392,3452,1937,0,22,-105
208561232,0.68133544921875,0.32415771484375,0.4552001953125,0.47259521484375,-697,3470,1984,2,21,-99
208571222,0.685546875,0.31781005859375,0.4608154296875,0.46533203125,-1056,3473,2015,4,20,-93
208581205,0.689453125,0.31182861328125,0.46624755859375,0.45806884765625,-1466,3470,2059,6,19,-89
208591185,0.6932373046875,0.3060302734375,0.4716796875,0.45074462890625,-1902,3465,2100,8,17,-88
208601175,0.697021484375,0.30029296875,0.47711181640625,0.4429931640625,-2339,3460,2133,10,15,-89
208611158,0.700927734375,0.2945556640625,0.48248291015625,0.43487548828125,-2747,3450,2168,12,14,-91
208621136,0.70477294921875,0.288818359375,0.48785400390625,0.42633056640625,-3149,3408,2204,13,13,-91
208631111,0.70855712890625,0.28326416015625,0.4931640625,0.41766357421875,-3576,3349,2268,16,11,-90
208641095,0.71209716796875,0.27789306640625,0.4984130859375,0.40887451171875,-4023,3290,2323,18,11,-87
208651077,0.7154541015625,0.27294921875,0.50341796875,0.400146484375,-4475,3221,2391,19,9,-81
208661061,0.718505859375,0.26837158203125,0.50811767578125,0.39166259765625,-4935,3147,2473,21,7,-76
208671045,0.721435546875,0.26409912109375,0.5125732421875,0.38336181640625,-5408,3078,2576,22,6,-72
208681025,0.7242431640625,0.25994873046875,0.5167236328125,0.37518310546875,-5834,3030,2686,22,4,-69
208691010,0.72686767578125,0.25616455078125,0.5206298828125,0.36737060546875,-6154,2980,2789,22,4,-63
208700994,0.72900390625,0.2528076171875,0.52398681640625,0.3604736328125,-6389,2926,2902,20,4,-52
208710980,0.7305908203125,0.25006103515625,0.52685546875,0.35491943359375,-6580,2866,3003,18,5,-38
208720956,0.7314453125,0.248046875,0.529296875,0.3509521484375,-6775,2803,3085,16,7,-21
208730936,0.7314453125,0.24700927734375,0.53118896484375,0.348876953125,-6929,2725,3110,13,8,-1
208740923,0.73065185546875,0.2469482421875,0.532470703125,0.34869384765625,-7066,2652,3108,11,9,18
208750904,0.72906494140625,0.24798583984375,0.53314208984375,0.35015869140625,-7156,2590,3084,10,8,36
208760888,0.726806640625,0.2503662109375,0.53302001953125,0.353271484375,-7144,2556,3046,10,6,55
208770871,0.72381591796875,0.2540283203125,0.53216552734375,0.35809326171875,-7065,2534,3004,10,5,74
208780853,0.72003173828125,0.25909423828125,0.530517578125,0.36444091796875,-6925,2546,2948,11,2,92
208790835,0.715576171875,0.26531982421875,0.5283203125,0.37188720703125,-6762,2605,2880,12,1,105
208800815,0.71063232421875,0.2723388671875,0.525634765625,0.380126953125,-6588,2679,2802,12,0,114
208810799,0.705322265625,0.27978515625,0.52252197265625,0.38861083984375,-6409,2759,2728,13,-2,118
208820781,0.699951171875,0.28753662109375,0.51922607421875,0.39715576171875,-6218,2882,2651,14,-4,119
208830761,0.69439697265625,0.2955322265625,0.51556396484375,0.4056396484375,-5958,2953,2544,15,-6,122
208840752,0.6885986328125,0.303955078125,0.5115966796875,0.41424560546875,-5606,3019,2416,16,-8,124
208850735,0.68243408203125,0.3128662109375,0.5072021484375,0.423095703125,-5214,3106,2319,16,-9,129
208860710,0.6759033203125,0.322265625,0.50225830078125,0.432373046875,-4806,3202,2237,17,-11,135
208870693,0.6688232421875,0.3321533203125,0.496826171875,0.4420166015625,-4392,3306,2158,17,-13,141
208880676,0.66131591796875,0.342529296875,0.4908447265625,0.451904296875,-3992,3384,2088,18,-14,147
208890659,0.65338134765625,0.35333251953125,0.484375,0.46209716796875,-3589,3440,2024,18,-16,152
208900642,0.64495849609375,0.364501953125,0.477294921875,0.47247314453125,-3178,3475,1970,19,-18,157
208910629,0.635986328125,0.37615966796875,0.4697265625,0.48297119140625,-2724,3515,1887,20,-20,163
208920607,0.62640380859375,0.3883056640625,0.46148681640625,0.49371337890625,-2191,3576,1778,21,-22,168
208930589,0.61614990234375,0.40087890625,0.45263671875,0.50457763671875,-1627,3669,1662,21,-23,172
208940572,0.60546875,0.4136962890625,0.443359375,0.51531982421875,-1092,3813,1564,22,-25,173
208950555,0.5946044921875,0.42645263671875,0.43377685546875,0.52569580078125,-604,3935,1473,22,-27,171
208960537,0.58380126953125,0.43878173828125,0.42413330078125,0.53533935546875,-130,4030,1398,22,-28,165
208970521,0.5733642578125,0.45068359375,0.414306640625,0.54437255859375,412,4098,1321,20,-29,158
208980504,0.56280517578125,0.46234130859375,0.4044189453125,0.552978515625,1123,4150,1191,19,-29,154
208990486,0.551513671875,0.4742431640625,0.3939208984375,0.56182861328125,2169,4271,1002,19,-28,159
209000467,0.53826904296875,0.4871826171875,0.3819580078125,0.57177734375,3435,4479,735,19,-27,179
209010451,0.52239990234375,0.50128173828125,0.36810302734375,0.583251953125,4620,4673,485,20,-24,207
209020431,0.50408935546875,0.5159912109375,0.35272216796875,0.595947265625,5400,4834,335,21,-22,229
209030421,0.4849853515625,0.52996826171875,0.3369140625,0.6085205078125,5713,4952,297,20,-19,232
209040404,0.466796875,0.54229736328125,0.32208251953125,0.61981201171875,5734,5036,352,19,-17,213
209050387,0.45086669921875,0.55255126953125,0.30908203125,0.62908935546875,5802,5073,394,16,-15,180
209060363,0.43731689453125,0.56103515625,0.29803466796875,0.636474609375,6142,5088,362,14,-13,147
209070347,0.42529296875,0.56842041015625,0.2882080078125,0.64251708984375,6628,5078,273,12,-11,127
209080326,0.41357421875,0.57537841796875,0.27880859375,0.6480712890625,6970,5054,230,12,-10,124
209090309,0.40155029296875,0.58203125,0.269287109375,0.6536865234375,7057,5045,254,12,-9,130
209100294,0.38916015625,0.5885009765625,0.2593994140625,0.65936279296875,6966,5093,331,12,-10,136
209110276,0.37677001953125,0.59466552734375,0.24908447265625,0.6650390625,6912,5164,437,9,-10,139
209120259,0.3643798828125,0.60064697265625,0.2381591796875,0.6705322265625,7189,5228,460,6,-12,142
209130237,0.35125732421875,0.60693359375,0.22607421875,0.676025390625,7757,5269,354,3,-14,151
209140227,0.33685302734375,0.61358642578125,0.2125244140625,0.68170166015625,8228,5225,255,1,-16,166
209150209,0.32159423828125,0.62030029296875,0.19781494140625,0.68743896484375,8426,5107,238,-1,-18,177
209160187,0.306396484375,0.62652587890625,0.1827392578125,0.69287109375,8324,4939,321,-3,-20,177
209170179,0.29217529296875,0.63214111328125,0.1680908203125,0.6976318359375,8063,4781,446,-5,-21,167
209180167,0.279541015625,0.63702392578125,0.154296875,0.7015380859375,7908,4565,573,-9,-23,152
209190139,0.268310546875,0.64154052734375,0.14111328125,0.70452880859375,8075,4317,597,-12,-25,137
209200117,0.2576904296875,0.64599609375,0.12823486328125,0.70697021484375,8442,4042,560,-13,-27,131
209210098,0.2469482421875,0.650390625,0.114990234375,0.70904541015625,8793,3726,515,-14,-29,133
209220080,0.23565673828125,0.65478515625,0.10125732421875,0.71087646484375,8993,3393,478,-14,-30,139
209230065,0.2239990234375,0.65899658203125,0.08734130859375,0.71258544921875,9011,3076,515,-12,-31,142
209240047,0.21234130859375,0.6629638671875,0.07342529296875,0.71405029296875,8895,2799,612,-12,-32,141
209250029,0.20123291015625,0.66650390625,0.0601806640625,0.7152099609375,8852,2526,731,-11,-31,133
209260012,0.19073486328125,0.66973876953125,0.04754638671875,0.71600341796875,9107,2225,758,-12,-31,124
209269996,0.1802978515625,0.67291259765625,0.03509521484375,0.71649169921875,9675,1937,688,-11,-30,123
209279982,0.1690673828125,0.67596435546875,0.02239990234375,0.71685791015625,10246,1664,588,-8,-29,130
209289961,0.15679931640625,0.6788330078125,0.0091552734375,0.71728515625,10607,1380,486,-5,-28,140
209299942,0.143798828125,0.68133544921875,-0.00408935546875,0.7176513671875,10698,1138,438,-2,-27,143
209309928,0.1309814453125,0.68341064453125,-0.01666259765625,0.7178955078125,10530,998,478,0,-25,139
209319910,0.1190185546875,0.68511962890625,-0.02813720703125,0.718017578125,10329,861,547,1,-24,128
209329892,0.10809326171875,0.6865234375,-0.0384521484375,0.7178955078125,10263,738,583,2,-22,116
209339873,0.0977783203125,0.68780517578125,-0.0479736328125,0.71759033203125,10360,623,582,3,-21,110
209349857,0.08758544921875,0.6888427734375,-0.05731201171875,0.71722412109375,10550,463,585,3,-20,111
209359840,0.0767822265625,0.689697265625,-0.06695556640625,0.71685791015625,10697,293,555,5,-19,116
209369820,0.06549072265625,0.69024658203125,-0.076904296875,0.7164306640625,10707,146,540,5,-19,123
209379805,0.0538330078125,0.69036865234375,-0.087158203125,0.716064453125,10587,3,559,6,-17,126
209389785,0.042236328125,0.69024658203125,-0.0972900390625,0.7156982421875,10422,-122,605,5,-16,126
209399766,0.0308837890625,0.68988037109375,-0.107177734375,0.7152099609375,10385,-289,619,5,-15,123
209409756,0.019775390625,0.68939208984375,-0.11700439453125,0.71453857421875,10548,-493,562,4,-15,122
209419739,0.008544921875,0.68878173828125,-0.126953125,0.713623046875,10765,-703,481,4,-14,125
209429715,-0.0030517578125,0.68792724609375,-0.13714599609375,0.712646484375,10877,-946,373,4,-14,129
209439698,-0.0146484375,0.6868896484375,-0.14727783203125,0.71148681640625,10885,-1160,290,4,-13,127
209449682,-0.025634765625,0.68572998046875,-0.1568603515625,0.71026611328125,10795,-1322,242,4,-12,121
209459663,-0.03558349609375,0.6844482421875,-0.16552734375,0.70904541015625,10644,-1453,238,3,-11,109
209469646,-0.0443115234375,0.6832275390625,-0.1732177734375,0.7078857421875,10541,-1562,270,2,-10,97
209479629,-0.052001953125,0.68212890625,-0.18011474609375,0.706787109375,10566,-1687,261,1,-9,88
209489612,-0.05914306640625,0.68096923828125,-0.18658447265625,0.70562744140625,10639,-1810,242,0,-9,85
209499592,-0.066162109375,0.67974853515625,-0.19293212890625,0.7044677734375,10657,-1894,175,1,-8,86
209509574,-0.0732421875,0.678466796875,-0.1993408203125,0.70318603515625,10575,-1957,123,1,-8,86
209519557,-0.08026123046875,0.67706298828125,-0.20562744140625,0.70196533203125,10417,-2002,87,1,-7,85
209529539,-0.0867919921875,0.67572021484375,-0.21136474609375,0.7008056640625,10204,-2030,72,2,-6,78
209539522,-0.09259033203125,0.674560546875,-0.2164306640625,0.69964599609375,9966,-2052,62,1,-7,69
209549505,-0.0972900390625,0.673583984375,-0.22052001953125,0.69866943359375,9747,-2052,79,1,-6,57
209559487,-0.10107421875,0.67291259765625,-0.2237548828125,0.69775390625,9564,-2045,125,0,-7,47
209569470,-0.10394287109375,0.67242431640625,-0.22625732421875,0.69696044921875,9382,-2045,138,-1,-7,39
209579448,-0.10638427734375,0.67218017578125,-0.22833251953125,0.6961669921875,9199,-2035,155,-1,-7,34
209589429,-0.1085205078125,0.6719970703125,-0.23028564453125,0.69537353515625,9033,-2036,160,-1,-7,32
209599420,-0.1107177734375,0.67181396484375,-0.23236083984375,0.69451904296875,8858,-2027,159,-2,-8,33
209609405,-0.11309814453125,0.671630859375,-0.23468017578125,0.69354248046875,8717,-2040,126,-2,-8,36
209619388,-0.1158447265625,0.67132568359375,-0.23736572265625,0.69244384765625,8633,-2075,98,-3,-9,41
209629362,-0.118896484375,0.67095947265625,-0.24029541015625,0.6912841796875,8575,-2123,70,-3,-9,44
209639347,-0.12225341796875,0.6705322265625,-0.24359130859375,0.68994140625,8532,-2188,45,-3,-9,48
209649329,-0.125732421875,0.67010498046875,-0.24700927734375,0.68853759765625,8479,-2266,-10,-3,-10,49
209659310,-0.12921142578125,0.66973876953125,-0.25048828125,0.68695068359375,8438,-2342,-64,-4,-11,49
209669292,-0.1324462890625,0.66943359375,-0.25384521484375,0.6854248046875,8394,-2430,-125,-5,-11,46
209679276,-0.13525390625,0.6693115234375,-0.25701904296875,0.68377685546875,8366,-2545,-187,-6,-11,42
209689258,-0.13763427734375,0.66937255859375,-0.25982666015625,0.68218994140625,8301,-2670,-246,-7,-11,36
209699237,-0.13934326171875,0.669677734375,-0.26220703125,0.6806640625,8231,-2807,-311,-7,-11,29
209709229,-0.140625,0.670166015625,-0.26416015625,0.67919921875,8160,-2971,-369,-8,-12,22
209719211,-0.14129638671875,0.6708984375,-0.26544189453125,0.67779541015625,8091,-3116,-428,-7,-12,15
209729199,-0.14154052734375,0.671875,-0.266357421875,0.6763916015625,8041,-3277,-499,-7,-12,9
209739182,-0.14154052734375,0.67303466796875,-0.26678466796875,0.67510986328125,7986,-3425,-541,-6,-13,4
209749167,-0.14129638671875,0.67431640625,-0.26678466796875,0.67388916015625,7950,-3558,-550,-5,-13,0
209759147,-0.1409912109375,0.67559814453125,-0.26641845703125,0.67279052734375,7914,-3695,-517,-3,-13,-3
209769113,-0.14068603515625,0.67681884765625,-0.2657470703125,0.671875,7887,-3837,-466,-1,-13,-5
209779100,-0.1405029296875,0.67803955078125,-0.26483154296875,0.67108154296875,7861,-3956,-411,1,-13,-6
209789081,-0.1405029296875,0.67913818359375,-0.263671875,0.67041015625,7841,-4055,-346,3,-12,-6
209799063,-0.140625,0.6800537109375,-0.26239013671875,0.669921875,7831,-4144,-276,5,-12,-6
209809045,-0.14093017578125,0.68084716796875,-0.26092529296875,0.66961669921875,7806,-4198,-212,7,-10,-6
209819028,-0.14141845703125,0.6815185546875,-0.2593994140625,0.66943359375,7790,-4236,-174,9,-9,-5
209829012,-0.14208984375,0.6820068359375,-0.25787353515625,0.66943359375,7762,-4237,-142,10,-8,-4
209838993,-0.142822265625,0.682373046875,-0.25628662109375,0.66949462890625,7728,-4214,-126,12,-7,-4
209848982,-0.14361572265625,0.68267822265625,-0.25469970703125,0.66961669921875,7684,-4174,-117,12,-6,-3
209858958,-0.14434814453125,0.68292236328125,-0.25311279296875,0.6697998046875,7625,-4114,-126,12,-5,-3
209868940,-0.14495849609375,0.68310546875,-0.2515869140625,0.6700439453125,7576,-4036,-151,11,-4,-4
209878923,-0.14532470703125,0.683349609375,-0.2501220703125,0.67034912109375,7514,-3959,-186,10,-3,-5
209888907,-0.1455078125,0.68353271484375,-0.248779296875,0.67059326171875,7447,-3879,-260,8,-2,-5
209898888,-0.1453857421875,0.683837890625,-0.24749755859375,0.6707763671875,7393,-3796,-331,6,-2,-6
209908871,-0.14495849609375,0.68408203125,-0.246337890625,0.6710205078125,7357,-3738,-401,3,-1,-7
209918855,-0.144287109375,0.6844482421875,-0.24542236328125,0.671142578125,7339,-3703,-474,1,0,-7
209928835,-0.143310546875,0.68475341796875,-0.24468994140625,0.67132568359375,7318,-3695,-546,-2,0,-8
209938815,-0.14202880859375,0.68511962890625,-0.244140625,0.67144775390625,7292,-3700,-634,-4,1,-9
209948799,-0.14056396484375,0.6854248046875,-0.2437744140625,0.67156982421875,7268,-3717,-699,-6,2,-10
