subject,Joshua Spiesman
arm,right
label,0
hz,100.17698637255546
time,4.741608

timestamp_us,q0,q1,q2,q3,ax,ay,az,gx,gy,gz
268944121,-0.01934814453125,0.039306640625,0.7303466796875,-0.681640625,-133,-7949,-726,-1,-2,-4
268954099,-0.01947021484375,0.0389404296875,0.73046875,-0.6815185546875,-134,-7955,-734,-1,-2,-3
268964085,-0.0196533203125,0.03857421875,0.73065185546875,-0.681396484375,-144,-7963,-738,-1,-2,-3
268974066,-0.01971435546875,0.03826904296875,0.73077392578125,-0.6812744140625,-156,-7991,-729,-1,-1,-3
268984048,-0.01983642578125,0.0380859375,0.73089599609375,-0.68115234375,-162,-8001,-726,-1,-1,-2
268994030,-0.0198974609375,0.03802490234375,0.73101806640625,-0.68096923828125,-170,-8004,-722,-1,-1,-1
269004025,-0.0198974609375,0.0379638671875,0.73114013671875,-0.68084716796875,-169,-8015,-735,-1,0,-1
269014001,-0.0198974609375,0.03802490234375,0.73126220703125,-0.68072509765625,-178,-8015,-732,-2,0,0
269023983,-0.0198974609375,0.03802490234375,0.7314453125,-0.6805419921875,-193,-8022,-738,-1,0,0
269033966,-0.0198974609375,0.0380859375,0.7315673828125,-0.680419921875,-199,-8039,-724,-2,0,-1
269043945,-0.02008056640625,0.03802490234375,0.73162841796875,-0.6802978515625,-216,-8039,-712,-1,0,-2
269053924,-0.02032470703125,0.03790283203125,0.7318115234375,-0.68017578125,-211,-8023,-710,-2,0,-3
269063912,-0.02056884765625,0.03778076171875,0.73193359375,-0.6800537109375,-218,-8025,-698,-2,0,-4
269073891,-0.02093505859375,0.03753662109375,0.7320556640625,-0.67987060546875,-227,-8028,-685,-2,0,-4
269083873,-0.02130126953125,0.03729248046875,0.73223876953125,-0.6796875,-229,-8039,-682,-2,1,-5
269093855,-0.02166748046875,0.03704833984375,0.732421875,-0.67950439453125,-226,-8037,-684,-2,0,-4
269103837,-0.02203369140625,0.03680419921875,0.73260498046875,-0.6793212890625,-229,-8043,-662,-2,0,-4
269113820,-0.0223388671875,0.03668212890625,0.73272705078125,-0.67913818359375,-230,-8048,-662,-2,0,-3
269123807,-0.02252197265625,0.03656005859375,0.73297119140625,-0.67889404296875,-223,-8046,-663,-3,0,-3
269133790,-0.02264404296875,0.0364990234375,0.733154296875,-0.6787109375,-223,-8042,-662,-2,0,-1
269143772,-0.022705078125,0.03656005859375,0.73333740234375,-0.67852783203125,-221,-8038,-668,-3,0,-1
269153753,-0.02264404296875,0.0367431640625,0.7335205078125,-0.67828369140625,-224,-8042,-678,-3,0,1
269163732,-0.0225830078125,0.03692626953125,0.73370361328125,-0.6781005859375,-230,-8038,-674,-3,0,1
269173715,-0.02239990234375,0.037109375,0.73388671875,-0.67791748046875,-242,-8036,-677,-2,0,1
269183697,-0.02227783203125,0.03729248046875,0.7340087890625,-0.677734375,-249,-8041,-657,-2,0,1
269193682,-0.0220947265625,0.0374755859375,0.734130859375,-0.6776123046875,-260,-8048,-650,-3,-1,1
269203662,-0.02203369140625,0.03759765625,0.7342529296875,-0.67742919921875,-271,-8046,-655,-2,-1,0
269213647,-0.02191162109375,0.03759765625,0.734375,-0.67730712890625,-273,-8046,-658,-2,-1,-1
269223625,-0.02191162109375,0.0374755859375,0.73455810546875,-0.67718505859375,-280,-8032,-659,-2,-1,-2
269233607,-0.02191162109375,0.037353515625,0.73468017578125,-0.677001953125,-277,-8027,-664,-2,-1,-2
269243587,-0.02191162109375,0.03717041015625,0.73486328125,-0.6768798828125,-268,-8028,-654,-2,-1,-2
269253569,-0.02197265625,0.03692626953125,0.7349853515625,-0.67669677734375,-270,-8035,-658,-2,-2,-3
269263553,-0.02203369140625,0.03662109375,0.735107421875,-0.67657470703125,-285,-8063,-660,-2,-2,-4
269273535,-0.0220947265625,0.0362548828125,0.7352294921875,-0.67645263671875,-280,-8068,-659,-2,-2,-3
269283517,-0.0220947265625,0.03594970703125,0.73541259765625,-0.67633056640625,-271,-8072,-663,-2,-2,-3
269293500,-0.02203369140625,0.03570556640625,0.73553466796875,-0.67620849609375,-275,-8074,-662,-2,-2,-2
269303483,-0.02197265625,0.035400390625,0.73565673828125,-0.67608642578125,-272,-8078,-655,-2,-3,-2
269313471,-0.02178955078125,0.03515625,0.73577880859375,-0.6759033203125,-270,-8080,-653,-2,-3,-2
269323454,-0.02154541015625,0.034912109375,0.7359619140625,-0.67578125,-268,-8074,-644,-2,-3,-1
269333441,-0.021240234375,0.03472900390625,0.73602294921875,-0.67572021484375,-270,-8082,-641,-2,-3,0
269343412,-0.0208740234375,0.03460693359375,0.73614501953125,-0.67559814453125,-261,-8079,-660,-2,-3,0
269353394,-0.02044677734375,0.03448486328125,0.736328125,-0.67547607421875,-264,-8072,-661,-2,-4,0
269363378,-0.02001953125,0.0343017578125,0.7364501953125,-0.67535400390625,-269,-8073,-660,-2,-4,1
269373359,-0.01953125,0.0341796875,0.736572265625,-0.67523193359375,-265,-8079,-670,-2,-4,1
269383342,-0.01904296875,0.03399658203125,0.7366943359375,-0.67510986328125,-270,-8079,-689,-2,-4,1
269393327,-0.0185546875,0.03387451171875,0.73681640625,-0.67498779296875,-271,-8075,-695,-2,-4,1
269403306,-0.01806640625,0.03363037109375,0.7369384765625,-0.67486572265625,-274,-8063,-696,-2,-5,0
269413290,-0.01763916015625,0.03338623046875,0.73699951171875,-0.67486572265625,-277,-8058,-686,-1,-5,0
269423278,-0.01715087890625,0.0330810546875,0.737060546875,-0.67474365234375,-277,-8058,-685,-1,-5,0
269433260,-0.016845703125,0.03271484375,0.73712158203125,-0.67474365234375,-258,-8074,-694,-1,-5,-1
269443241,-0.0164794921875,0.03228759765625,0.73724365234375,-0.6746826171875,-258,-8080,-719,-1,-5,-1
269453229,-0.01605224609375,0.03192138671875,0.7373046875,-0.67462158203125,-254,-8079,-724,-1,-5,-1
269463213,-0.015625,0.03155517578125,0.73736572265625,-0.67462158203125,-258,-8077,-746,-1,-5,-1
269473193,-0.01519775390625,0.0311279296875,0.73736572265625,-0.674560546875,-249,-8070,-745,-1,-5,-1
269483177,-0.0147705078125,0.03082275390625,0.73736572265625,-0.67462158203125,-240,-8071,-738,0,-5,0
269493153,-0.0142822265625,0.03045654296875,0.73736572265625,-0.67462158203125,-245,-8083,-738,-1,-5,0
269503134,-0.013916015625,0.03009033203125,0.7374267578125,-0.67462158203125,-236,-8106,-741,-1,-5,-1
269513118,-0.0135498046875,0.0296630859375,0.7374267578125,-0.6746826171875,-237,-8122,-744,0,-5,-2
269523097,-0.01318359375,0.0291748046875,0.7374267578125,-0.6746826171875,-237,-8134,-748,0,-5,-2
269533085,-0.01287841796875,0.0286865234375,0.7374267578125,-0.67474365234375,-234,-8156,-743,0,-5,-2
269543063,-0.0125732421875,0.0281982421875,0.7374267578125,-0.67474365234375,-220,-8155,-755,0,-5,-2
269553043,-0.01226806640625,0.02777099609375,0.7374267578125,-0.67474365234375,-205,-8154,-754,0,-5,-2
269563029,-0.011962890625,0.02734375,0.73736572265625,-0.6748046875,-197,-8157,-765,0,-5,-1
269573019,-0.01153564453125,0.027099609375,0.73736572265625,-0.67486572265625,-196,-8160,-773,0,-5,0
269582993,-0.0111083984375,0.02685546875,0.7373046875,-0.6749267578125,-179,-8163,-772,0,-4,1
269592976,-0.01055908203125,0.02679443359375,0.7373046875,-0.67498779296875,-176,-8154,-773,0,-4,2
269602957,-0.010009765625,0.02685546875,0.73724365234375,-0.67498779296875,-165,-8143,-778,0,-4,3
269612942,-0.00946044921875,0.0269775390625,0.73724365234375,-0.675048828125,-160,-8143,-784,0,-4,4
269622922,-0.00885009765625,0.027099609375,0.73712158203125,-0.67510986328125,-156,-8127,-778,1,-3,4
269632906,-0.00823974609375,0.02734375,0.737060546875,-0.67523193359375,-169,-8110,-769,1,-3,4
269642886,-0.00775146484375,0.02752685546875,0.73699951171875,-0.67529296875,-156,-8103,-767,0,-3,4
269652869,-0.00732421875,0.02764892578125,0.7369384765625,-0.67535400390625,-159,-8101,-775,1,-2,2
269662850,-0.00701904296875,0.0277099609375,0.73687744140625,-0.6754150390625,-167,-8095,-789,1,-2,1
269672833,-0.0068359375,0.0277099609375,0.73681640625,-0.675537109375,-155,-8089,-786,1,-2,1
269682819,-0.00677490234375,0.02764892578125,0.7366943359375,-0.67559814453125,-147,-8078,-793,1,-1,0
269692804,-0.0067138671875,0.02764892578125,0.73663330078125,-0.67572021484375,-146,-8062,-789,1,-1,0
269702787,-0.0067138671875,0.02764892578125,0.736572265625,-0.67578125,-149,-8062,-778,1,-1,0
269712770,-0.0067138671875,0.0277099609375,0.7364501953125,-0.6759033203125,-146,-8043,-764,1,0,0
269722745,-0.0067138671875,0.02777099609375,0.736328125,-0.676025390625,-150,-8026,-759,1,0,0
269732727,-0.00677490234375,0.02783203125,0.7362060546875,-0.6761474609375,-153,-8035,-753,1,0,0
269742711,-0.00689697265625,0.0279541015625,0.73614501953125,-0.67620849609375,-161,-8033,-750,1,1,0
269752693,-0.007080078125,0.02801513671875,0.73602294921875,-0.67633056640625,-155,-8045,-738,1,1,-1
269762673,-0.00726318359375,0.028076171875,0.7359619140625,-0.6763916015625,-162,-8048,-719,0,1,-1
269772656,-0.00750732421875,0.028076171875,0.7359619140625,-0.6763916015625,-175,-8037,-703,0,1,-2
269782636,-0.00775146484375,0.028076171875,0.73590087890625,-0.67645263671875,-173,-8034,-683,0,1,-2
269792622,-0.008056640625,0.02813720703125,0.73590087890625,-0.67645263671875,-178,-8031,-686,-1,1,-2
269802600,-0.00823974609375,0.0281982421875,0.7359619140625,-0.6763916015625,-187,-8030,-700,-1,1,-1
269812590,-0.0084228515625,0.02838134765625,0.73602294921875,-0.67633056640625,-198,-8039,-698,-1,1,0
269822566,-0.00848388671875,0.02862548828125,0.736083984375,-0.67626953125,-208,-8038,-685,-1,1,1
269832548,-0.00848388671875,0.0289306640625,0.73614501953125,-0.6761474609375,-226,-8032,-689,-2,1,1
269842532,-0.0084228515625,0.029296875,0.73626708984375,-0.676025390625,-232,-8044,-684,-2,1,2
269852514,-0.00836181640625,0.0296630859375,0.736328125,-0.6759033203125,-238,-8042,-697,-2,1,2
269862496,-0.00830078125,0.030029296875,0.7364501953125,-0.67578125,-240,-8037,-695,-2,1,2
269872483,-0.00823974609375,0.0303955078125,0.736572265625,-0.67559814453125,-231,-8042,-689,-2,1,2
269882467,-0.0081787109375,0.03070068359375,0.73675537109375,-0.6754150390625,-243,-8048,-709,-2,1,1
269892449,-0.0081787109375,0.0308837890625,0.73687744140625,-0.67523193359375,-257,-8045,-705,-3,1,0
269902433,-0.00823974609375,0.031005859375,0.737060546875,-0.67510986328125,-269,-8047,-696,-2,1,-1
269912405,-0.00836181640625,0.031005859375,0.7371826171875,-0.6749267578125,-277,-8051,-707,-2,0,-2
269922389,-0.00860595703125,0.03094482421875,0.73736572265625,-0.67474365234375,-282,-8055,-718,-2,1,-3
269932369,-0.0087890625,0.03082275390625,0.737548828125,-0.674560546875,-292,-8054,-726,-2,0,-3
269942352,-0.009033203125,0.03070068359375,0.7376708984375,-0.67437744140625,-298,-8070,-732,-2,0,-3
269952337,-0.00921630859375,0.03045654296875,0.73779296875,-0.67425537109375,-305,-8079,-734,-2,-1,-3
269962315,-0.0093994140625,0.03021240234375,0.73797607421875,-0.674072265625,-305,-8105,-748,-2,-1,-3
269972299,-0.00958251953125,0.030029296875,0.738037109375,-0.67401123046875,-316,-8115,-751,-2,-1,-3
269982278,-0.00970458984375,0.02978515625,0.7381591796875,-0.67388916015625,-316,-8120,-757,-1,-1,-3
269992269,-0.009765625,0.029541015625,0.73822021484375,-0.673828125,-322,-8137,-760,-1,-1,-3
270002252,-0.00982666015625,0.029296875,0.73828125,-0.67376708984375,-312,-8158,-768,-1,-2,-2
270012240,-0.009765625,0.0291748046875,0.73834228515625,-0.67376708984375,-321,-8175,-775,-1,-2,-2
270022227,-0.00970458984375,0.02899169921875,0.73834228515625,-0.67376708984375,-316,-8177,-778,0,-2,-1
270032213,-0.009521484375,0.02886962890625,0.73828125,-0.67376708984375,-312,-8170,-783,0,-2,-1
270042194,-0.00927734375,0.02874755859375,0.73828125,-0.673828125,-315,-8170,-784,0,-3,0
270052161,-0.009033203125,0.0286865234375,0.73822021484375,-0.67388916015625,-320,-8172,-792,0,-3,0
270062143,-0.0086669921875,0.028564453125,0.7381591796875,-0.6739501953125,-331,-8167,-796,1,-3,0
270072125,-0.00836181640625,0.02850341796875,0.73809814453125,-0.67401123046875,-329,-8144,-803,1,-3,0
270082105,-0.00799560546875,0.02838134765625,0.738037109375,-0.67413330078125,-330,-8154,-792,1,-3,1
270092089,-0.0076904296875,0.0281982421875,0.73797607421875,-0.6741943359375,-321,-8162,-799,1,-3,0
270102070,-0.00738525390625,0.02801513671875,0.73785400390625,-0.67431640625,-314,-8148,-787,1,-4,0
270112055,-0.007080078125,0.02777099609375,0.73773193359375,-0.67449951171875,-311,-8136,-777,1,-4,-1
270122034,-0.0068359375,0.02740478515625,0.73760986328125,-0.67462158203125,-304,-8118,-776,1,-4,-1
270132022,-0.006591796875,0.027099609375,0.737548828125,-0.67474365234375,-302,-8089,-788,1,-4,-2
270142000,-0.00634765625,0.02667236328125,0.7374267578125,-0.67486572265625,-295,-8074,-799,1,-4,-2
270151982,-0.006103515625,0.0262451171875,0.7373046875,-0.67498779296875,-295,-8067,-805,1,-4,-2
270161964,-0.005859375,0.02581787109375,0.73724365234375,-0.67510986328125,-301,-8073,-824,1,-4,-2
270171946,-0.00567626953125,0.025390625,0.7371826171875,-0.67523193359375,-304,-8084,-824,1,-4,-3
270181930,-0.0054931640625,0.02490234375,0.737060546875,-0.67529296875,-295,-8093,-820,1,-4,-3
270191912,-0.00531005859375,0.0244140625,0.73699951171875,-0.6754150390625,-294,-8084,-815,1,-4,-3
270205030,-0.00506591796875,0.02392578125,0.7369384765625,-0.675537109375,-271,-8061,-830,1,-5,-2
270211876,-0.00482177734375,0.0235595703125,0.73687744140625,-0.67559814453125,-255,-8050,-824,0,-4,-1
270221862,-0.00445556640625,0.02325439453125,0.73675537109375,-0.67572021484375,-251,-8030,-810,1,-4,0
270231842,-0.00408935546875,0.02301025390625,0.73675537109375,-0.67578125,-239,-8039,-820,0,-4,0
270241824,-0.00372314453125,0.022705078125,0.7366943359375,-0.67584228515625,-237,-8048,-813,1,-4,0
270251803,-0.0032958984375,0.0224609375,0.7366943359375,-0.67584228515625,-240,-8051,-816,0,-4,0
270261797,-0.00299072265625,0.02215576171875,0.73663330078125,-0.6759033203125,-249,-8055,-831,0,-4,-1
270271777,-0.00274658203125,0.0218505859375,0.73663330078125,-0.6759033203125,-259,-8050,-825,0,-4,-1
270281752,-0.00244140625,0.02154541015625,0.73663330078125,-0.6759033203125,-248,-8030,-830,0,-4,-1
270291734,-0.00225830078125,0.021240234375,0.7366943359375,-0.6759033203125,-228,-8020,-820,0,-3,-1
270301718,-0.00201416015625,0.02099609375,0.7366943359375,-0.6759033203125,-226,-8020,-830,0,-4,-1
270311700,-0.00177001953125,0.020751953125,0.7366943359375,-0.6759033203125,-216,-8024,-813,0,-3,-1
270321686,-0.00152587890625,0.0205078125,0.7366943359375,-0.6759033203125,-200,-8023,-819,0,-3,0
270331671,-0.00128173828125,0.02032470703125,0.73675537109375,-0.67584228515625,-211,-8018,-822,0,-3,0
270341651,-0.00103759765625,0.02020263671875,0.73681640625,-0.67578125,-213,-8028,-818,-1,-3,0
270351632,-0.0008544921875,0.02001953125,0.73681640625,-0.67578125,-212,-8018,-826,0,-3,0
270361618,-0.000732421875,0.0198974609375,0.73687744140625,-0.67572021484375,-214,-8022,-832,0,-2,-1
270371593,-0.00067138671875,0.0196533203125,0.73687744140625,-0.67572021484375,-201,-8012,-829,0,-2,-1
270381577,-0.00067138671875,0.01947021484375,0.73687744140625,-0.67572021484375,-212,-8021,-823,0,-2,-2
270391560,-0.000732421875,0.0191650390625,0.7369384765625,-0.67572021484375,-216,-8044,-817,0,-1,-3
270401539,-0.0008544921875,0.01885986328125,0.7369384765625,-0.67572021484375,-219,-8068,-817,0,-2,-3
270411528,-0.0009765625,0.0185546875,0.7369384765625,-0.67572021484375,-217,-8078,-802,0,-1,-3
270421505,-0.00115966796875,0.018310546875,0.7369384765625,-0.6756591796875,-209,-8084,-810,0,-1,-3
270431487,-0.0013427734375,0.01806640625,0.73699951171875,-0.6756591796875,-208,-8084,-815,0,-1,-3
270441473,-0.00140380859375,0.01788330078125,0.73699951171875,-0.67559814453125,-212,-8077,-818,0,-1,-2
270451465,-0.00140380859375,0.017822265625,0.737060546875,-0.67559814453125,-212,-8073,-817,0,-1,-1
270461451,-0.0013427734375,0.017822265625,0.737060546875,-0.67559814453125,-226,-8071,-798,0,-1,0
270471431,-0.00128173828125,0.01788330078125,0.737060546875,-0.67559814453125,-227,-8067,-802,0,0,0
270481410,-0.001220703125,0.01800537109375,0.737060546875,-0.675537109375,-225,-8068,-792,0,0,1
270491390,-0.00115966796875,0.01812744140625,0.73712158203125,-0.675537109375,-231,-8077,-777,-1,0,0
270501374,-0.0010986328125,0.01824951171875,0.73712158203125,-0.67547607421875,-227,-8079,-781,-1,0,0
270511355,-0.0010986328125,0.01837158203125,0.7371826171875,-0.67547607421875,-221,-8060,-791,0,0,0
270521338,-0.00115966796875,0.0184326171875,0.7371826171875,-0.6754150390625,-208,-8052,-797,0,0,-1
270531321,-0.001220703125,0.01849365234375,0.73724365234375,-0.6754150390625,-212,-8052,-793,0,0,-1
270541299,-0.00140380859375,0.01849365234375,0.73724365234375,-0.67535400390625,-211,-8044,-804,0,1,-2
270551277,-0.0015869140625,0.01849365234375,0.7373046875,-0.67529296875,-208,-8026,-791,0,0,-2
270561271,-0.00177001953125,0.01849365234375,0.7373046875,-0.67529296875,-209,-8021,-777,0,1,-2
270571249,-0.001953125,0.0185546875,0.73736572265625,-0.67523193359375,-215,-8005,-763,-1,1,-1
270581223,-0.00213623046875,0.01861572265625,0.73736572265625,-0.67523193359375,-205,-7991,-757,-1,1,-1
270591219,-0.00225830078125,0.0186767578125,0.7374267578125,-0.6751708984375,-202,-7990,-754,0,1,-1
270601208,-0.00238037109375,0.018798828125,0.73748779296875,-0.67510986328125,-216,-8005,-752,-1,1,0
270611175,-0.00244140625,0.0189208984375,0.737548828125,-0.675048828125,-222,-8003,-757,-1,1,0
270621154,-0.0025634765625,0.01904296875,0.73760986328125,-0.67498779296875,-220,-8021,-749,-1,1,-1
270631132,-0.0028076171875,0.01904296875,0.73760986328125,-0.6749267578125,-222,-8037,-746,-1,1,-2
270641115,-0.00299072265625,0.01904296875,0.7376708984375,-0.67486572265625,-226,-8046,-752,-1,1,-2
270651097,-0.00323486328125,0.01904296875,0.73773193359375,-0.6748046875,-224,-8044,-749,-1,1,-2
270661085,-0.00347900390625,0.01904296875,0.73779296875,-0.67474365234375,-228,-8059,-748,-1,1,-2
270671062,-0.003662109375,0.01904296875,0.73785400390625,-0.6746826171875,-226,-8068,-736,-1,1,-1
270681044,-0.00384521484375,0.01910400390625,0.7379150390625,-0.674560546875,-229,-8079,-738,-1,1,-2
270691030,-0.0040283203125,0.01910400390625,0.73797607421875,-0.67449951171875,-222,-8088,-716,-1,1,-2
270701017,-0.004150390625,0.0191650390625,0.738037109375,-0.67449951171875,-231,-8109,-729,-1,1,-1
270710991,-0.00433349609375,0.01922607421875,0.73809814453125,-0.6744384765625,-224,-8121,-738,-1,1,-1
270720974,-0.00445556640625,0.019287109375,0.7381591796875,-0.67437744140625,-227,-8122,-757,-1,1,-1
270730958,-0.004638671875,0.0194091796875,0.7381591796875,-0.67431640625,-224,-8129,-766,-1,1,-1
270740945,-0.004638671875,0.01953125,0.73822021484375,-0.67431640625,-222,-8128,-767,-1,0,0
270750927,-0.00469970703125,0.0196533203125,0.73822021484375,-0.67425537109375,-214,-8112,-762,0,0,0
270760913,-0.00469970703125,0.0198974609375,0.7381591796875,-0.67425537109375,-221,-8126,-756,0,1,1
270770889,-0.00469970703125,0.02008056640625,0.7381591796875,-0.67431640625,-206,-8126,-748,0,1,0
270780871,-0.0047607421875,0.02020263671875,0.7381591796875,-0.67425537109375,-198,-8109,-751,-1,1,0
270790858,-0.00482177734375,0.02032470703125,0.7381591796875,-0.67425537109375,-204,-8080,-744,0,0,0
270800839,-0.0048828125,0.0203857421875,0.7381591796875,-0.67425537109375,-207,-8065,-748,0,0,-1
270810819,-0.00506591796875,0.02044677734375,0.73822021484375,-0.67425537109375,-211,-8047,-769,0,1,-1
270820808,-0.00518798828125,0.0205078125,0.73822021484375,-0.6741943359375,-218,-8052,-769,-1,1,-1
270830790,-0.00537109375,0.0205078125,0.73822021484375,-0.6741943359375,-221,-8063,-773,0,1,-1
270840774,-0.00555419921875,0.0205078125,0.73822021484375,-0.6741943359375,-213,-8060,-768,0,1,-2
270850752,-0.0057373046875,0.0205078125,0.73822021484375,-0.6741943359375,-207,-8063,-764,0,1,-2
270860734,-0.005859375,0.02056884765625,0.73822021484375,-0.6741943359375,-222,-8055,-756,0,1,-1
270870714,-0.00604248046875,0.0206298828125,0.73828125,-0.6741943359375,-211,-8054,-753,-1,0,-1
270880697,-0.00616455078125,0.0206298828125,0.73828125,-0.6741943359375,-219,-8052,-761,0,1,-1
270890681,-0.00628662109375,0.02069091796875,0.73828125,-0.67413330078125,-217,-8055,-760,0,1,-1
270900663,-0.00640869140625,0.020751953125,0.73828125,-0.67413330078125,-217,-8053,-765,0,0,-1
270910647,-0.00653076171875,0.02081298828125,0.73828125,-0.67413330078125,-218,-8074,-769,0,1,-1
270920625,-0.0067138671875,0.0208740234375,0.73834228515625,-0.674072265625,-221,-8083,-787,-1,1,-1
270930603,-0.0068359375,0.02093505859375,0.73834228515625,-0.674072265625,-213,-8075,-794,-1,1,-1
270940591,-0.00701904296875,0.02099609375,0.7384033203125,-0.67401123046875,-218,-8072,-790,0,1,-1
270950577,-0.00714111328125,0.0211181640625,0.7384033203125,-0.67401123046875,-224,-8072,-779,-1,1,-1
270960555,-0.00726318359375,0.02117919921875,0.7384033203125,-0.6739501953125,-227,-8084,-787,0,1,-1
270970535,-0.00738525390625,0.0213623046875,0.73846435546875,-0.67388916015625,-249,-8090,-792,-1,1,-1
270980517,-0.00750732421875,0.02142333984375,0.738525390625,-0.673828125,-254,-8097,-790,-1,1,-1
270990498,-0.00762939453125,0.021484375,0.73858642578125,-0.673828125,-250,-8101,-804,-1,1,-1
271000483,-0.0078125,0.0216064453125,0.73858642578125,-0.67376708984375,-244,-8090,-790,-1,1,-1
271010465,-0.0079345703125,0.02178955078125,0.7386474609375,-0.6737060546875,-237,-8072,-797,-1,1,0
271020453,-0.00799560546875,0.02197265625,0.73870849609375,-0.67364501953125,-218,-8070,-792,-1,1,0
271030436,-0.00799560546875,0.022216796875,0.73876953125,-0.67352294921875,-221,-8077,-808,-1,1,1
271040411,-0.0079345703125,0.02252197265625,0.73883056640625,-0.6734619140625,-220,-8087,-805,-1,1,1
271050393,-0.0079345703125,0.02288818359375,0.7388916015625,-0.67340087890625,-218,-8098,-801,-1,1,2
271060377,-0.0079345703125,0.023193359375,0.73895263671875,-0.67333984375,-223,-8098,-805,-1,1,1
271070357,-0.0079345703125,0.0234375,0.73895263671875,-0.67327880859375,-218,-8079,-807,-1,1,1
271080339,-0.00799560546875,0.023681640625,0.739013671875,-0.6732177734375,-223,-8070,-803,-1,1,0
271090327,-0.008056640625,0.02386474609375,0.739013671875,-0.6732177734375,-215,-8077,-792,0,1,0
271100306,-0.00823974609375,0.0240478515625,0.739013671875,-0.6732177734375,-209,-8067,-779,-1,1,0
271110290,-0.00830078125,0.02423095703125,0.739013671875,-0.67315673828125,-215,-8065,-779,-1,1,0
271120275,-0.00848388671875,0.02435302734375,0.73907470703125,-0.67315673828125,-213,-8075,-784,-1,1,-1
271130260,-0.00860595703125,0.0245361328125,0.73907470703125,-0.67315673828125,-213,-8079,-795,0,1,-1
271140248,-0.00872802734375,0.024658203125,0.73907470703125,-0.67315673828125,-209,-8077,-786,0,1,0
271150226,-0.00885009765625,0.02484130859375,0.739013671875,-0.67315673828125,-204,-8081,-788,0,1,0
271160212,-0.00897216796875,0.0250244140625,0.739013671875,-0.67315673828125,-202,-8068,-790,0,1,0
271170194,-0.00909423828125,0.02520751953125,0.739013671875,-0.67315673828125,-195,-8078,-801,0,1,0
271180165,-0.00921630859375,0.02545166015625,0.73895263671875,-0.6732177734375,-196,-8077,-807,0,1,0
271190149,-0.0093994140625,0.02557373046875,0.7388916015625,-0.6732177734375,-199,-8077,-803,0,1,-1
271200132,-0.00958251953125,0.02581787109375,0.73883056640625,-0.67327880859375,-203,-8067,-802,1,2,0
271210112,-0.00970458984375,0.02606201171875,0.73876953125,-0.67333984375,-207,-8072,-803,0,2,0
271220093,-0.0098876953125,0.02630615234375,0.73870849609375,-0.67340087890625,-197,-8058,-799,1,2,0
271230077,-0.010009765625,0.02655029296875,0.7386474609375,-0.6734619140625,-195,-8070,-801,0,2,1
271240060,-0.01007080078125,0.02685546875,0.73858642578125,-0.67352294921875,-212,-8073,-799,0,2,0
271250042,-0.01025390625,0.02716064453125,0.738525390625,-0.673583984375,-221,-8073,-802,1,2,0
271260030,-0.0103759765625,0.0274658203125,0.73846435546875,-0.67364501953125,-216,-8072,-803,0,2,1
271270011,-0.010498046875,0.02777099609375,0.7384033203125,-0.6737060546875,-210,-8086,-806,0,2,1
271279988,-0.01068115234375,0.02813720703125,0.73834228515625,-0.67376708984375,-216,-8098,-806,1,2,0
271289972,-0.0108642578125,0.0284423828125,0.73828125,-0.673828125,-216,-8108,-803,1,2,1
271299953,-0.010986328125,0.02880859375,0.7381591796875,-0.6739501953125,-228,-8129,-796,1,2,1
271309936,-0.010986328125,0.029296875,0.738037109375,-0.67401123046875,-235,-8114,-796,1,2,2
271319917,-0.01104736328125,0.02978515625,0.7379150390625,-0.67413330078125,-228,-8112,-777,1,2,3
271329900,-0.01104736328125,0.03033447265625,0.73779296875,-0.67425537109375,-229,-8095,-768,1,2,3
271339882,-0.01104736328125,0.0308837890625,0.7376708984375,-0.67437744140625,-229,-8088,-767,1,3,3
271349864,-0.0111083984375,0.0313720703125,0.737548828125,-0.6744384765625,-222,-8083,-764,1,3,2
271359847,-0.01116943359375,0.0318603515625,0.7374267578125,-0.674560546875,-226,-8086,-763,1,3,2
271369828,-0.01141357421875,0.03216552734375,0.73736572265625,-0.6746826171875,-208,-8065,-763,1,3,0
271379808,-0.01165771484375,0.032470703125,0.73724365234375,-0.67474365234375,-210,-8046,-754,1,2,0
271389801,-0.01190185546875,0.0328369140625,0.73712158203125,-0.67486572265625,-214,-8046,-763,1,3,0
271399782,-0.01220703125,0.0330810546875,0.73699951171875,-0.6749267578125,-210,-8048,-759,1,3,0
271409766,-0.01251220703125,0.03338623046875,0.7369384765625,-0.675048828125,-210,-8050,-757,1,3,-1
271419739,-0.0128173828125,0.03363037109375,0.73681640625,-0.67510986328125,-212,-8041,-751,1,3,-1
271429721,-0.01318359375,0.0338134765625,0.73675537109375,-0.67523193359375,-216,-8051,-753,1,3,-2
271439703,-0.01361083984375,0.03399658203125,0.73663330078125,-0.67529296875,-237,-8052,-747,1,3,-2
271449685,-0.01409912109375,0.0341796875,0.73651123046875,-0.6754150390625,-242,-8059,-754,1,3,-2
271459670,-0.0145263671875,0.0343017578125,0.7364501953125,-0.67547607421875,-241,-8047,-754,1,3,-2
271469650,-0.0150146484375,0.03448486328125,0.73638916015625,-0.675537109375,-241,-8042,-768,1,3,-2
271479632,-0.01544189453125,0.03460693359375,0.73626708984375,-0.67559814453125,-246,-8052,-757,1,3,-2
271489616,-0.015869140625,0.03485107421875,0.7362060546875,-0.6756591796875,-246,-8076,-758,1,3,-2
271499598,-0.016357421875,0.0350341796875,0.736083984375,-0.67572021484375,-242,-8093,-751,1,3,-2
271509579,-0.01678466796875,0.0352783203125,0.736083984375,-0.67578125,-250,-8089,-746,0,3,-2
271519563,-0.0172119140625,0.03546142578125,0.73602294921875,-0.67584228515625,-261,-8090,-736,0,3,-2
271529545,-0.01763916015625,0.03558349609375,0.7359619140625,-0.67584228515625,-255,-8102,-737,0,3,-2
271539527,-0.01806640625,0.03582763671875,0.7359619140625,-0.67584228515625,-257,-8104,-728,0,3,-2
271549509,-0.01849365234375,0.0360107421875,0.73590087890625,-0.67584228515625,-248,-8109,-732,0,3,-1
271559493,-0.018798828125,0.03631591796875,0.73590087890625,-0.67584228515625,-257,-8125,-759,0,3,-1
271569483,-0.01904296875,0.03668212890625,0.73590087890625,-0.67584228515625,-266,-8122,-751,0,3,0
271579468,-0.01922607421875,0.037109375,0.73590087890625,-0.67578125,-271,-8116,-764,0,3,1
271589448,-0.019287109375,0.03765869140625,0.73590087890625,-0.67572021484375,-273,-8110,-768,-1,3,2
271599427,-0.01934814453125,0.0382080078125,0.73590087890625,-0.67572021484375,-264,-8097,-749,-1,3,3
271609403,-0.019287109375,0.038818359375,0.73590087890625,-0.67572021484375,-275,-8086,-732,-1,3,3
271619385,-0.01922607421875,0.03936767578125,0.73590087890625,-0.67572021484375,-270,-8079,-723,-1,3,3
271629373,-0.01922607421875,0.0399169921875,0.73583984375,-0.67572021484375,-273,-8062,-721,0,2,2
271639355,-0.01922607421875,0.04034423828125,0.73583984375,-0.6756591796875,-282,-8042,-722,0,2,2
271649339,-0.01934814453125,0.0406494140625,0.73583984375,-0.6756591796875,-287,-8038,-714,0,2,0
271659327,-0.01953125,0.0408935546875,0.73583984375,-0.67559814453125,-284,-8041,-723,-1,2,-1
271669296,-0.019775390625,0.041015625,0.73590087890625,-0.67559814453125,-300,-8033,-728,-1,2,-2
271679281,-0.02008056640625,0.041015625,0.73590087890625,-0.675537109375,-313,-8041,-732,0,1,-3
271689268,-0.02044677734375,0.04095458984375,0.73590087890625,-0.675537109375,-308,-8047,-730,0,1,-4
271699252,-0.02081298828125,0.040771484375,0.73590087890625,-0.675537109375,-320,-8060,-731,0,1,-4
271709229,-0.021240234375,0.04058837890625,0.73583984375,-0.67559814453125,-313,-8071,-737,0,1,-5
271719221,-0.0216064453125,0.04034423828125,0.73583984375,-0.67559814453125,-308,-8100,-754,0,1,-4
271729202,-0.02197265625,0.0401611328125,0.73577880859375,-0.6756591796875,-293,-8121,-748,0,0,-4
271739179,-0.02227783203125,0.03997802734375,0.7357177734375,-0.67572021484375,-283,-8131,-753,1,0,-3
271749156,-0.0224609375,0.0399169921875,0.73565673828125,-0.67578125,-280,-8152,-760,1,0,-2
271759138,-0.02264404296875,0.039794921875,0.73553466796875,-0.6759033203125,-276,-8160,-754,1,0,-2
271769122,-0.02276611328125,0.039794921875,0.73541259765625,-0.67608642578125,-277,-8152,-755,1,0,-2
271779102,-0.0228271484375,0.03973388671875,0.7352294921875,-0.67620849609375,-273,-8159,-756,2,0,-1
271789086,-0.02294921875,0.03973388671875,0.735107421875,-0.6763916015625,-267,-8151,-747,2,0,-1
271799069,-0.02301025390625,0.03973388671875,0.7349853515625,-0.67657470703125,-264,-8140,-736,1,0,-1
271809051,-0.0230712890625,0.03973388671875,0.73480224609375,-0.67669677734375,-254,-8125,-726,1,0,-1
271819034,-0.02313232421875,0.0396728515625,0.734619140625,-0.6768798828125,-245,-8120,-721,2,0,-1
271829022,-0.023193359375,0.0396728515625,0.7344970703125,-0.67706298828125,-244,-8117,-725,2,0,-1
271838999,-0.02325439453125,0.0396728515625,0.734375,-0.67718505859375,-243,-8092,-727,1,0,-1
271848987,-0.02325439453125,0.03973388671875,0.73419189453125,-0.6773681640625,-234,-8072,-720,1,0,0
271858966,-0.02325439453125,0.039794921875,0.73406982421875,-0.677490234375,-231,-8055,-718,1,0,0
271868947,-0.02325439453125,0.0399169921875,0.73394775390625,-0.6776123046875,-232,-8035,-724,1,0,0
271878929,-0.02337646484375,0.03985595703125,0.73382568359375,-0.677734375,-218,-8032,-712,1,0,-1
271888912,-0.02349853515625,0.03985595703125,0.73370361328125,-0.6778564453125,-214,-8013,-704,1,0,-2
271898893,-0.023681640625,0.039794921875,0.733642578125,-0.677978515625,-205,-8002,-710,1,0,-2
271908873,-0.02398681640625,0.03973388671875,0.73358154296875,-0.67803955078125,-196,-7990,-709,1,1,-3
271918855,-0.02423095703125,0.03961181640625,0.7335205078125,-0.6781005859375,-188,-7983,-709,1,0,-3
271928838,-0.0245361328125,0.03955078125,0.73345947265625,-0.67816162109375,-193,-7987,-699,1,1,-3
271938819,-0.02490234375,0.0394287109375,0.7333984375,-0.67822265625,-190,-7994,-703,1,1,-3
271948801,-0.02520751953125,0.03936767578125,0.73333740234375,-0.67822265625,-195,-8024,-697,0,1,-3
271958791,-0.02557373046875,0.03936767578125,0.73333740234375,-0.67822265625,-198,-8043,-706,0,2,-3
271968772,-0.02593994140625,0.039306640625,0.7332763671875,-0.67828369140625,-200,-8049,-690,0,2,-3
271978749,-0.02630615234375,0.03936767578125,0.7332763671875,-0.67828369140625,-194,-8051,-685,0,1,-2
271988730,-0.026611328125,0.03948974609375,0.73321533203125,-0.67828369140625,-193,-8046,-688,0,2,-1
271998720,-0.02679443359375,0.03973388671875,0.73321533203125,-0.67828369140625,-191,-8054,-685,0,2,0
272008699,-0.0269775390625,0.0400390625,0.73321533203125,-0.67828369140625,-207,-8062,-681,-1,2,0
272018683,-0.02716064453125,0.04034423828125,0.73321533203125,-0.67828369140625,-202,-8065,-675,0,2,0
272028670,-0.02734375,0.04071044921875,0.73321533203125,-0.67822265625,-200,-8088,-675,0,2,0
272038647,-0.027587890625,0.041015625,0.73321533203125,-0.67822265625,-210,-8096,-671,-1,3,0
272048626,-0.02777099609375,0.0413818359375,0.73321533203125,-0.67816162109375,-212,-8079,-668,-1,3,0
272058609,-0.028076171875,0.04168701171875,0.73321533203125,-0.6781005859375,-199,-8060,-670,-1,3,0
272068590,-0.02838134765625,0.04205322265625,0.7332763671875,-0.67803955078125,-187,-8038,-676,-1,3,0
272078577,-0.028564453125,0.04254150390625,0.73321533203125,-0.67803955078125,-193,-8023,-661,-1,4,1
272088558,-0.02874755859375,0.0430908203125,0.73321533203125,-0.67803955078125,-194,-8029,-667,0,3,2
272098539,-0.02886962890625,0.04364013671875,0.73321533203125,-0.677978515625,-196,-8044,-674,-1,3,2
272108520,-0.029052734375,0.044189453125,0.73321533203125,-0.67791748046875,-203,-8056,-676,-1,4,1
272118506,-0.029296875,0.04461669921875,0.73321533203125,-0.67791748046875,-208,-8074,-679,0,3,0
272128486,-0.029541015625,0.0450439453125,0.733154296875,-0.67791748046875,-216,-8080,-675,0,3,0
272138471,-0.0299072265625,0.04541015625,0.733154296875,-0.6778564453125,-231,-8093,-677,0,4,0
272148456,-0.03021240234375,0.04583740234375,0.733154296875,-0.6778564453125,-233,-8083,-685,0,4,0
272158439,-0.03057861328125,0.04620361328125,0.73309326171875,-0.6778564453125,-230,-8086,-685,0,4,0
272168415,-0.0308837890625,0.04656982421875,0.7330322265625,-0.6778564453125,-235,-8081,-678,0,4,0
272178397,-0.03125,0.0469970703125,0.73297119140625,-0.67791748046875,-238,-8085,-679,0,4,0
272188385,-0.03155517578125,0.04736328125,0.73284912109375,-0.677978515625,-242,-8104,-676,1,4,0
272198363,-0.0318603515625,0.0477294921875,0.7327880859375,-0.67803955078125,-243,-8115,-682,0,4,0
272208345,-0.03216552734375,0.048095703125,0.732666015625,-0.6781005859375,-233,-8118,-684,1,3,0
272218327,-0.03253173828125,0.04840087890625,0.73260498046875,-0.67816162109375,-222,-8099,-684,1,3,0
272228311,-0.03277587890625,0.04876708984375,0.73248291015625,-0.67822265625,-237,-8087,-689,1,3,0
272238293,-0.032958984375,0.0491943359375,0.73236083984375,-0.6783447265625,-234,-8073,-685,1,3,0
272248273,-0.03314208984375,0.04962158203125,0.73223876953125,-0.67840576171875,-243,-8073,-685,1,3,1
272258262,-0.0333251953125,0.050048828125,0.73211669921875,-0.67852783203125,-252,-8056,-674,1,3,1
272268243,-0.03350830078125,0.0504150390625,0.73199462890625,-0.67864990234375,-241,-8040,-671,1,2,0
272278225,-0.03369140625,0.05078125,0.73187255859375,-0.6787109375,-237,-8040,-663,1,3,1
272288215,-0.03387451171875,0.05108642578125,0.73175048828125,-0.6788330078125,-232,-8045,-659,1,3,0
272298199,-0.03411865234375,0.0513916015625,0.73162841796875,-0.67889404296875,-227,-8043,-654,1,2,0
272308177,-0.034423828125,0.05157470703125,0.73150634765625,-0.678955078125,-239,-8043,-643,1,2,-1
272318150,-0.03466796875,0.05169677734375,0.7314453125,-0.67901611328125,-252,-8028,-630,0,2,-2
272328132,-0.03497314453125,0.05181884765625,0.73138427734375,-0.6790771484375,-239,-8014,-631,0,2,-2
272338114,-0.0352783203125,0.0518798828125,0.73138427734375,-0.6790771484375,-241,-8005,-629,0,2,-2
272348096,-0.03558349609375,0.0518798828125,0.73138427734375,-0.6790771484375,-232,-8001,-632,0,2,-2
272358085,-0.035888671875,0.05194091796875,0.73138427734375,-0.67901611328125,-233,-8016,-634,0,1,-2
272368061,-0.0361328125,0.05194091796875,0.73138427734375,-0.67901611328125,-224,-8023,-638,-1,1,-2
272378041,-0.036376953125,0.052001953125,0.7314453125,-0.678955078125,-220,-8032,-639,-1,1,-1
272388031,-0.03643798828125,0.05218505859375,0.73150634765625,-0.67889404296875,-221,-8038,-649,-1,1,0
272398013,-0.0364990234375,0.0523681640625,0.7315673828125,-0.67877197265625,-219,-8047,-638,-1,1,0
272407989,-0.0364990234375,0.05255126953125,0.73162841796875,-0.6787109375,-218,-8037,-638,-1,1,1
272417971,-0.03643798828125,0.05279541015625,0.731689453125,-0.67864990234375,-214,-8042,-639,-1,0,1
272427957,-0.03631591796875,0.0531005859375,0.73175048828125,-0.67852783203125,-219,-8057,-646,-1,1,2
272437936,-0.03619384765625,0.05340576171875,0.7318115234375,-0.678466796875,-221,-8076,-647,-2,0,1
272447919,-0.0361328125,0.0535888671875,0.73187255859375,-0.6783447265625,-210,-8087,-657,-2,0,1
272457903,-0.0361328125,0.05377197265625,0.73199462890625,-0.67822265625,-213,-8094,-656,-1,0,0
272467888,-0.03607177734375,0.0538330078125,0.7320556640625,-0.67816162109375,-219,-8086,-659,-2,0,-1
272477867,-0.03619384765625,0.0538330078125,0.73211669921875,-0.67803955078125,-212,-8083,-653,-1,0,-1
272487848,-0.0362548828125,0.0538330078125,0.73223876953125,-0.67791748046875,-207,-8084,-650,-2,0,-1
272497831,-0.03631591796875,0.05377197265625,0.73236083984375,-0.6778564453125,-207,-8080,-649,-1,0,-1
272507809,-0.036376953125,0.05377197265625,0.732421875,-0.677734375,-208,-8078,-653,-2,0,-1
272517802,-0.036376953125,0.0538330078125,0.7325439453125,-0.6776123046875,-210,-8079,-666,-1,0,-1
272527787,-0.036376953125,0.0538330078125,0.73260498046875,-0.67755126953125,-198,-8080,-673,-1,0,0
272537766,-0.036376953125,0.05389404296875,0.732666015625,-0.677490234375,-179,-8078,-681,-1,0,0
272547742,-0.036376953125,0.053955078125,0.73272705078125,-0.67742919921875,-180,-8066,-672,-1,0,0
272557726,-0.03631591796875,0.05401611328125,0.73272705078125,-0.6773681640625,-178,-8070,-673,-1,0,0
272567709,-0.036376953125,0.0540771484375,0.73272705078125,-0.6773681640625,-180,-8073,-677,-1,0,-1
272577694,-0.036376953125,0.0540771484375,0.73272705078125,-0.6773681640625,-179,-8072,-684,0,0,-1
272587677,-0.03643798828125,0.0540771484375,0.7327880859375,-0.6773681640625,-176,-8062,-674,0,0,-1
272597660,-0.03656005859375,0.05401611328125,0.7327880859375,-0.6773681640625,-169,-8080,-674,0,0,-1
272607636,-0.0367431640625,0.053955078125,0.73272705078125,-0.6773681640625,-161,-8094,-676,0,0,-2
272617620,-0.03692626953125,0.0538330078125,0.73272705078125,-0.6773681640625,-170,-8095,-668,0,0,-3
272627601,-0.03717041015625,0.05364990234375,0.73272705078125,-0.6773681640625,-173,-8103,-667,0,0,-3
272637582,-0.03753662109375,0.053466796875,0.73272705078125,-0.67742919921875,-170,-8103,-658,0,0,-4
272647565,-0.037841796875,0.05322265625,0.732666015625,-0.67742919921875,-179,-8096,-662,0,0,-4
272657549,-0.03814697265625,0.052978515625,0.732666015625,-0.67742919921875,-176,-8089,-662,0,0,-4
272667531,-0.0384521484375,0.05279541015625,0.732666015625,-0.67742919921875,-179,-8090,-678,0,0,-3
272677513,-0.0386962890625,0.052734375,0.732666015625,-0.67742919921875,-170,-8094,-679,0,1,-2
272687496,-0.038818359375,0.05279541015625,0.732666015625,-0.67742919921875,-168,-8085,-674,-1,1,-1
272697488,-0.0389404296875,0.0528564453125,0.732666015625,-0.67742919921875,-157,-8087,-670,0,1,0
272707469,-0.0390625,0.052978515625,0.732666015625,-0.67742919921875,-157,-8092,-671,-1,1,0
272717455,-0.0390625,0.05322265625,0.732666015625,-0.67742919921875,-170,-8081,-664,-1,1,0
272727431,-0.0390625,0.05340576171875,0.73260498046875,-0.6773681640625,-168,-8079,-672,-1,1,1
272737408,-0.0390625,0.05364990234375,0.732666015625,-0.6773681640625,-183,-8072,-661,-1,1,1
272747390,-0.03912353515625,0.05389404296875,0.732666015625,-0.67730712890625,-188,-8068,-675,-1,1,0
272757372,-0.03912353515625,0.0540771484375,0.73272705078125,-0.67724609375,-187,-8067,-685,-1,1,0
272767354,-0.03924560546875,0.05426025390625,0.7327880859375,-0.67718505859375,-189,-8072,-676,-1,1,0
272777340,-0.03936767578125,0.054443359375,0.7327880859375,-0.6771240234375,-193,-8073,-679,-1,1,-1
272787318,-0.03948974609375,0.0545654296875,0.73284912109375,-0.67706298828125,-187,-8062,-686,-1,1,-1
272797298,-0.0396728515625,0.0546875,0.73291015625,-0.677001953125,-178,-8056,-680,-1,1,-1
272807279,-0.039794921875,0.0548095703125,0.73291015625,-0.67694091796875,-180,-8061,-686,-1,1,-1
272817272,-0.03997802734375,0.054931640625,0.73297119140625,-0.6768798828125,-186,-8069,-690,-1,1,-1
272827260,-0.04010009765625,0.0550537109375,0.73297119140625,-0.67681884765625,-185,-8074,-696,-1,1,0
272837240,-0.04022216796875,0.0552978515625,0.7330322265625,-0.6767578125,-190,-8070,-706,-1,1,0
272847230,-0.040283203125,0.0555419921875,0.7330322265625,-0.6767578125,-186,-8068,-715,0,1,0
272857214,-0.04034423828125,0.05584716796875,0.7330322265625,-0.67669677734375,-194,-8059,-713,0,1,1
272867191,-0.04034423828125,0.05615234375,0.73297119140625,-0.6767578125,-198,-8057,-707,0,1,1
272877160,-0.04034423828125,0.05645751953125,0.73291015625,-0.6767578125,-197,-8061,-726,0,1,1
272887144,-0.04034423828125,0.05670166015625,0.73291015625,-0.6767578125,-189,-8084,-723,0,1,0
272897130,-0.04046630859375,0.056884765625,0.73284912109375,-0.67681884765625,-197,-8096,-715,0,1,-1
272907107,-0.0406494140625,0.0570068359375,0.7327880859375,-0.67681884765625,-206,-8103,-712,1,1,-1
272917090,-0.0408935546875,0.0570068359375,0.73272705078125,-0.6768798828125,-215,-8106,-726,1,1,-2
272927070,-0.0411376953125,0.0570068359375,0.732666015625,-0.67694091796875,-206,-8112,-710,1,1,-2
272937055,-0.0413818359375,0.0570068359375,0.73260498046875,-0.677001953125,-222,-8097,-707,1,1,-2
272947037,-0.04156494140625,0.0570068359375,0.73248291015625,-0.6771240234375,-212,-8086,-710,1,1,-1
272957025,-0.04168701171875,0.05706787109375,0.732421875,-0.67718505859375,-206,-8081,-710,1,0,-1
272967010,-0.04168701171875,0.05718994140625,0.7322998046875,-0.67730712890625,-203,-8077,-715,1,0,0
272976986,-0.0416259765625,0.057373046875,0.732177734375,-0.6773681640625,-204,-8087,-716,1,0,1
272986967,-0.04156494140625,0.05755615234375,0.73211669921875,-0.677490234375,-191,-8077,-718,1,0,1
272996951,-0.04150390625,0.0577392578125,0.73199462890625,-0.67755126953125,-201,-8067,-702,1,0,1
273006933,-0.0413818359375,0.057861328125,0.73193359375,-0.67767333984375,-198,-8057,-701,1,-1,1
273016917,-0.04132080078125,0.0579833984375,0.7318115234375,-0.677734375,-211,-8048,-710,1,0,1
273026898,-0.04119873046875,0.05810546875,0.73175048828125,-0.67779541015625,-223,-8047,-711,1,-1,0
273036879,-0.0411376953125,0.0582275390625,0.73175048828125,-0.6778564453125,-218,-8047,-712,0,-1,0
273046861,-0.041015625,0.0582275390625,0.731689453125,-0.67791748046875,-227,-8059,-694,0,-1,0
273056843,-0.04095458984375,0.0582275390625,0.731689453125,-0.67791748046875,-213,-8052,-698,0,-1,0
273066826,-0.0408935546875,0.05816650390625,0.731689453125,-0.67791748046875,-209,-8048,-706,0,-1,-1
273076801,-0.04083251953125,0.05810546875,0.731689453125,-0.67791748046875,-208,-8038,-703,0,-1,-1
273086793,-0.040771484375,0.05810546875,0.731689453125,-0.67791748046875,-203,-8030,-706,0,-1,-1
273096785,-0.0406494140625,0.05804443359375,0.731689453125,-0.67791748046875,-201,-8033,-709,0,-1,0
273106758,-0.04052734375,0.0579833984375,0.73175048828125,-0.67791748046875,-205,-8023,-718,0,-1,0
273116738,-0.0404052734375,0.0579833984375,0.73175048828125,-0.6778564453125,-205,-8027,-706,-1,-2,0
273126716,-0.04022216796875,0.05792236328125,0.7318115234375,-0.6778564453125,-198,-8026,-709,-1,-2,0
273136700,-0.04010009765625,0.05792236328125,0.73187255859375,-0.67779541015625,-195,-8036,-710,-1,-2,0
273146681,-0.0399169921875,0.05780029296875,0.73193359375,-0.677734375,-198,-8049,-723,-1,-2,0
273156662,-0.03973388671875,0.0577392578125,0.73199462890625,-0.67767333984375,-202,-8058,-729,-1,-2,0
273166645,-0.03961181640625,0.05767822265625,0.7320556640625,-0.6776123046875,-195,-8067,-737,-1,-2,0
273176632,-0.0394287109375,0.05755615234375,0.73211669921875,-0.67755126953125,-185,-8080,-733,-1,-2,-1
273186610,-0.03936767578125,0.057373046875,0.73223876953125,-0.677490234375,-186,-8096,-735,-1,-2,-1
273196590,-0.03924560546875,0.05718994140625,0.7322998046875,-0.67742919921875,-178,-8100,-734,-1,-2,-1
273206577,-0.0391845703125,0.0570068359375,0.73236083984375,-0.6773681640625,-173,-8101,-733,-1,-2,-1
273216557,-0.0390625,0.05682373046875,0.732421875,-0.67730712890625,-178,-8089,-743,-1,-2,-1
273226538,-0.0389404296875,0.056640625,0.73248291015625,-0.67724609375,-183,-8083,-734,-1,-2,-1
273236521,-0.038818359375,0.0565185546875,0.7325439453125,-0.67724609375,-171,-8077,-726,-1,-2,-1
273246507,-0.03863525390625,0.05633544921875,0.73260498046875,-0.67718505859375,-167,-8079,-727,-1,-3,0
273256485,-0.03839111328125,0.0562744140625,0.732666015625,-0.6771240234375,-159,-8063,-729,-1,-2,0
273266467,-0.0382080078125,0.05615234375,0.7327880859375,-0.67706298828125,-160,-8069,-731,-1,-2,0
273276456,-0.0379638671875,0.05609130859375,0.73284912109375,-0.677001953125,-163,-8060,-731,-1,-2,0
273286439,-0.03778076171875,0.05596923828125,0.73291015625,-0.67694091796875,-172,-8052,-737,-1,-2,0
273296416,-0.03765869140625,0.0557861328125,0.73297119140625,-0.6768798828125,-170,-8059,-727,-1,-2,-1
273306398,-0.03759765625,0.05560302734375,0.7330322265625,-0.6768798828125,-169,-8061,-734,-1,-2,-1
273316379,-0.03759765625,0.055419921875,0.73309326171875,-0.67681884765625,-165,-8073,-736,-1,-2,-2
273326362,-0.03759765625,0.05511474609375,0.733154296875,-0.6767578125,-169,-8092,-740,-1,-2,-2
273336342,-0.03765869140625,0.0548095703125,0.73321533203125,-0.67669677734375,-165,-8081,-732,-1,-2,-3
273346330,-0.0377197265625,0.05450439453125,0.7332763671875,-0.67669677734375,-159,-8079,-737,0,-2,-3
273356316,-0.03778076171875,0.05426025390625,0.73333740234375,-0.6766357421875,-162,-8085,-746,0,-2,-2
273366297,-0.03790283203125,0.053955078125,0.73333740234375,-0.6766357421875,-148,-8076,-737,0,-1,-2
273376273,-0.03790283203125,0.05377197265625,0.7333984375,-0.6766357421875,-154,-8075,-737,-1,-1,-2
273386267,-0.0379638671875,0.0535888671875,0.73345947265625,-0.67657470703125,-148,-8079,-736,0,-1,-2
273396246,-0.03802490234375,0.05340576171875,0.73345947265625,-0.676513671875,-150,-8098,-739,-1,-1,-2
273406228,-0.03802490234375,0.05328369140625,0.7335205078125,-0.676513671875,-154,-8105,-737,0,-1,-2
273416217,-0.0380859375,0.05316162109375,0.7335205078125,-0.676513671875,-156,-8112,-732,0,-1,-1
273426200,-0.03802490234375,0.0531005859375,0.7335205078125,-0.676513671875,-157,-8110,-734,0,-1,-1
273436179,-0.0380859375,0.05303955078125,0.73358154296875,-0.676513671875,-148,-8098,-729,0,-1,-1
273446157,-0.0380859375,0.05303955078125,0.73358154296875,-0.67645263671875,-156,-8092,-730,0,-1,-1
273456143,-0.0380859375,0.05303955078125,0.73358154296875,-0.67645263671875,-159,-8096,-723,0,0,-1
273466123,-0.03814697265625,0.05303955078125,0.733642578125,-0.6763916015625,-168,-8095,-733,0,0,-1
273476102,-0.0382080078125,0.05303955078125,0.733642578125,-0.6763916015625,-163,-8088,-732,-1,0,-1
273486085,-0.03826904296875,0.05303955078125,0.73370361328125,-0.67633056640625,-146,-8084,-735,-1,0,-1
273496068,-0.038330078125,0.0531005859375,0.73370361328125,-0.67626953125,-144,-8082,-740,0,0,-1
273506055,-0.03839111328125,0.05316162109375,0.7337646484375,-0.67626953125,-148,-8093,-743,-1,0,0
273516030,-0.0384521484375,0.05328369140625,0.7337646484375,-0.67620849609375,-147,-8094,-731,-1,1,0
273526018,-0.03857421875,0.053466796875,0.7337646484375,-0.67620849609375,-153,-8088,-730,-1,1,0
273535992,-0.0386962890625,0.05364990234375,0.7337646484375,-0.6761474609375,-155,-8094,-735,-1,1,0
273545981,-0.038818359375,0.0537109375,0.7337646484375,-0.6761474609375,-150,-8104,-730,0,1,-1
273555960,-0.0390625,0.0538330078125,0.7337646484375,-0.67608642578125,-151,-8111,-738,0,2,-1
273565945,-0.0394287109375,0.05389404296875,0.7337646484375,-0.67608642578125,-144,-8102,-730,0,2,-2
273575922,-0.0396728515625,0.05401611328125,0.7337646484375,-0.67608642578125,-129,-8082,-725,0,2,-1
273585905,-0.03997802734375,0.05426025390625,0.7337646484375,-0.676025390625,-144,-8064,-740,0,2,-1
273595895,-0.0401611328125,0.05450439453125,0.7337646484375,-0.676025390625,-149,-8065,-738,0,2,0
273605875,-0.0404052734375,0.05474853515625,0.7337646484375,-0.676025390625,-138,-8060,-728,0,2,0
273615853,-0.0406494140625,0.0550537109375,0.73370361328125,-0.676025390625,-132,-8061,-713,0,3,0
273625837,-0.04095458984375,0.055419921875,0.73370361328125,-0.67596435546875,-141,-8042,-716,0,3,0
273635819,-0.04119873046875,0.05584716796875,0.733642578125,-0.67596435546875,-151,-8030,-722,0,4,1
273645807,-0.04144287109375,0.05633544921875,0.733642578125,-0.6759033203125,-151,-8009,-723,-1,3,1
273655792,-0.04168701171875,0.0567626953125,0.733642578125,-0.6759033203125,-149,-7990,-718,0,4,1
273665772,-0.04193115234375,0.05731201171875,0.733642578125,-0.67584228515625,-159,-7979,-721,-1,4,1
273675745,-0.042236328125,0.057861328125,0.733642578125,-0.67578125,-157,-7989,-732,-1,4,1
273685729,-0.0426025390625,0.05828857421875,0.733642578125,-0.67572021484375,-159,-7994,-729,-1,4,0
