subject,Joshua Spiesman
arm,left
label,1
hz,100.1751513138606
time,3.543793

timestamp_us,q0,q1,q2,q3,ax,ay,az,gx,gy,gz
115086436,0.51934814453125,-0.574462890625,0.16436767578125,-0.61102294921875,4042,-6166,2119,-12,31,-18
115096418,0.51629638671875,-0.57330322265625,0.16583251953125,-0.6142578125,4005,-6039,2095,-13,31,-22
115106400,0.512939453125,-0.57220458984375,0.16717529296875,-0.61773681640625,3954,-5903,2101,-14,32,-25
115116376,0.5091552734375,-0.57122802734375,0.16827392578125,-0.62139892578125,3904,-5780,2112,-15,32,-29
115126360,0.505126953125,-0.5703125,0.16925048828125,-0.62530517578125,3863,-5662,2160,-17,31,-32
115136343,0.500732421875,-0.569580078125,0.17010498046875,-0.62921142578125,3822,-5563,2228,-18,30,-35
115146327,0.49615478515625,-0.56903076171875,0.1708984375,-0.63311767578125,3806,-5482,2309,-20,29,-36
115156308,0.49139404296875,-0.568603515625,0.17156982421875,-0.63702392578125,3807,-5439,2397,-21,28,-38
115166293,0.486572265625,-0.56829833984375,0.172119140625,-0.64080810546875,3821,-5427,2504,-22,25,-38
115176275,0.4818115234375,-0.56817626953125,0.17254638671875,-0.6444091796875,3833,-5446,2615,-22,23,-38
115186259,0.47723388671875,-0.568115234375,0.17291259765625,-0.64776611328125,3847,-5518,2732,-21,20,-37
115196239,0.472900390625,-0.5682373046875,0.1732177734375,-0.6507568359375,3883,-5609,2841,-21,17,-34
115206231,0.468994140625,-0.56842041015625,0.17352294921875,-0.6533203125,3947,-5686,2912,-20,13,-30
115216212,0.465576171875,-0.56884765625,0.17388916015625,-0.65533447265625,4054,-5737,2937,-19,9,-25
115226194,0.46270751953125,-0.569580078125,0.17431640625,-0.6566162109375,4188,-5788,2890,-19,5,-19
115236182,0.46026611328125,-0.57061767578125,0.17486572265625,-0.65728759765625,4321,-5809,2800,-19,0,-13
115246165,0.4581298828125,-0.572021484375,0.17547607421875,-0.6573486328125,4442,-5819,2664,-20,-4,-11
115256139,0.4559326171875,-0.573974609375,0.17596435546875,-0.6571044921875,4576,-5812,2481,-21,-8,-11
115266116,0.45343017578125,-0.57635498046875,0.1761474609375,-0.65667724609375,4701,-5785,2284,-23,-10,-15
115276098,0.4503173828125,-0.57916259765625,0.1759033203125,-0.6563720703125,4846,-5737,2074,-24,-13,-21
115286081,0.44671630859375,-0.5823974609375,0.17523193359375,-0.65618896484375,4995,-5679,1876,-25,-14,-26
115296063,0.4425048828125,-0.5858154296875,0.17425537109375,-0.65625,5130,-5593,1707,-26,-14,-31
115306051,0.4378662109375,-0.58941650390625,0.17303466796875,-0.656494140625,5278,-5497,1538,-27,-14,-34
115316029,0.432861328125,-0.59307861328125,0.1717529296875,-0.6568603515625,5428,-5403,1397,-28,-13,-36
115326012,0.42767333984375,-0.59674072265625,0.1705322265625,-0.65728759765625,5578,-5325,1267,-30,-12,-37
115335996,0.42242431640625,-0.6002197265625,0.16949462890625,-0.65771484375,5719,-5272,1171,-31,-10,-35
115345981,0.4173583984375,-0.60357666015625,0.16888427734375,-0.6580810546875,5847,-5252,1110,-32,-8,-31
115355957,0.41253662109375,-0.60662841796875,0.1688232421875,-0.65826416015625,5962,-5248,1065,-32,-6,-26
115365939,0.40814208984375,-0.609375,0.16937255859375,-0.6583251953125,6030,-5249,1051,-33,-5,-20
115375922,0.404296875,-0.61187744140625,0.1705322265625,-0.6580810546875,6059,-5239,1038,-34,-3,-12
115385906,0.4010009765625,-0.61407470703125,0.1722412109375,-0.6575927734375,6044,-5237,1038,-33,-3,-6
115395886,0.398193359375,-0.61602783203125,0.1744384765625,-0.65692138671875,5996,-5213,1065,-33,-2,-1
115405878,0.395751953125,-0.61785888671875,0.17694091796875,-0.65606689453125,5962,-5214,1102,-33,-2,3
115415852,0.39361572265625,-0.61956787109375,0.17962646484375,-0.65496826171875,5980,-5238,1152,-33,-2,6
115425834,0.39166259765625,-0.6212158203125,0.18243408203125,-0.65380859375,6045,-5306,1183,-33,-3,8
115435818,0.3897705078125,-0.6229248046875,0.185302734375,-0.6524658203125,6127,-5409,1208,-33,-4,9
115445800,0.38787841796875,-0.624755859375,0.1881103515625,-0.65106201171875,6229,-5520,1234,-33,-5,8
115455785,0.3857421875,-0.6265869140625,0.190673828125,-0.6497802734375,6357,-5625,1290,-34,-5,5
115465771,0.3831787109375,-0.62860107421875,0.19281005859375,-0.64874267578125,6546,-5676,1371,-34,-6,0
115475753,0.380126953125,-0.6307373046875,0.19439697265625,-0.6480712890625,6810,-5730,1463,-35,-6,-6
115485734,0.3763427734375,-0.63299560546875,0.1954345703125,-0.647705078125,7130,-5829,1484,-35,-6,-13
115495711,0.371826171875,-0.63543701171875,0.19586181640625,-0.64776611328125,7477,-5956,1472,-35,-4,-21
115505695,0.3665771484375,-0.63800048828125,0.19573974609375,-0.6483154296875,7844,-6126,1419,-35,-2,-30
115515684,0.3604736328125,-0.64044189453125,0.19500732421875,-0.6495361328125,8221,-6305,1333,-34,1,-39
115525664,0.35369873046875,-0.642822265625,0.19378662109375,-0.65130615234375,8603,-6473,1254,-33,5,-47
115535646,0.34625244140625,-0.64495849609375,0.19195556640625,-0.65374755859375,9002,-6562,1226,-32,10,-53
115545628,0.33837890625,-0.64654541015625,0.189697265625,-0.65692138671875,9412,-6637,1238,-31,15,-59
115555611,0.33013916015625,-0.64764404296875,0.187255859375,-0.66070556640625,9831,-6754,1234,-28,22,-62
115565594,0.3216552734375,-0.648193359375,0.1846923828125,-0.6650390625,10207,-6892,1162,-26,28,-65
115575577,0.3128662109375,-0.64813232421875,0.1820068359375,-0.6700439453125,10505,-6953,1080,-24,36,-69
115585557,0.3035888671875,-0.64739990234375,0.17889404296875,-0.67584228515625,10729,-6905,1037,-21,44,-76
115595544,0.29376220703125,-0.6458740234375,0.1751708984375,-0.68255615234375,10891,-6755,1069,-18,52,-83
115605527,0.2835693359375,-0.6435546875,0.1710205078125,-0.69012451171875,10976,-6541,1147,-15,60,-87
115615512,0.273193359375,-0.640380859375,0.166748046875,-0.6982421875,10992,-6278,1274,-12,68,-88
115625494,0.262939453125,-0.63629150390625,0.16259765625,-0.70684814453125,10947,-6007,1418,-11,74,-86
115635476,0.25311279296875,-0.6314697265625,0.15899658203125,-0.71551513671875,10807,-5747,1545,-10,79,-80
115645460,0.24395751953125,-0.62603759765625,0.15606689453125,-0.72406005859375,10594,-5520,1673,-9,82,-72
115655440,0.23565673828125,-0.6201171875,0.1539306640625,-0.7322998046875,10341,-5286,1805,-9,83,-63
115665430,0.22802734375,-0.61395263671875,0.15240478515625,-0.740234375,10064,-5085,1960,-9,83,-56
115675413,0.22088623046875,-0.607666015625,0.15118408203125,-0.74774169921875,9758,-4915,2094,-10,81,-52
115685405,0.21392822265625,-0.6015625,0.1500244140625,-0.75494384765625,9474,-4813,2231,-9,78,-53
115695375,0.20660400390625,-0.59564208984375,0.1485595703125,-0.76190185546875,9249,-4788,2392,-9,75,-58
115705359,0.19873046875,-0.590087890625,0.146484375,-0.76873779296875,9061,-4832,2571,-9,72,-67
115715340,0.18994140625,-0.58477783203125,0.1436767578125,-0.77545166015625,8895,-4934,2731,-9,69,-79
115725324,0.18011474609375,-0.579833984375,0.139892578125,-0.78216552734375,8748,-5045,2866,-7,67,-92
115735305,0.16937255859375,-0.5751953125,0.13519287109375,-0.788818359375,8602,-5150,2950,-5,64,-103
115745284,0.15814208984375,-0.57073974609375,0.12957763671875,-0.7952880859375,8482,-5272,3005,-2,62,-111
115755271,0.14666748046875,-0.56646728515625,0.12335205078125,-0.801513671875,8391,-5385,3026,2,60,-116
115765256,0.13531494140625,-0.56219482421875,0.1165771484375,-0.80755615234375,8387,-5469,3049,7,59,-118
115775240,0.12432861328125,-0.557861328125,0.109375,-0.81329345703125,8420,-5513,3077,12,58,-117
115785224,0.11395263671875,-0.55340576171875,0.10198974609375,-0.81878662109375,8457,-5548,3120,16,56,-114
115795206,0.10430908203125,-0.54888916015625,0.0943603515625,-0.823974609375,8484,-5565,3121,21,56,-110
115805192,0.09552001953125,-0.54425048828125,0.086669921875,-0.8289794921875,8507,-5541,3114,26,56,-104
115815176,0.087646484375,-0.53948974609375,0.0789794921875,-0.833740234375,8515,-5513,3107,31,55,-99
115825157,0.08062744140625,-0.53466796875,0.07110595703125,-0.8382568359375,8498,-5443,3102,36,54,-93
115835128,0.07415771484375,-0.52978515625,0.06298828125,-0.84259033203125,8467,-5302,3077,40,54,-91
115845112,0.06768798828125,-0.52496337890625,0.05438232421875,-0.84674072265625,8424,-5137,3070,43,53,-94
115855094,0.0609130859375,-0.52008056640625,0.04510498046875,-0.85076904296875,8415,-4950,3057,46,53,-100
115865079,0.0535888671875,-0.5152587890625,0.03515625,-0.85467529296875,8406,-4748,3066,48,52,-106
115875060,0.0457763671875,-0.51043701171875,0.024658203125,-0.8583984375,8440,-4565,3059,50,52,-112
115885041,0.037841796875,-0.505615234375,0.01385498046875,-0.86187744140625,8466,-4381,3060,52,51,-113
115895025,0.030029296875,-0.50079345703125,0.0029296875,-0.8651123046875,8474,-4164,3041,53,50,-112
115905005,0.02215576171875,-0.49591064453125,-0.00823974609375,-0.86810302734375,8445,-3881,3064,54,50,-114
115914995,0.01397705078125,-0.490966796875,-0.01959228515625,-0.87091064453125,8405,-3559,3091,54,49,-116
115924981,0.00543212890625,-0.4859619140625,-0.03118896484375,-0.87347412109375,8340,-3226,3116,53,49,-120
115934957,-0.0035400390625,-0.4808349609375,-0.0430908203125,-0.87579345703125,8229,-2896,3139,53,49,-123
115944940,-0.01287841796875,-0.47552490234375,-0.0550537109375,-0.8779296875,8095,-2604,3129,53,49,-126
115954923,-0.02215576171875,-0.47015380859375,-0.06707763671875,-0.87982177734375,7976,-2365,3129,53,49,-125
115964906,-0.0308837890625,-0.46478271484375,-0.0787353515625,-0.88140869140625,7936,-2161,3148,54,48,-119
115974889,-0.03851318359375,-0.45947265625,-0.0899658203125,-0.8828125,7918,-1961,3182,55,47,-109
115984869,-0.0450439453125,-0.454345703125,-0.1005859375,-0.884033203125,7943,-1760,3253,55,46,-99
115994853,-0.05059814453125,-0.44940185546875,-0.11090087890625,-0.885009765625,7919,-1535,3324,56,45,-92
116004836,-0.0560302734375,-0.4444580078125,-0.1212158203125,-0.8858642578125,7779,-1299,3352,57,44,-93
116014817,-0.062255859375,-0.43939208984375,-0.132080078125,-0.88641357421875,7518,-1055,3322,58,43,-102
116024799,-0.0699462890625,-0.43389892578125,-0.14385986328125,-0.88665771484375,7178,-810,3281,59,43,-117
116034785,-0.079345703125,-0.42803955078125,-0.1566162109375,-0.8865966796875,6829,-569,3265,60,43,-133
116044771,-0.09002685546875,-0.42181396484375,-0.16998291015625,-0.8861083984375,6529,-339,3265,60,42,-143
116054755,-0.10113525390625,-0.4154052734375,-0.18365478515625,-0.88519287109375,6264,-100,3270,61,41,-146
116064735,-0.112060546875,-0.40899658203125,-0.19720458984375,-0.88397216796875,6052,154,3289,61,41,-143
116074712,-0.12225341796875,-0.40264892578125,-0.21038818359375,-0.88250732421875,5833,431,3318,61,39,-135
116084694,-0.131591796875,-0.396484375,-0.22320556640625,-0.8807373046875,5561,701,3285,62,38,-127
116097996,-0.1402587890625,-0.3905029296875,-0.23577880859375,-0.87884521484375,5283,933,3254,62,37,-121
116104660,-0.1484375,-0.38458251953125,-0.24810791015625,-0.876708984375,4968,1182,3236,62,36,-117
116114643,-0.15655517578125,-0.37860107421875,-0.2603759765625,-0.87432861328125,4698,1386,3223,62,34,-117
116124627,-0.16455078125,-0.3729248046875,-0.27252197265625,-0.87158203125,4562,1583,3250,63,32,-116
116134608,-0.17218017578125,-0.36749267578125,-0.28436279296875,-0.86865234375,4494,1803,3284,63,30,-111
116144589,-0.17919921875,-0.3624267578125,-0.2958984375,-0.865478515625,4424,2056,3293,63,28,-106
116154573,-0.18603515625,-0.3575439453125,-0.3072509765625,-0.86212158203125,4271,2333,3273,63,27,-104
116164555,-0.1929931640625,-0.3525390625,-0.318603515625,-0.8585205078125,4024,2632,3252,62,25,-105
116174543,-0.20062255859375,-0.3472900390625,-0.33013916015625,-0.85455322265625,3771,2890,3227,62,24,-111
116184519,-0.20892333984375,-0.341796875,-0.34173583984375,-0.8502197265625,3525,3085,3181,61,22,-116
116194503,-0.2176513671875,-0.3363037109375,-0.35333251953125,-0.845458984375,3324,3252,3141,60,20,-121
116204485,-0.226806640625,-0.3306884765625,-0.36492919921875,-0.84033203125,3112,3453,3093,60,19,-123
116214467,-0.236083984375,-0.3250732421875,-0.37646484375,-0.8348388671875,2897,3669,3058,60,17,-124
116224450,-0.24542236328125,-0.3193359375,-0.38787841796875,-0.82916259765625,2653,3888,3015,60,16,-123
116234439,-0.2545166015625,-0.31378173828125,-0.39898681640625,-0.8232421875,2447,4095,2975,59,15,-120
116244422,-0.26312255859375,-0.3084716796875,-0.40960693359375,-0.8172607421875,2256,4301,2945,58,13,-115
116254406,-0.27130126953125,-0.303466796875,-0.41986083984375,-0.811279296875,2096,4491,2923,57,12,-110
116264380,-0.2791748046875,-0.2987060546875,-0.4296875,-0.80517578125,1950,4673,2870,55,11,-107
116274363,-0.28680419921875,-0.2940673828125,-0.439208984375,-0.799072265625,1823,4843,2822,54,10,-105
116284351,-0.2945556640625,-0.289306640625,-0.44854736328125,-0.792724609375,1651,5012,2751,53,9,-106
116294329,-0.3023681640625,-0.28448486328125,-0.457763671875,-0.7862548828125,1508,5171,2676,52,9,-107
116304311,-0.3101806640625,-0.279541015625,-0.46673583984375,-0.77972412109375,1393,5314,2603,51,9,-106
116314294,-0.3177490234375,-0.2747802734375,-0.47528076171875,-0.77313232421875,1302,5429,2545,49,8,-104
116324275,-0.32501220703125,-0.2701416015625,-0.4835205078125,-0.76666259765625,1216,5519,2479,48,8,-101
116334256,-0.33209228515625,-0.2655029296875,-0.49151611328125,-0.76007080078125,1062,5603,2392,47,8,-99
116344238,-0.33917236328125,-0.26068115234375,-0.4993896484375,-0.75347900390625,903,5686,2299,46,9,-100
116354229,-0.3463134765625,-0.25555419921875,-0.5072021484375,-0.7467041015625,707,5755,2218,45,9,-102
116364212,-0.35357666015625,-0.25018310546875,-0.51495361328125,-0.73980712890625,454,5824,2122,44,10,-103
116374189,-0.3609619140625,-0.2445068359375,-0.52264404296875,-0.73272705078125,158,5876,2028,43,10,-105
116384180,-0.36846923828125,-0.23846435546875,-0.53021240234375,-0.7254638671875,-173,5896,1929,42,10,-106
116394162,-0.3759765625,-0.2322998046875,-0.5377197265625,-0.71807861328125,-513,5882,1823,41,11,-105
116404139,-0.38323974609375,-0.22607421875,-0.54498291015625,-0.710693359375,-864,5836,1721,40,11,-103
116414116,-0.39019775390625,-0.21990966796875,-0.55206298828125,-0.703369140625,-1221,5781,1622,40,11,-98
116424099,-0.39654541015625,-0.2139892578125,-0.55889892578125,-0.69622802734375,-1583,5718,1531,39,12,-92
116434083,-0.40240478515625,-0.2083740234375,-0.5654296875,-0.68927001953125,-1978,5657,1437,39,12,-85
116444064,-0.407470703125,-0.203125,-0.57171630859375,-0.6826171875,-2384,5612,1342,38,12,-76
116454051,-0.41192626953125,-0.19830322265625,-0.57769775390625,-0.67626953125,-2835,5628,1292,37,12,-67
116464030,-0.4158935546875,-0.19390869140625,-0.583251953125,-0.67034912109375,-3303,5663,1275,35,11,-59
116474012,-0.419189453125,-0.19000244140625,-0.58831787109375,-0.6649169921875,-3770,5719,1262,33,10,-49
116483995,-0.421875,-0.186767578125,-0.59283447265625,-0.66015625,-4203,5761,1262,31,8,-38
116493983,-0.4237060546875,-0.18438720703125,-0.5968017578125,-0.656005859375,-4608,5795,1255,29,7,-24
116503956,-0.4246826171875,-0.18292236328125,-0.60015869140625,-0.65277099609375,-4992,5859,1256,26,5,-10
116513943,-0.4248046875,-0.18243408203125,-0.60302734375,-0.65020751953125,-5363,5946,1236,24,3,3
116523915,-0.4244384765625,-0.18267822265625,-0.60528564453125,-0.64825439453125,-5729,6094,1216,21,1,12
116533899,-0.42388916015625,-0.183349609375,-0.6070556640625,-0.64678955078125,-6070,6279,1222,18,-2,16
116543878,-0.42364501953125,-0.1842041015625,-0.6082763671875,-0.6455078125,-6352,6430,1203,14,-6,18
116553861,-0.4237060546875,-0.18505859375,-0.60906982421875,-0.64447021484375,-6579,6555,1169,10,-9,18
116563843,-0.4239501953125,-0.18609619140625,-0.609375,-0.64373779296875,-6724,6615,1124,6,-13,20
116573825,-0.424072265625,-0.1876220703125,-0.609130859375,-0.6434326171875,-6777,6633,1079,2,-15,26
116583807,-0.42364501953125,-0.18994140625,-0.6082763671875,-0.6439208984375,-6753,6581,1036,-1,-17,38
116593788,-0.4222412109375,-0.19342041015625,-0.606689453125,-0.645263671875,-6649,6508,1014,-3,-20,53
116603767,-0.41961669921875,-0.1982421875,-0.6043701171875,-0.64764404296875,-6492,6442,986,-5,-21,70
116613759,-0.41571044921875,-0.20440673828125,-0.601318359375,-0.65106201171875,-6293,6386,977,-8,-23,88
116623742,-0.41070556640625,-0.2117919921875,-0.59747314453125,-0.65545654296875,-6042,6336,987,-11,-25,103
116633718,-0.40472412109375,-0.2200927734375,-0.59295654296875,-0.6605224609375,-5726,6254,1003,-13,-25,115
116643704,-0.39776611328125,-0.22918701171875,-0.58770751953125,-0.66632080078125,-5362,6142,991,-16,-26,126
116653685,-0.38995361328125,-0.239013671875,-0.581787109375,-0.67266845703125,-4978,6009,998,-18,-27,136
116663668,-0.38140869140625,-0.24932861328125,-0.57525634765625,-0.67938232421875,-4587,5849,985,-20,-27,144
116673649,-0.37213134765625,-0.26007080078125,-0.568115234375,-0.68646240234375,-4189,5688,978,-22,-27,151
116683636,-0.36224365234375,-0.27117919921875,-0.5604248046875,-0.6937255859375,-3804,5533,972,-24,-27,157
116693617,-0.3521728515625,-0.28228759765625,-0.55218505859375,-0.7010498046875,-3433,5400,977,-27,-28,158
116703600,-0.3421630859375,-0.293212890625,-0.54364013671875,-0.70819091796875,-3051,5248,995,-29,-28,154
116713581,-0.33258056640625,-0.30364990234375,-0.53466796875,-0.71514892578125,-2593,5033,1026,-32,-29,149
116723563,-0.3233642578125,-0.313720703125,-0.52545166015625,-0.7218017578125,-2053,4770,1038,-34,-28,143
116733547,-0.31390380859375,-0.32366943359375,-0.515869140625,-0.728515625,-1423,4458,1051,-35,-28,144
116743529,-0.3033447265625,-0.33428955078125,-0.50555419921875,-0.7353515625,-676,4129,1031,-35,-28,155
116753511,-0.290771484375,-0.34613037109375,-0.4942626953125,-0.74261474609375,112,3847,1009,-34,-27,174
116763496,-0.27618408203125,-0.35906982421875,-0.48193359375,-0.75006103515625,738,3677,1022,-33,-27,192
116773478,-0.2606201171875,-0.37225341796875,-0.46905517578125,-0.75738525390625,1235,3636,1077,-33,-26,197
116783460,-0.24554443359375,-0.38470458984375,-0.45599365234375,-0.76416015625,1791,3553,1166,-35,-25,187
116793439,-0.23138427734375,-0.3963623046875,-0.44287109375,-0.77032470703125,2604,3371,1277,-36,-25,173
116803432,-0.2171630859375,-0.40777587890625,-0.42919921875,-0.77618408203125,3683,3128,1346,-38,-24,171
116813415,-0.20159912109375,-0.419677734375,-0.41448974609375,-0.781982421875,4757,2867,1402,-39,-22,185
116823397,-0.18377685546875,-0.43218994140625,-0.3985595703125,-0.787841796875,5615,2624,1431,-38,-20,205
116833375,-0.16424560546875,-0.4449462890625,-0.381591796875,-0.79345703125,6267,2417,1442,-37,-17,218
116843361,-0.1441650390625,-0.45709228515625,-0.36444091796875,-0.79852294921875,6842,2209,1452,-36,-14,217
116853342,-0.12481689453125,-0.468017578125,-0.34765625,-0.8028564453125,7480,2018,1493,-35,-10,203
116863326,-0.1068115234375,-0.4775390625,-0.3316650390625,-0.806640625,8123,1818,1538,-35,-5,185
116873304,-0.0904541015625,-0.485595703125,-0.3165283203125,-0.80987548828125,8673,1633,1598,-36,-1,166
116883293,-0.07586669921875,-0.4921875,-0.302490234375,-0.81280517578125,8961,1542,1660,-35,4,147
116893271,-0.06304931640625,-0.497314453125,-0.28973388671875,-0.8154296875,8883,1572,1729,-35,7,130
116903256,-0.05230712890625,-0.50103759765625,-0.2783203125,-0.81781005859375,8490,1699,1788,-35,9,113
116913242,-0.04345703125,-0.5037841796875,-0.2679443359375,-0.82012939453125,7987,1847,1885,-37,9,99
116923225,-0.03558349609375,-0.50616455078125,-0.2578125,-0.82232666015625,7598,1895,2001,-40,7,95
116933208,-0.02728271484375,-0.5089111328125,-0.24676513671875,-0.82427978515625,7393,1858,2095,-43,4,105
116943195,-0.017333984375,-0.5125732421875,-0.2340087890625,-0.82598876953125,7184,1830,2167,-47,0,129
116953178,-0.005126953125,-0.51715087890625,-0.21942138671875,-0.82733154296875,6857,1791,2220,-50,-4,155
116963159,0.009033203125,-0.52239990234375,-0.2030029296875,-0.82818603515625,6490,1718,2263,-53,-8,178
116973129,0.02459716796875,-0.528076171875,-0.18499755859375,-0.8284912109375,6278,1567,2312,-57,-12,193
116983112,0.0406494140625,-0.533935546875,-0.1658935546875,-0.82818603515625,6251,1295,2368,-61,-14,198
116993094,0.05645751953125,-0.5396728515625,-0.14605712890625,-0.82720947265625,6415,925,2411,-66,-16,196
117003080,0.07147216796875,-0.54534912109375,-0.12591552734375,-0.82568359375,6679,520,2422,-71,-17,191
117013062,0.08544921875,-0.55072021484375,-0.1055908203125,-0.8236083984375,6957,74,2398,-76,-18,183
117023045,0.09796142578125,-0.555908203125,-0.08551025390625,-0.821044921875,7202,-400,2308,-79,-19,172
117033025,0.10906982421875,-0.560791015625,-0.065673828125,-0.81817626953125,7462,-943,2209,-83,-19,159
117043009,0.118896484375,-0.5654296875,-0.04632568359375,-0.81494140625,7743,-1494,2136,-85,-19,149
117052997,0.12799072265625,-0.56982421875,-0.027099609375,-0.81134033203125,8097,-2112,2065,-86,-19,144
117062979,0.13690185546875,-0.57403564453125,-0.0078125,-0.80731201171875,8515,-2736,1973,-85,-19,143
117072955,0.1458740234375,-0.57806396484375,0.011474609375,-0.80279541015625,8851,-3265,1862,-85,-19,145
117082938,0.15472412109375,-0.58172607421875,0.030517578125,-0.79803466796875,9005,-3669,1741,-84,-18,143
117092921,0.16290283203125,-0.5849609375,0.04876708984375,-0.7930908203125,9000,-3968,1640,-81,-18,135
117102903,0.1700439453125,-0.587890625,0.06597900390625,-0.78814697265625,8992,-4240,1603,-79,-17,124
117112887,0.17626953125,-0.590576171875,0.082275390625,-0.783203125,9070,-4549,1640,-78,-17,115
117122869,0.1822509765625,-0.59295654296875,0.09808349609375,-0.7781982421875,9229,-4889,1691,-75,-17,113
117132850,0.18853759765625,-0.5950927734375,0.11370849609375,-0.77294921875,9394,-5209,1721,-73,-17,117
117142834,0.19549560546875,-0.59686279296875,0.12933349609375,-0.76739501953125,9440,-5475,1708,-69,-17,123
117152816,0.20294189453125,-0.5982666015625,0.144775390625,-0.76153564453125,9356,-5662,1679,-65,-18,126
117162800,0.21044921875,-0.5994873046875,0.15960693359375,-0.755615234375,9178,-5778,1640,-61,-18,123
117172785,0.2174072265625,-0.6004638671875,0.17327880859375,-0.74981689453125,8928,-5857,1622,-57,-18,113
117182769,0.22357177734375,-0.60137939453125,0.1856689453125,-0.7442626953125,8684,-5968,1639,-53,-19,101
117192753,0.2288818359375,-0.60235595703125,0.19683837890625,-0.739013671875,8492,-6081,1698,-50,-20,90
117202736,0.233642578125,-0.60333251953125,0.2069091796875,-0.73388671875,8313,-6188,1764,-47,-21,82
117212711,0.23809814453125,-0.60443115234375,0.21624755859375,-0.7288818359375,8124,-6268,1799,-44,-22,77
117222694,0.24261474609375,-0.60546875,0.22503662109375,-0.72381591796875,7966,-6301,1795,-41,-24,77
117232677,0.2474365234375,-0.6064453125,0.233642578125,-0.7186279296875,7798,-6314,1771,-39,-25,80
117242658,0.2528076171875,-0.60723876953125,0.2421875,-0.7132568359375,7667,-6368,1731,-36,-26,84
117252640,0.2587890625,-0.60784912109375,0.250732421875,-0.7076416015625,7564,-6456,1702,-33,-27,88
117262623,0.2652587890625,-0.608154296875,0.2593994140625,-0.70184326171875,7469,-6547,1695,-31,-28,93
117272606,0.27215576171875,-0.60821533203125,0.26800537109375,-0.69586181640625,7370,-6629,1718,-30,-28,96
117282589,0.2791748046875,-0.608154296875,0.2764892578125,-0.68975830078125,7276,-6698,1741,-29,-29,97
117292572,0.28619384765625,-0.6080322265625,0.28466796875,-0.68365478515625,7169,-6776,1735,-27,-29,95
117302554,0.29296875,-0.60791015625,0.29241943359375,-0.6776123046875,7050,-6826,1715,-26,-30,91
117312535,0.2991943359375,-0.6080322265625,0.2994384765625,-0.67169189453125,6933,-6854,1663,-25,-30,84
117322520,0.30474853515625,-0.6082763671875,0.30572509765625,-0.66607666015625,6820,-6874,1583,-24,-30,75
117332501,0.3095703125,-0.60888671875,0.311279296875,-0.6607666015625,6725,-6869,1515,-24,-30,66
117342485,0.31365966796875,-0.60968017578125,0.316162109375,-0.65576171875,6641,-6847,1457,-24,-30,58
117352465,0.317138671875,-0.61077880859375,0.32037353515625,-0.6510009765625,6570,-6823,1382,-23,-30,52
117362449,0.3201904296875,-0.61199951171875,0.32427978515625,-0.64642333984375,6511,-6803,1313,-24,-29,48
117372437,0.3228759765625,-0.61328125,0.3280029296875,-0.64190673828125,6485,-6795,1214,-24,-29,46
117382419,0.32550048828125,-0.61456298828125,0.33184814453125,-0.63739013671875,6490,-6827,1104,-25,-28,47
117392403,0.32818603515625,-0.61566162109375,0.3358154296875,-0.63287353515625,6503,-6892,997,-25,-27,49
117402378,0.33111572265625,-0.616455078125,0.3402099609375,-0.628173828125,6513,-7026,875,-25,-25,54
117412363,0.33428955078125,-0.616943359375,0.344970703125,-0.6234130859375,6496,-7165,723,-25,-23,58
117422342,0.3375244140625,-0.6171875,0.3499755859375,-0.61865234375,6438,-7258,575,-25,-21,60
117432325,0.3406982421875,-0.61724853515625,0.3551025390625,-0.6138916015625,6380,-7347,403,-24,-20,60
117442306,0.34368896484375,-0.61724853515625,0.360107421875,-0.60931396484375,6283,-7427,229,-23,-18,58
117452293,0.34649658203125,-0.61712646484375,0.36492919921875,-0.60491943359375,6227,-7502,80,-23,-16,56
117462272,0.34906005859375,-0.616943359375,0.3695068359375,-0.600830078125,6125,-7586,-42,-21,-15,52
117472256,0.3514404296875,-0.61676025390625,0.373779296875,-0.59698486328125,5990,-7683,-124,-20,-14,48
117482243,0.35357666015625,-0.61669921875,0.37750244140625,-0.59344482421875,5853,-7757,-155,-18,-14,42
117492226,0.3555908203125,-0.61676025390625,0.380615234375,-0.5902099609375,5630,-7799,-158,-16,-15,36
117502209,0.35736083984375,-0.61712646484375,0.3829345703125,-0.58721923828125,5465,-7799,-83,-14,-18,29
117512190,0.35888671875,-0.61785888671875,0.3843994140625,-0.5845947265625,5279,-7781,5,-12,-20,22
117522180,0.3602294921875,-0.618896484375,0.385009765625,-0.58221435546875,5127,-7752,112,-10,-22,14
117532162,0.3614501953125,-0.620361328125,0.3848876953125,-0.58001708984375,5025,-7723,229,-8,-25,8
117542131,0.36248779296875,-0.62213134765625,0.3839111328125,-0.57806396484375,4950,-7708,354,-6,-29,2
117552114,0.36346435546875,-0.62432861328125,0.3822021484375,-0.5762939453125,4882,-7672,512,-4,-31,-4
117562091,0.3642578125,-0.62677001953125,0.37969970703125,-0.57476806640625,4846,-7593,646,-2,-33,-11
117572073,0.36480712890625,-0.6295166015625,0.37652587890625,-0.573486328125,4828,-7503,754,-1,-35,-17
117582059,0.3651123046875,-0.63250732421875,0.37286376953125,-0.5723876953125,4844,-7392,855,1,-36,-21
117592040,0.36529541015625,-0.63555908203125,0.36883544921875,-0.57147216796875,4888,-7292,893,2,-36,-23
117602021,0.365478515625,-0.63861083984375,0.36480712890625,-0.57061767578125,4978,-7201,875,2,-35,-22
117612005,0.36566162109375,-0.64141845703125,0.3609619140625,-0.5697021484375,5070,-7126,825,3,-33,-19
117621992,0.365966796875,-0.64404296875,0.35748291015625,-0.56878662109375,5143,-7065,729,3,-31,-16
117631968,0.36627197265625,-0.64630126953125,0.3543701171875,-0.56793212890625,5163,-6994,599,3,-28,-13
117641950,0.36651611328125,-0.64837646484375,0.3515625,-0.56719970703125,5135,-6940,466,2,-25,-13
117651933,0.36651611328125,-0.6502685546875,0.3489990234375,-0.566650390625,5100,-6891,314,2,-20,-14
117661917,0.36614990234375,-0.6519775390625,0.34661865234375,-0.56634521484375,5047,-6865,146,1,-17,-15
117671899,0.36553955078125,-0.65350341796875,0.344482421875,-0.5662841796875,4989,-6856,-33,0,-13,-16
117681881,0.3646240234375,-0.6549072265625,0.3426513671875,-0.56634521484375,4941,-6864,-237,-1,-9,-15
117691863,0.3636474609375,-0.656005859375,0.34130859375,-0.5665283203125,4915,-6930,-446,-2,-6,-13
117701841,0.36260986328125,-0.6568603515625,0.3404541015625,-0.56671142578125,4920,-7031,-667,-3,-2,-9
117711828,0.36163330078125,-0.65740966796875,0.3402099609375,-0.56689453125,4912,-7169,-892,-4,2,-5
117721809,0.36053466796875,-0.65765380859375,0.34051513671875,-0.567138671875,4894,-7299,-1084,-5,6,-3
117731792,0.35943603515625,-0.6575927734375,0.3411865234375,-0.5675048828125,4855,-7407,-1273,-5,9,-2
117741771,0.358154296875,-0.65728759765625,0.342041015625,-0.568115234375,4782,-7466,-1435,-6,13,-2
117751762,0.356689453125,-0.65679931640625,0.34295654296875,-0.56903076171875,4698,-7463,-1548,-5,16,-4
117761746,0.3548583984375,-0.65625,0.34381103515625,-0.5703125,4592,-7408,-1639,-5,20,-7
117771722,0.35284423828125,-0.655517578125,0.34466552734375,-0.5718994140625,4482,-7309,-1705,-5,22,-8
117781704,0.35064697265625,-0.65472412109375,0.345458984375,-0.5736083984375,4359,-7182,-1747,-5,24,-9
117791687,0.3485107421875,-0.65374755859375,0.34649658203125,-0.57550048828125,4244,-7067,-1758,-5,26,-7
117801669,0.346435546875,-0.652587890625,0.3477783203125,-0.5772705078125,4140,-6965,-1769,-6,26,-5
117811663,0.3446044921875,-0.6512451171875,0.3494873046875,-0.578857421875,4035,-6869,-1772,-6,27,0
117821639,0.34307861328125,-0.64971923828125,0.3515625,-0.5802001953125,3955,-6764,-1738,-7,26,5
117831622,0.34185791015625,-0.64801025390625,0.3541259765625,-0.58123779296875,3873,-6669,-1700,-8,25,10
117841604,0.3409423828125,-0.646240234375,0.35693359375,-0.58203125,3826,-6604,-1631,-9,24,14
117851586,0.34033203125,-0.6444091796875,0.360107421875,-0.58251953125,3774,-6575,-1575,-10,23,17
117861568,0.3397216796875,-0.642578125,0.36334228515625,-0.582763671875,3740,-6613,-1517,-11,21,18
117871551,0.339111328125,-0.64093017578125,0.36651611328125,-0.5830078125,3703,-6672,-1444,-12,20,16
117881533,0.33837890625,-0.6395263671875,0.369384765625,-0.58319091796875,3637,-6746,-1381,-12,18,12
117891515,0.33734130859375,-0.638427734375,0.37176513671875,-0.58343505859375,3577,-6830,-1335,-12,16,6
117901500,0.33599853515625,-0.63775634765625,0.37359619140625,-0.58380126953125,3518,-6906,-1282,-12,15,0
117911481,0.3343505859375,-0.637451171875,0.3748779296875,-0.58428955078125,3485,-6931,-1225,-12,12,-5
117921463,0.33251953125,-0.637451171875,0.375732421875,-0.58477783203125,3481,-6940,-1172,-11,10,-9
117931449,0.33056640625,-0.6376953125,0.376220703125,-0.58526611328125,3517,-6928,-1133,-11,8,-11
117941434,0.3287353515625,-0.63812255859375,0.37652587890625,-0.58563232421875,3565,-6974,-1081,-11,6,-11
117951416,0.32708740234375,-0.63848876953125,0.37689208984375,-0.5859375,3630,-7071,-1062,-10,5,-10
117961399,0.3255615234375,-0.638916015625,0.37725830078125,-0.58612060546875,3697,-7150,-1048,-10,5,-9
117971375,0.3240966796875,-0.6392822265625,0.37762451171875,-0.58624267578125,3750,-7213,-1030,-10,4,-9
117981357,0.32275390625,-0.63970947265625,0.3778076171875,-0.58648681640625,3796,-7248,-1019,-8,4,-9
117991339,0.3214111328125,-0.64007568359375,0.3778076171875,-0.5867919921875,3841,-7238,-1001,-7,4,-10
118001325,0.32012939453125,-0.640380859375,0.377685546875,-0.587158203125,3852,-7190,-953,-6,4,-10
118011306,0.31903076171875,-0.64068603515625,0.3775634765625,-0.58758544921875,3845,-7120,-888,-5,3,-9
118021293,0.318115234375,-0.64080810546875,0.37750244140625,-0.587890625,3831,-7065,-829,-5,3,-7
118031268,0.31756591796875,-0.640869140625,0.3775634765625,-0.588134765625,3799,-7046,-784,-4,2,-5
118041256,0.31719970703125,-0.640869140625,0.37774658203125,-0.58819580078125,3768,-7021,-734,-3,1,-3
118051238,0.317138671875,-0.64093017578125,0.3779296875,-0.588134765625,3741,-6990,-706,-3,-1,-1
118061232,0.31719970703125,-0.6409912109375,0.3780517578125,-0.587890625,3718,-6948,-696,-2,-3,0
118071209,0.31744384765625,-0.6412353515625,0.378173828125,-0.58740234375,3698,-6887,-688,-2,-5,0
118081192,0.31781005859375,-0.6416015625,0.37811279296875,-0.58685302734375,3677,-6839,-691,-2,-7,0
118091175,0.31817626953125,-0.6422119140625,0.37786865234375,-0.58612060546875,3647,-6784,-681,-2,-10,-1
118101155,0.318603515625,-0.64300537109375,0.37744140625,-0.5853271484375,3616,-6767,-671,-2,-12,-3
118111126,0.31903076171875,-0.64404296875,0.37677001953125,-0.58441162109375,3611,-6769,-667,-2,-14,-5
118121109,0.31939697265625,-0.64532470703125,0.37591552734375,-0.58331298828125,3634,-6811,-690,-1,-17,-6
118131090,0.31982421875,-0.64691162109375,0.374755859375,-0.58209228515625,3691,-6854,-734,-1,-19,-8
118141078,0.32037353515625,-0.6485595703125,0.37347412109375,-0.58074951171875,3770,-6876,-790,0,-21,-8
118151059,0.32098388671875,-0.65032958984375,0.3720703125,-0.579345703125,3864,-6859,-825,1,-22,-7
118161040,0.32171630859375,-0.65216064453125,0.37066650390625,-0.5777587890625,3948,-6835,-850,1,-24,-6
118171024,0.3226318359375,-0.65399169921875,0.36920166015625,-0.576171875,4040,-6824,-841,1,-25,-5
118181007,0.3236083984375,-0.65582275390625,0.36767578125,-0.574462890625,4104,-6834,-821,2,-26,-5
118190994,0.32470703125,-0.65765380859375,0.3660888671875,-0.57275390625,4167,-6860,-796,2,-27,-5
118200975,0.32574462890625,-0.6595458984375,0.36431884765625,-0.57110595703125,4224,-6901,-790,3,-27,-6
118210953,0.3267822265625,-0.66156005859375,0.3623046875,-0.56951904296875,4273,-6960,-784,3,-28,-8
118220935,0.3277587890625,-0.66357421875,0.36004638671875,-0.56805419921875,4311,-7027,-803,5,-28,-11
118230920,0.32879638671875,-0.6656494140625,0.35748291015625,-0.566650390625,4349,-7078,-815,7,-28,-12
118240902,0.32989501953125,-0.66766357421875,0.35479736328125,-0.5653076171875,4410,-7100,-812,8,-28,-12
118250883,0.3311767578125,-0.6695556640625,0.35205078125,-0.56402587890625,4468,-7099,-803,9,-29,-10
118260866,0.33270263671875,-0.67132568359375,0.34942626953125,-0.5626220703125,4519,-7085,-783,10,-29,-8
118270847,0.33447265625,-0.67291259765625,0.346923828125,-0.56121826171875,4561,-7056,-765,11,-29,-5
118280831,0.33642578125,-0.6744384765625,0.344482421875,-0.55975341796875,4620,-7038,-729,11,-29,-4
118290816,0.33843994140625,-0.67584228515625,0.342041015625,-0.55828857421875,4703,-7025,-728,12,-29,-3
118300799,0.34039306640625,-0.67724609375,0.339599609375,-0.55694580078125,4796,-7010,-733,12,-28,-4
118310785,0.34222412109375,-0.67864990234375,0.33697509765625,-0.55572509765625,4872,-7022,-756,13,-27,-5
118320769,0.3438720703125,-0.67999267578125,0.3343505859375,-0.55462646484375,4959,-7050,-794,13,-25,-6
118330751,0.345458984375,-0.68121337890625,0.33172607421875,-0.5537109375,5011,-7063,-841,14,-24,-7
118340734,0.3470458984375,-0.68231201171875,0.32916259765625,-0.55291748046875,5049,-7054,-864,14,-22,-6
118350710,0.34844970703125,-0.6832275390625,0.32659912109375,-0.5523681640625,5071,-7045,-894,14,-20,-7
118360694,0.34979248046875,-0.68408203125,0.32415771484375,-0.55194091796875,5064,-7042,-929,14,-18,-7
118370676,0.35101318359375,-0.684814453125,0.32171630859375,-0.5516357421875,5050,-7025,-987,14,-16,-8
118380658,0.35211181640625,-0.685546875,0.3193359375,-0.551513671875,5038,-7005,-1044,14,-14,-9
118390641,0.3531494140625,-0.68609619140625,0.31695556640625,-0.551513671875,4982,-6984,-1076,15,-12,-9
118400624,0.35406494140625,-0.6865234375,0.31463623046875,-0.5516357421875,4942,-6932,-1117,15,-11,-10
118410605,0.35504150390625,-0.6868896484375,0.31231689453125,-0.55194091796875,4864,-6858,-1135,15,-9,-9
118420589,0.35589599609375,-0.6871337890625,0.3101806640625,-0.55230712890625,4800,-6755,-1161,15,-8,-9
118430570,0.35675048828125,-0.68731689453125,0.30810546875,-0.55267333984375,4747,-6649,-1186,15,-7,-8
118440554,0.35760498046875,-0.68743896484375,0.30621337890625,-0.55303955078125,4696,-6577,-1196,14,-6,-7
118450535,0.3583984375,-0.68743896484375,0.3045654296875,-0.55340576171875,4646,-6528,-1195,13,-5,-5
118460517,0.35931396484375,-0.6873779296875,0.3031005859375,-0.55364990234375,4590,-6481,-1184,12,-5,-4
118470500,0.3602294921875,-0.68731689453125,0.30194091796875,-0.5538330078125,4533,-6438,-1149,11,-5,-2
118480483,0.3612060546875,-0.68719482421875,0.3009033203125,-0.55389404296875,4448,-6408,-1096,10,-5,-1
118490466,0.36212158203125,-0.68707275390625,0.29998779296875,-0.553955078125,4389,-6391,-1040,9,-5,-1
118500449,0.363037109375,-0.68695068359375,0.29913330078125,-0.55389404296875,4347,-6384,-979,8,-6,-1
118510437,0.3638916015625,-0.68701171875,0.29827880859375,-0.55377197265625,4309,-6393,-943,7,-7,-1
118520419,0.36468505859375,-0.6871337890625,0.29742431640625,-0.5535888671875,4294,-6403,-905,7,-7,-2
118530401,0.365478515625,-0.68731689453125,0.2965087890625,-0.55328369140625,4290,-6426,-856,6,-8,-2
118540378,0.3662109375,-0.6876220703125,0.2955322265625,-0.552978515625,4282,-6474,-828,5,-9,-2
118550361,0.3668212890625,-0.68804931640625,0.29461669921875,-0.55255126953125,4276,-6506,-816,5,-10,-3
118560344,0.36737060546875,-0.68853759765625,0.29345703125,-0.5521240234375,4258,-6534,-784,5,-10,-5
118570325,0.36785888671875,-0.6890869140625,0.29217529296875,-0.55181884765625,4258,-6581,-757,4,-11,-7
118580307,0.36822509765625,-0.68975830078125,0.290771484375,-0.55145263671875,4276,-6667,-749,4,-12,-8
118590293,0.36865234375,-0.6904296875,0.28936767578125,-0.551025390625,4305,-6761,-746,5,-12,-8
118600272,0.36932373046875,-0.6910400390625,0.2880859375,-0.550537109375,4334,-6863,-735,5,-12,-5
118610256,0.3701171875,-0.6915283203125,0.28692626953125,-0.54998779296875,4379,-6936,-728,6,-12,-3
118620237,0.3712158203125,-0.69189453125,0.285888671875,-0.54931640625,4406,-7007,-729,7,-12,-1
118630229,0.37249755859375,-0.692138671875,0.284912109375,-0.5487060546875,4434,-7043,-724,8,-12,0
