subject,Joshua Spiesman
arm,right
label,0
hz,100.17471114611963
time,4.961332

timestamp_us,q0,q1,q2,q3,ax,ay,az,gx,gy,gz
37483913,0.58050537109375,-0.73431396484375,-0.27569580078125,-0.21868896484375,5134,-6209,-1841,-10,1,2
37493895,0.579833984375,-0.7349853515625,-0.27508544921875,-0.218994140625,5136,-6209,-1848,-10,2,1
37503878,0.5792236328125,-0.735595703125,-0.27447509765625,-0.21923828125,5121,-6205,-1861,-9,1,1
37513858,0.57861328125,-0.7362060546875,-0.27386474609375,-0.219482421875,5106,-6173,-1866,-9,2,2
37523851,0.57806396484375,-0.73681640625,-0.273193359375,-0.21978759765625,5103,-6181,-1884,-9,2,2
37533831,0.57757568359375,-0.7374267578125,-0.2725830078125,-0.22003173828125,5105,-6177,-1901,-8,2,1
37543815,0.5770263671875,-0.7379150390625,-0.27197265625,-0.2203369140625,5106,-6175,-1916,-8,2,1
37553789,0.57659912109375,-0.7384033203125,-0.27142333984375,-0.220703125,5112,-6174,-1932,-7,3,0
37563777,0.57611083984375,-0.73876953125,-0.27093505859375,-0.22119140625,5116,-6178,-1946,-7,3,-1
37573757,0.57562255859375,-0.7391357421875,-0.2706298828125,-0.2216796875,5108,-6177,-1954,-7,3,-2
37583740,0.5751953125,-0.73944091796875,-0.270263671875,-0.22222900390625,5104,-6160,-1975,-7,3,-2
37593723,0.57476806640625,-0.73968505859375,-0.26995849609375,-0.2227783203125,5102,-6143,-1975,-6,3,-2
37603706,0.57440185546875,-0.739990234375,-0.26959228515625,-0.2232666015625,5089,-6117,-1985,-6,3,-1
37613694,0.5740966796875,-0.740234375,-0.2691650390625,-0.22369384765625,5088,-6101,-1992,-5,3,0
37623667,0.5738525390625,-0.74053955078125,-0.2685546875,-0.22406005859375,5089,-6079,-1997,-5,3,1
37633659,0.57366943359375,-0.7408447265625,-0.2679443359375,-0.22430419921875,5086,-6072,-1999,-5,3,2
37643643,0.57354736328125,-0.7412109375,-0.2672119140625,-0.22442626953125,5071,-6067,-2000,-5,3,3
37653631,0.57342529296875,-0.74151611328125,-0.26641845703125,-0.22454833984375,5059,-6057,-2002,-4,3,4
37663614,0.5733642578125,-0.7418212890625,-0.265625,-0.22467041015625,5066,-6031,-1997,-4,3,4
37673599,0.57330322265625,-0.74212646484375,-0.26483154296875,-0.2247314453125,5062,-6016,-2004,-4,3,4
37683579,0.57330322265625,-0.74237060546875,-0.2640380859375,-0.22479248046875,5051,-6003,-1994,-3,3,4
37693550,0.5732421875,-0.74267578125,-0.26324462890625,-0.22491455078125,5052,-6001,-1990,-4,3,4
37703534,0.57318115234375,-0.74285888671875,-0.26263427734375,-0.22509765625,5064,-5994,-1982,-4,3,2
37713519,0.57305908203125,-0.74310302734375,-0.26214599609375,-0.22528076171875,5055,-5995,-1988,-3,3,1
37723501,0.5728759765625,-0.74322509765625,-0.26177978515625,-0.2255859375,5042,-5988,-1994,-3,3,0
37733482,0.57269287109375,-0.743408203125,-0.26153564453125,-0.2259521484375,5042,-5976,-1992,-4,2,-1
37743464,0.572509765625,-0.74346923828125,-0.2613525390625,-0.226318359375,5028,-5974,-1989,-3,2,-2
37753446,0.572265625,-0.74359130859375,-0.26123046875,-0.2266845703125,5024,-5973,-1985,-3,2,-2
37763428,0.572021484375,-0.74365234375,-0.26116943359375,-0.22705078125,5046,-5966,-1995,-3,1,-2
37773418,0.57177734375,-0.7437744140625,-0.2611083984375,-0.2274169921875,5059,-5976,-1998,-3,1,-2
37783400,0.571533203125,-0.743896484375,-0.260986328125,-0.22772216796875,5086,-6000,-2011,-3,1,-2
37793375,0.57135009765625,-0.74407958984375,-0.2608642578125,-0.2279052734375,5103,-6011,-2019,-3,1,-1
37803363,0.57110595703125,-0.74420166015625,-0.2607421875,-0.22808837890625,5118,-6005,-2025,-3,0,0
37813341,0.5709228515625,-0.74444580078125,-0.260498046875,-0.2281494140625,5106,-6007,-2037,-3,0,0
37823322,0.57073974609375,-0.74462890625,-0.26025390625,-0.22821044921875,5116,-6002,-2028,-3,0,1
37833306,0.570556640625,-0.744873046875,-0.25994873046875,-0.2281494140625,5129,-6005,-2020,-3,0,2
37843289,0.5704345703125,-0.7451171875,-0.2596435546875,-0.22808837890625,5141,-6019,-2022,-3,0,2
37853273,0.5703125,-0.74542236328125,-0.25921630859375,-0.22796630859375,5151,-6025,-2010,-3,-1,3
37863252,0.5701904296875,-0.7457275390625,-0.25885009765625,-0.22772216796875,5164,-6035,-2017,-3,-1,3
37873234,0.57012939453125,-0.7459716796875,-0.2584228515625,-0.22747802734375,5175,-6046,-2021,-3,-1,4
37883217,0.570068359375,-0.74627685546875,-0.2579345703125,-0.22723388671875,5177,-6043,-2017,-3,-1,4
37893196,0.570068359375,-0.74652099609375,-0.2574462890625,-0.2269287109375,5182,-6047,-2014,-2,-1,4
37903188,0.570068359375,-0.74676513671875,-0.25701904296875,-0.22662353515625,5181,-6048,-2019,-2,-1,4
37913170,0.570068359375,-0.74700927734375,-0.256591796875,-0.226318359375,5182,-6039,-2017,-2,-1,4
37923146,0.570068359375,-0.7471923828125,-0.2562255859375,-0.22613525390625,5184,-6025,-2003,-1,-1,3
37933135,0.570068359375,-0.747314453125,-0.25592041015625,-0.2259521484375,5190,-6016,-1998,-1,0,2
37943114,0.570068359375,-0.7474365234375,-0.2557373046875,-0.225830078125,5197,-6015,-2004,-1,0,1
37953096,0.570068359375,-0.74749755859375,-0.255615234375,-0.22576904296875,5205,-6021,-2013,-1,0,1
37963081,0.570068359375,-0.74749755859375,-0.2554931640625,-0.22576904296875,5191,-6020,-2023,-1,0,0
37973067,0.57012939453125,-0.74749755859375,-0.25543212890625,-0.225830078125,5179,-6014,-2019,0,0,0
37983047,0.5701904296875,-0.74749755859375,-0.25537109375,-0.22589111328125,5168,-5999,-2015,-1,0,0
37993036,0.5701904296875,-0.7474365234375,-0.25531005859375,-0.2259521484375,5161,-6007,-2012,0,0,-1
38003011,0.5703125,-0.74737548828125,-0.25531005859375,-0.22607421875,5165,-6007,-2020,0,1,-1
38012994,0.57037353515625,-0.747314453125,-0.2552490234375,-0.22613525390625,5178,-6025,-2027,0,0,-1
38022975,0.5704345703125,-0.7471923828125,-0.25531005859375,-0.22625732421875,5204,-6035,-2029,0,1,-1
38036421,0.57049560546875,-0.7470703125,-0.25531005859375,-0.2264404296875,5226,-6054,-2029,0,1,-1
38042942,0.570556640625,-0.7469482421875,-0.25531005859375,-0.22662353515625,5252,-6074,-2030,0,1,-1
38052924,0.5706787109375,-0.746826171875,-0.25537109375,-0.226806640625,5262,-6088,-2015,0,1,-2
38062905,0.57073974609375,-0.74664306640625,-0.25543212890625,-0.22698974609375,5270,-6106,-2023,0,1,-2
38072888,0.57086181640625,-0.74652099609375,-0.2554931640625,-0.22723388671875,5274,-6118,-2021,0,1,-2
38082874,0.5709228515625,-0.746337890625,-0.25555419921875,-0.22747802734375,5275,-6110,-2022,0,1,-2
38092859,0.571044921875,-0.74615478515625,-0.255615234375,-0.22772216796875,5268,-6107,-2027,1,1,-2
38102842,0.57110595703125,-0.74603271484375,-0.25567626953125,-0.22796630859375,5266,-6109,-2026,0,1,-2
38112825,0.5711669921875,-0.74591064453125,-0.25567626953125,-0.22821044921875,5257,-6097,-2023,0,1,-2
38122803,0.57122802734375,-0.74578857421875,-0.255615234375,-0.22845458984375,5256,-6109,-2020,0,2,-1
38132784,0.5712890625,-0.7457275390625,-0.25555419921875,-0.2286376953125,5257,-6099,-2016,0,1,-1
38142775,0.5714111328125,-0.74566650390625,-0.25537109375,-0.228759765625,5246,-6092,-2008,0,1,0
38152756,0.571533203125,-0.74566650390625,-0.25506591796875,-0.2288818359375,5243,-6075,-1993,0,1,2
38162733,0.57159423828125,-0.7457275390625,-0.25469970703125,-0.22882080078125,5215,-6080,-1986,-1,1,2
38172718,0.57177734375,-0.7457275390625,-0.2542724609375,-0.228759765625,5197,-6073,-1970,-1,1,3
38182696,0.5718994140625,-0.745849609375,-0.25384521484375,-0.22869873046875,5175,-6061,-1961,-1,1,3
38192681,0.57196044921875,-0.74591064453125,-0.25341796875,-0.2286376953125,5142,-6056,-1964,-1,1,2
38202666,0.572021484375,-0.74603271484375,-0.2530517578125,-0.22857666015625,5133,-6055,-1958,-1,1,2
38212649,0.572021484375,-0.74609375,-0.25274658203125,-0.22857666015625,5115,-6049,-1974,-2,1,1
38222633,0.572021484375,-0.7462158203125,-0.25250244140625,-0.22857666015625,5096,-6034,-1983,-2,1,1
38232620,0.57196044921875,-0.746337890625,-0.252197265625,-0.22857666015625,5062,-6022,-1981,-2,0,1
38242602,0.57196044921875,-0.7464599609375,-0.251953125,-0.228515625,5049,-6019,-1970,-2,0,1
38252585,0.57196044921875,-0.74658203125,-0.251708984375,-0.22845458984375,5032,-6018,-1963,-2,0,1
38262556,0.57183837890625,-0.74676513671875,-0.25146484375,-0.2283935546875,5023,-6026,-1964,-2,0,1
38272541,0.57177734375,-0.74688720703125,-0.25128173828125,-0.22833251953125,5018,-6024,-1978,-2,-1,0
38282527,0.57159423828125,-0.7470703125,-0.251220703125,-0.22833251953125,5009,-6030,-1980,-2,-1,0
38292502,0.5714111328125,-0.7471923828125,-0.251220703125,-0.22833251953125,5016,-6043,-1987,-2,-1,-1
38302483,0.57122802734375,-0.747314453125,-0.25128173828125,-0.2283935546875,4998,-6050,-1996,-2,-1,-2
38312464,0.571044921875,-0.74737548828125,-0.25140380859375,-0.22845458984375,4999,-6061,-2008,-2,-1,-3
38322448,0.57073974609375,-0.74749755859375,-0.25164794921875,-0.228515625,4982,-6071,-2004,-2,-2,-4
38332431,0.57049560546875,-0.74749755859375,-0.25201416015625,-0.22869873046875,4987,-6083,-2008,-2,-2,-5
38342419,0.5701904296875,-0.74755859375,-0.25244140625,-0.2288818359375,5001,-6101,-2010,-2,-2,-5
38352391,0.56988525390625,-0.74755859375,-0.25299072265625,-0.22906494140625,5013,-6114,-2032,-2,-2,-6
38362375,0.56951904296875,-0.74755859375,-0.2535400390625,-0.229248046875,5013,-6138,-2043,-2,-2,-6
38372357,0.5692138671875,-0.74755859375,-0.25408935546875,-0.2293701171875,5019,-6154,-2068,-1,-2,-6
38382344,0.5689697265625,-0.74755859375,-0.25457763671875,-0.2294921875,5023,-6173,-2073,-1,-3,-5
38392326,0.5687255859375,-0.74755859375,-0.2550048828125,-0.2294921875,5011,-6171,-2080,-1,-3,-4
38402314,0.56866455078125,-0.74761962890625,-0.25531005859375,-0.2293701171875,4993,-6166,-2079,0,-3,-3
38412303,0.56854248046875,-0.74761962890625,-0.25555419921875,-0.22918701171875,5000,-6160,-2066,0,-3,-2
38422277,0.56854248046875,-0.74761962890625,-0.25579833984375,-0.22894287109375,4997,-6176,-2083,0,-3,-2
38432259,0.5684814453125,-0.7476806640625,-0.25604248046875,-0.22869873046875,4988,-6174,-2097,1,-3,-2
38442240,0.56842041015625,-0.7476806640625,-0.25634765625,-0.22845458984375,4982,-6163,-2090,1,-3,-2
38452222,0.56842041015625,-0.74761962890625,-0.25665283203125,-0.228271484375,4966,-6147,-2087,1,-3,-3
38462209,0.56842041015625,-0.74755859375,-0.25701904296875,-0.22808837890625,4960,-6138,-2096,1,-3,-3
38472195,0.56842041015625,-0.74749755859375,-0.2574462890625,-0.22784423828125,4951,-6139,-2091,1,-3,-3
38482179,0.5684814453125,-0.74737548828125,-0.25787353515625,-0.2276611328125,4935,-6132,-2083,1,-3,-4
38492159,0.5684814453125,-0.74725341796875,-0.25836181640625,-0.2275390625,4940,-6133,-2090,2,-3,-4
38502133,0.5684814453125,-0.7470703125,-0.2589111328125,-0.2274169921875,4945,-6140,-2116,2,-3,-6
38512115,0.56842041015625,-0.74688720703125,-0.2596435546875,-0.2274169921875,4948,-6161,-2111,2,-3,-7
38522099,0.56842041015625,-0.74658203125,-0.260498046875,-0.22747802734375,4964,-6186,-2125,2,-3,-8
38532081,0.568359375,-0.7462158203125,-0.261474609375,-0.2276611328125,4990,-6222,-2134,3,-3,-10
38542064,0.56829833984375,-0.74578857421875,-0.2625732421875,-0.2279052734375,5004,-6243,-2137,3,-3,-11
38552044,0.5682373046875,-0.74530029296875,-0.2637939453125,-0.228271484375,5030,-6247,-2139,3,-3,-12
38562027,0.56817626953125,-0.7447509765625,-0.26507568359375,-0.2286376953125,5049,-6258,-2146,3,-3,-13
38572011,0.568115234375,-0.744140625,-0.2664794921875,-0.2291259765625,5071,-6268,-2156,4,-3,-14
38581993,0.56805419921875,-0.7435302734375,-0.26800537109375,-0.22967529296875,5112,-6294,-2177,4,-3,-15
38591977,0.5679931640625,-0.7427978515625,-0.26959228515625,-0.23028564453125,5168,-6338,-2197,4,-3,-16
38601958,0.56787109375,-0.74200439453125,-0.27130126953125,-0.2310791015625,5235,-6382,-2209,5,-2,-18
38611942,0.56781005859375,-0.74114990234375,-0.2730712890625,-0.23187255859375,5284,-6427,-2232,4,-2,-19
38621925,0.5677490234375,-0.740234375,-0.27490234375,-0.23272705078125,5324,-6466,-2259,5,-1,-20
38631906,0.56768798828125,-0.73931884765625,-0.27679443359375,-0.23370361328125,5361,-6508,-2276,5,-1,-20
38641889,0.567626953125,-0.73828125,-0.2786865234375,-0.234619140625,5414,-6545,-2301,6,-1,-21
38651874,0.567626953125,-0.73724365234375,-0.2806396484375,-0.23565673828125,5472,-6603,-2317,6,-1,-22
38661856,0.56756591796875,-0.7362060546875,-0.2825927734375,-0.23675537109375,5531,-6637,-2320,6,0,-22
38671843,0.567626953125,-0.73504638671875,-0.28460693359375,-0.23779296875,5543,-6634,-2297,6,0,-22
38681828,0.56768798828125,-0.73394775390625,-0.28643798828125,-0.23876953125,5534,-6584,-2279,6,0,-20
38691808,0.56787109375,-0.7330322265625,-0.2879638671875,-0.239501953125,5476,-6497,-2235,6,-1,-16
38701786,0.56817626953125,-0.73223876953125,-0.2890625,-0.23980712890625,5396,-6364,-2177,6,-1,-10
38711775,0.568603515625,-0.731689453125,-0.2896728515625,-0.23968505859375,5321,-6238,-2120,6,-2,-4
38721755,0.5692138671875,-0.7313232421875,-0.28985595703125,-0.2391357421875,5253,-6113,-2068,6,-2,0
38731734,0.5699462890625,-0.7310791015625,-0.28973388671875,-0.23834228515625,5191,-6006,-2004,6,-3,4
38741718,0.57061767578125,-0.73101806640625,-0.2894287109375,-0.23724365234375,5104,-5878,-1948,6,-4,6
38751699,0.57135009765625,-0.73095703125,-0.28912353515625,-0.23602294921875,5014,-5762,-1909,6,-4,7
38761682,0.57196044921875,-0.73095703125,-0.28887939453125,-0.23486328125,4937,-5657,-1864,5,-5,6
38771670,0.57244873046875,-0.73089599609375,-0.28887939453125,-0.2337646484375,4878,-5575,-1831,5,-6,4
38781652,0.57281494140625,-0.7308349609375,-0.2891845703125,-0.23284912109375,4862,-5531,-1819,5,-6,1
38791637,0.572998046875,-0.73065185546875,-0.289794921875,-0.232177734375,4869,-5516,-1811,4,-7,-3
38801614,0.57305908203125,-0.73028564453125,-0.29083251953125,-0.231689453125,4909,-5508,-1825,4,-7,-7
38811604,0.572998046875,-0.72991943359375,-0.29217529296875,-0.23150634765625,4971,-5528,-1848,4,-7,-10
38821588,0.57281494140625,-0.7293701171875,-0.2938232421875,-0.2315673828125,5058,-5574,-1874,4,-7,-14
38831565,0.572509765625,-0.72882080078125,-0.29571533203125,-0.23175048828125,5143,-5646,-1915,4,-7,-16
38841543,0.5721435546875,-0.7281494140625,-0.2977294921875,-0.2320556640625,5216,-5692,-1957,4,-7,-17
38851526,0.5718994140625,-0.7274169921875,-0.29974365234375,-0.23236083984375,5291,-5734,-1987,4,-7,-17
38861508,0.5716552734375,-0.726806640625,-0.30157470703125,-0.23248291015625,5370,-5725,-1998,5,-7,-14
38871491,0.57159423828125,-0.72625732421875,-0.3031005859375,-0.232421875,5481,-5716,-2011,5,-7,-10
38881476,0.57171630859375,-0.72576904296875,-0.30426025390625,-0.2320556640625,5599,-5701,-2028,6,-7,-5
38891453,0.57196044921875,-0.72540283203125,-0.3050537109375,-0.2314453125,5699,-5708,-2055,6,-7,-1
38901439,0.57232666015625,-0.72515869140625,-0.3056640625,-0.2305908203125,5781,-5735,-2102,7,-6,2
38911421,0.57281494140625,-0.72491455078125,-0.3060302734375,-0.22967529296875,5828,-5784,-2125,7,-6,2
38921409,0.5733642578125,-0.72454833984375,-0.3065185546875,-0.22882080078125,5891,-5819,-2166,8,-5,1
38931385,0.57391357421875,-0.7239990234375,-0.30718994140625,-0.22821044921875,5960,-5861,-2193,9,-4,-2
38941367,0.574462890625,-0.72332763671875,-0.30810546875,-0.22784423828125,6030,-5903,-2210,9,-4,-5
38951347,0.574951171875,-0.72235107421875,-0.30938720703125,-0.22784423828125,6121,-5920,-2228,10,-3,-9
38961334,0.57550048828125,-0.7213134765625,-0.310791015625,-0.22802734375,6184,-5921,-2244,11,-3,-11
38971316,0.57598876953125,-0.7200927734375,-0.3123779296875,-0.2283935546875,6246,-5895,-2251,11,-2,-12
38981303,0.5765380859375,-0.7188720703125,-0.31390380859375,-0.228759765625,6265,-5833,-2237,11,-1,-12
38991283,0.57708740234375,-0.7176513671875,-0.31536865234375,-0.22906494140625,6258,-5761,-2211,11,-1,-10
39001263,0.577880859375,-0.71649169921875,-0.3165283203125,-0.22930908203125,6237,-5674,-2169,12,-1,-8
39011250,0.57867431640625,-0.71533203125,-0.3175048828125,-0.2293701171875,6204,-5569,-2123,12,0,-5
39021230,0.57965087890625,-0.71435546875,-0.31817626953125,-0.229248046875,6188,-5474,-2083,12,0,-2
39031216,0.58074951171875,-0.71337890625,-0.31854248046875,-0.2288818359375,6170,-5389,-2040,13,0,1
39041192,0.5819091796875,-0.7125244140625,-0.3187255859375,-0.22833251953125,6179,-5312,-1990,13,0,4
39051184,0.5831298828125,-0.71173095703125,-0.3187255859375,-0.22772216796875,6202,-5234,-1960,13,0,7
39061164,0.58441162109375,-0.71099853515625,-0.31854248046875,-0.22698974609375,6212,-5133,-1937,13,1,8
39071143,0.585693359375,-0.71026611328125,-0.31829833984375,-0.22625732421875,6195,-5052,-1889,12,1,9
39081127,0.58697509765625,-0.70965576171875,-0.31793212890625,-0.22540283203125,6150,-4984,-1859,12,1,9
39091107,0.5882568359375,-0.708984375,-0.317626953125,-0.2247314453125,6120,-4938,-1828,12,1,8
39101090,0.58941650390625,-0.70819091796875,-0.3175048828125,-0.22418212890625,6090,-4917,-1804,12,2,5
39111076,0.59051513671875,-0.70733642578125,-0.317626953125,-0.22393798828125,6068,-4912,-1773,12,2,1
39121061,0.59149169921875,-0.7061767578125,-0.31817626953125,-0.22406005859375,6064,-4924,-1731,12,2,-4
39131037,0.59234619140625,-0.70489501953125,-0.31915283203125,-0.2244873046875,6053,-4955,-1691,12,2,-9
39141022,0.5931396484375,-0.703369140625,-0.32049560546875,-0.22528076171875,6045,-4986,-1642,12,2,-13
39151004,0.59381103515625,-0.70172119140625,-0.3221435546875,-0.2261962890625,6041,-5034,-1597,12,1,-16
39160985,0.59442138671875,-0.70001220703125,-0.32403564453125,-0.227294921875,6058,-5070,-1570,12,1,-18
39170969,0.59503173828125,-0.69818115234375,-0.3260498046875,-0.2283935546875,6083,-5098,-1565,13,1,-19
39180955,0.595703125,-0.6964111328125,-0.32806396484375,-0.2293701171875,6123,-5103,-1570,14,0,-18
39190939,0.59637451171875,-0.694580078125,-0.330078125,-0.23016357421875,6174,-5099,-1575,14,-1,-16
39200916,0.59716796875,-0.69287109375,-0.33184814453125,-0.230712890625,6192,-5099,-1567,15,-1,-13
39210899,0.59814453125,-0.69122314453125,-0.33343505859375,-0.23095703125,6189,-5108,-1539,16,-2,-11
39220883,0.59918212890625,-0.68963623046875,-0.3348388671875,-0.23089599609375,6169,-5133,-1503,17,-2,-9
39230862,0.600341796875,-0.68798828125,-0.3363037109375,-0.23065185546875,6138,-5164,-1453,18,-3,-8
39240853,0.6015625,-0.68621826171875,-0.33782958984375,-0.2303466796875,6088,-5194,-1391,19,-4,-10
39250836,0.602783203125,-0.68438720703125,-0.3397216796875,-0.2301025390625,6038,-5227,-1346,20,-5,-13
39260818,0.6038818359375,-0.682373046875,-0.3419189453125,-0.22991943359375,5969,-5239,-1299,20,-6,-16
39270796,0.60498046875,-0.68017578125,-0.3443603515625,-0.229736328125,5900,-5259,-1278,22,-7,-18
39280779,0.60601806640625,-0.677978515625,-0.34716796875,-0.2294921875,5865,-5253,-1281,23,-9,-20
39290761,0.6070556640625,-0.67559814453125,-0.35009765625,-0.22918701171875,5843,-5233,-1267,24,-10,-20
39300742,0.60809326171875,-0.6732177734375,-0.35321044921875,-0.228759765625,5827,-5173,-1263,25,-11,-20
39310724,0.609130859375,-0.6707763671875,-0.35638427734375,-0.2281494140625,5767,-5128,-1245,26,-13,-20
39320707,0.61016845703125,-0.6683349609375,-0.35968017578125,-0.227294921875,5692,-5096,-1231,27,-14,-20
39330691,0.6112060546875,-0.665771484375,-0.36328125,-0.226318359375,5611,-5093,-1211,28,-16,-22
39340670,0.61224365234375,-0.6630859375,-0.3671875,-0.225341796875,5531,-5069,-1195,29,-18,-25
39350663,0.61309814453125,-0.66015625,-0.37152099609375,-0.224365234375,5452,-5032,-1164,30,-20,-28
39360645,0.6138916015625,-0.65704345703125,-0.376220703125,-0.22332763671875,5377,-4986,-1126,31,-22,-31
39370631,0.6146240234375,-0.65380859375,-0.38128662109375,-0.2222900390625,5336,-4931,-1093,32,-24,-33
39380617,0.615234375,-0.65045166015625,-0.38665771484375,-0.2210693359375,5324,-4878,-1078,34,-27,-34
39390599,0.61578369140625,-0.6470947265625,-0.39227294921875,-0.21966552734375,5319,-4837,-1074,34,-29,-35
39400583,0.61627197265625,-0.64361572265625,-0.39813232421875,-0.2181396484375,5313,-4805,-1074,35,-31,-35
39410553,0.61663818359375,-0.64007568359375,-0.40411376953125,-0.21630859375,5315,-4764,-1071,36,-33,-35
39420536,0.61700439453125,-0.636474609375,-0.4102783203125,-0.21429443359375,5327,-4695,-1057,38,-35,-35
39430518,0.6173095703125,-0.63287353515625,-0.41650390625,-0.2120361328125,5350,-4584,-1050,38,-37,-33
39440503,0.6175537109375,-0.62933349609375,-0.4227294921875,-0.20941162109375,5397,-4453,-1036,39,-39,-30
39450486,0.61785888671875,-0.6259765625,-0.4288330078125,-0.20635986328125,5454,-4311,-1048,39,-41,-26
39460468,0.61810302734375,-0.622802734375,-0.43475341796875,-0.2027587890625,5519,-4201,-1068,40,-43,-21
39470449,0.61834716796875,-0.619873046875,-0.4404296875,-0.19873046875,5587,-4100,-1110,40,-45,-16
39480433,0.6185302734375,-0.6171875,-0.44586181640625,-0.1942138671875,5661,-4025,-1161,40,-46,-13
39490421,0.61871337890625,-0.6146240234375,-0.45123291015625,-0.18951416015625,5724,-3965,-1193,40,-47,-11
39500405,0.6187744140625,-0.6119384765625,-0.4566650390625,-0.1846923828125,5818,-3902,-1232,40,-48,-11
39510380,0.6187744140625,-0.609130859375,-0.46234130859375,-0.1800537109375,5934,-3839,-1283,41,-48,-14
39520363,0.61859130859375,-0.6060791015625,-0.46826171875,-0.175537109375,6091,-3792,-1355,41,-49,-17
39530345,0.6182861328125,-0.60272216796875,-0.47442626953125,-0.17132568359375,6280,-3754,-1443,41,-49,-20
39540329,0.61785888671875,-0.59918212890625,-0.48089599609375,-0.1673583984375,6484,-3755,-1529,42,-49,-24
39550312,0.617431640625,-0.59521484375,-0.48760986328125,-0.163818359375,6690,-3786,-1615,42,-48,-29
39560293,0.6168212890625,-0.5908203125,-0.49462890625,-0.16070556640625,6879,-3819,-1717,42,-47,-34
39570275,0.61614990234375,-0.58599853515625,-0.5020751953125,-0.1580810546875,7036,-3855,-1802,43,-46,-41
39580260,0.6153564453125,-0.58062744140625,-0.50982666015625,-0.156005859375,7178,-3889,-1879,43,-45,-48
39590240,0.6146240234375,-0.57476806640625,-0.517822265625,-0.1544189453125,7305,-3926,-1960,44,-43,-54
39600222,0.61383056640625,-0.56842041015625,-0.5260009765625,-0.1533203125,7415,-3955,-2026,45,-41,-59
39610209,0.6131591796875,-0.5616455078125,-0.53424072265625,-0.15252685546875,7482,-3984,-2087,46,-39,-63
39620195,0.612548828125,-0.55450439453125,-0.54248046875,-0.15185546875,7526,-4014,-2134,47,-37,-65
39630178,0.6121826171875,-0.547119140625,-0.550537109375,-0.1512451171875,7524,-4033,-2164,49,-35,-66
39640160,0.6119384765625,-0.53955078125,-0.558349609375,-0.15057373046875,7483,-4039,-2185,51,-33,-65
39650136,0.6119384765625,-0.53192138671875,-0.56591796875,-0.1495361328125,7419,-4038,-2206,53,-31,-63
39660118,0.6121826171875,-0.52423095703125,-0.5731201171875,-0.148193359375,7341,-4026,-2235,56,-30,-60
39670102,0.6126708984375,-0.5166015625,-0.5799560546875,-0.1463623046875,7267,-4022,-2276,59,-29,-55
39680084,0.61334228515625,-0.5091552734375,-0.58642578125,-0.14398193359375,7216,-4024,-2313,61,-28,-50
39690066,0.61431884765625,-0.5018310546875,-0.5924072265625,-0.1409912109375,7177,-4041,-2332,63,-27,-44
39700049,0.615478515625,-0.4947509765625,-0.59796142578125,-0.137451171875,7131,-4065,-2360,65,-26,-39
39710031,0.61688232421875,-0.48785400390625,-0.60308837890625,-0.13330078125,7074,-4078,-2348,67,-26,-34
39720015,0.618408203125,-0.4810791015625,-0.60791015625,-0.128662109375,7004,-4089,-2323,69,-26,-29
39729997,0.62005615234375,-0.47454833984375,-0.61248779296875,-0.12353515625,6932,-4085,-2312,71,-27,-25
39739978,0.6217041015625,-0.4681396484375,-0.6168212890625,-0.11798095703125,6861,-4099,-2288,72,-27,-21
39749968,0.62335205078125,-0.46185302734375,-0.6209716796875,-0.11212158203125,6811,-4131,-2262,73,-28,-19
39759945,0.625,-0.45550537109375,-0.62506103515625,-0.10595703125,6779,-4172,-2236,74,-28,-18
39769927,0.6265869140625,-0.4490966796875,-0.629150390625,-0.099609375,6751,-4211,-2209,75,-29,-18
39779909,0.6280517578125,-0.4425048828125,-0.63330078125,-0.09320068359375,6738,-4222,-2188,76,-31,-19
39789893,0.62945556640625,-0.435791015625,-0.63751220703125,-0.08673095703125,6722,-4198,-2137,77,-32,-19
39799874,0.63067626953125,-0.42901611328125,-0.6417236328125,-0.08013916015625,6690,-4134,-2082,77,-33,-19
39809863,0.63177490234375,-0.42218017578125,-0.64593505859375,-0.073486328125,6642,-4058,-2021,77,-34,-18
39819847,0.6326904296875,-0.41546630859375,-0.650146484375,-0.066650390625,6582,-3973,-1976,77,-36,-16
39829827,0.6334228515625,-0.4088134765625,-0.65435791015625,-0.05963134765625,6518,-3916,-1901,76,-38,-15
39839807,0.6339111328125,-0.40228271484375,-0.658447265625,-0.05242919921875,6440,-3877,-1848,76,-39,-13
39849787,0.63427734375,-0.3958740234375,-0.66253662109375,-0.0450439453125,6370,-3858,-1786,75,-41,-12
39859769,0.6343994140625,-0.38958740234375,-0.66656494140625,-0.03753662109375,6306,-3839,-1720,75,-42,-11
39869753,0.63433837890625,-0.38348388671875,-0.67059326171875,-0.0299072265625,6246,-3819,-1664,74,-44,-9
39879736,0.63409423828125,-0.3775634765625,-0.67449951171875,-0.02203369140625,6211,-3806,-1604,73,-46,-6
39889718,0.63360595703125,-0.37188720703125,-0.67828369140625,-0.01397705078125,6198,-3817,-1563,73,-47,-3
39899705,0.63299560546875,-0.366455078125,-0.68194580078125,-0.00567626953125,6235,-3834,-1518,71,-48,0
39909683,0.63214111328125,-0.361328125,-0.68548583984375,0.002685546875,6305,-3877,-1474,70,-49,2
39919662,0.63116455078125,-0.356201171875,-0.68896484375,0.01116943359375,6361,-3947,-1442,70,-50,3
39929654,0.6300048828125,-0.3511962890625,-0.6923828125,0.01971435546875,6404,-4023,-1396,69,-52,3
39939638,0.628662109375,-0.34619140625,-0.69580078125,0.0283203125,6442,-4102,-1358,69,-52,4
39949619,0.627197265625,-0.34124755859375,-0.69915771484375,0.03692626953125,6465,-4164,-1345,68,-53,5
39959609,0.62567138671875,-0.33636474609375,-0.702392578125,0.045654296875,6512,-4226,-1331,68,-53,6
39969592,0.6240234375,-0.33160400390625,-0.70550537109375,0.054443359375,6557,-4263,-1325,68,-54,8
39979569,0.6221923828125,-0.32696533203125,-0.70849609375,0.06341552734375,6600,-4309,-1334,68,-54,10
39989545,0.620361328125,-0.32244873046875,-0.7113037109375,0.072509765625,6643,-4386,-1336,68,-54,12
39999527,0.61846923828125,-0.31793212890625,-0.7139892578125,0.08160400390625,6668,-4495,-1347,68,-53,12
40009510,0.6165771484375,-0.3133544921875,-0.716552734375,0.09075927734375,6672,-4636,-1339,69,-53,11
40019493,0.61468505859375,-0.3084716796875,-0.71905517578125,0.099853515625,6692,-4766,-1348,69,-53,9
40029476,0.61279296875,-0.3033447265625,-0.7215576171875,0.10888671875,6739,-4891,-1368,71,-53,7
40039460,0.6109619140625,-0.29791259765625,-0.72393798828125,0.11785888671875,6800,-4993,-1406,72,-52,5
40049441,0.6092529296875,-0.292236328125,-0.72625732421875,0.126708984375,6853,-5078,-1445,73,-51,4
40059423,0.6075439453125,-0.28631591796875,-0.7283935546875,0.135498046875,6917,-5123,-1490,75,-49,3
40069413,0.60595703125,-0.28021240234375,-0.73040771484375,0.14434814453125,6959,-5151,-1500,76,-49,3
40079388,0.60443115234375,-0.2740478515625,-0.732177734375,0.15325927734375,7001,-5167,-1513,77,-48,4
40089371,0.6029052734375,-0.26788330078125,-0.7337646484375,0.1622314453125,7039,-5181,-1505,78,-46,5
40099354,0.60150146484375,-0.26171875,-0.735107421875,0.17132568359375,7082,-5186,-1496,78,-46,7
40109335,0.60003662109375,-0.255615234375,-0.73626708984375,0.18048095703125,7127,-5196,-1490,79,-45,7
40119320,0.59857177734375,-0.24957275390625,-0.73724365234375,0.18963623046875,7154,-5207,-1492,79,-44,9
40129303,0.59710693359375,-0.24365234375,-0.73797607421875,0.19891357421875,7160,-5216,-1457,80,-43,10
40139284,0.5955810546875,-0.23773193359375,-0.738525390625,0.20819091796875,7162,-5200,-1444,80,-42,11
40149265,0.59405517578125,-0.23193359375,-0.73895263671875,0.2174072265625,7132,-5184,-1456,79,-41,13
40159249,0.59246826171875,-0.2261962890625,-0.7392578125,0.22662353515625,7085,-5183,-1453,79,-40,13
40169231,0.5908203125,-0.2205810546875,-0.7393798828125,0.23577880859375,7005,-5187,-1433,79,-40,13
40179212,0.58917236328125,-0.2149658203125,-0.7393798828125,0.24493408203125,6949,-5196,-1425,78,-39,13
40189194,0.58746337890625,-0.209228515625,-0.7393798828125,0.25384521484375,6905,-5234,-1411,78,-38,11
40199185,0.58587646484375,-0.20330810546875,-0.7392578125,0.26251220703125,6915,-5255,-1399,78,-38,9
40209168,0.58441162109375,-0.1971435546875,-0.73907470703125,0.2708740234375,6923,-5268,-1384,77,-37,6
40219144,0.5830078125,-0.1907958984375,-0.7388916015625,0.27886962890625,6911,-5237,-1357,76,-36,4
40229126,0.58160400390625,-0.18438720703125,-0.7386474609375,0.28668212890625,6871,-5186,-1330,75,-35,3
40239110,0.5802001953125,-0.17803955078125,-0.73828125,0.29425048828125,6796,-5121,-1284,74,-34,3
40249092,0.57879638671875,-0.171875,-0.7379150390625,0.30169677734375,6715,-5079,-1218,72,-34,4
40259075,0.57733154296875,-0.165771484375,-0.73736572265625,0.3089599609375,6635,-5059,-1165,71,-33,3
40269061,0.57586669921875,-0.1597900390625,-0.73687744140625,0.3160400390625,6575,-5062,-1130,70,-33,2
40279040,0.5743408203125,-0.15374755859375,-0.73638916015625,0.3228759765625,6541,-5075,-1085,68,-32,1
40289023,0.5728759765625,-0.14764404296875,-0.73583984375,0.3294677734375,6520,-5074,-1056,67,-31,0
40299005,0.5714111328125,-0.14166259765625,-0.73529052734375,0.33575439453125,6489,-5040,-1023,65,-31,-1
40308985,0.5699462890625,-0.1357421875,-0.73480224609375,0.34185791015625,6464,-5018,-980,64,-31,-1
40318968,0.56842041015625,-0.1298828125,-0.7342529296875,0.3477783203125,6452,-5004,-927,62,-31,-1
40328952,0.56689453125,-0.12420654296875,-0.733642578125,0.35345458984375,6436,-4993,-865,60,-30,-2
40338933,0.5654296875,-0.1185302734375,-0.73309326171875,0.35894775390625,6417,-5001,-802,58,-29,-2
40348915,0.56396484375,-0.11297607421875,-0.7325439453125,0.3641357421875,6400,-5007,-749,56,-29,-4
40358900,0.5625,-0.10748291015625,-0.73199462890625,0.36907958984375,6385,-5017,-709,54,-28,-4
40368882,0.56103515625,-0.10211181640625,-0.73150634765625,0.37384033203125,6367,-5049,-652,52,-28,-4
40378860,0.5595703125,-0.09686279296875,-0.73095703125,0.37841796875,6343,-5132,-596,51,-27,-5
40388852,0.55810546875,-0.091796875,-0.73040771484375,0.3829345703125,6354,-5261,-535,49,-27,-5
40398834,0.556640625,-0.086669921875,-0.7298583984375,0.38720703125,6376,-5412,-474,48,-27,-7
40408817,0.5552978515625,-0.0814208984375,-0.72930908203125,0.391357421875,6404,-5550,-416,48,-27,-9
40418793,0.55401611328125,-0.076171875,-0.72869873046875,0.39532470703125,6392,-5635,-339,47,-27,-10
40428777,0.55267333984375,-0.07098388671875,-0.72802734375,0.39935302734375,6344,-5660,-281,47,-26,-9
40438760,0.55108642578125,-0.066162109375,-0.7274169921875,0.4034423828125,6267,-5658,-219,46,-27,-5
40448748,0.54925537109375,-0.06170654296875,-0.72674560546875,0.4078369140625,6195,-5638,-168,45,-27,0
40458727,0.547119140625,-0.05780029296875,-0.72601318359375,0.41253662109375,6130,-5642,-124,45,-27,5
40468708,0.544677734375,-0.05426025390625,-0.72528076171875,0.41754150390625,6110,-5651,-74,45,-28,10
40478691,0.54193115234375,-0.05108642578125,-0.7244873046875,0.42279052734375,6111,-5660,-44,45,-28,14
40488669,0.53900146484375,-0.0482177734375,-0.72369384765625,0.42822265625,6117,-5635,-18,45,-29,18
40498662,0.53582763671875,-0.04559326171875,-0.72296142578125,0.43377685546875,6098,-5590,25,44,-29,21
40508645,0.53240966796875,-0.04315185546875,-0.72216796875,0.439453125,6061,-5525,85,44,-30,23
40518631,0.52886962890625,-0.04083251953125,-0.72137451171875,0.4451904296875,6008,-5442,162,43,-31,25
40528614,0.525146484375,-0.03863525390625,-0.72064208984375,0.450927734375,5960,-5364,224,42,-32,26
40538599,0.52130126953125,-0.0364990234375,-0.719970703125,0.4566650390625,5900,-5297,280,41,-32,28
40548580,0.517333984375,-0.03448486328125,-0.7193603515625,0.4622802734375,5863,-5252,317,40,-33,28
40558551,0.51318359375,-0.032470703125,-0.71881103515625,0.46783447265625,5853,-5218,341,40,-34,28
40568534,0.509033203125,-0.03033447265625,-0.71832275390625,0.47320556640625,5882,-5195,340,39,-35,28
40578516,0.5048828125,-0.02813720703125,-0.7178955078125,0.4783935546875,5928,-5197,323,38,-35,26
40588500,0.50079345703125,-0.02581787109375,-0.71759033203125,0.48333740234375,5985,-5165,299,37,-35,26
40598482,0.4967041015625,-0.02349853515625,-0.71734619140625,0.488037109375,6044,-5122,244,36,-35,25
40608465,0.49261474609375,-0.021240234375,-0.7171630859375,0.49249267578125,6091,-5085,189,34,-35,25
40618451,0.488525390625,-0.01910400390625,-0.717041015625,0.496826171875,6132,-5055,142,33,-34,26
40628433,0.484375,-0.01708984375,-0.7169189453125,0.50103759765625,6198,-5040,97,31,-34,26
40638420,0.48028564453125,-0.01519775390625,-0.71685791015625,0.505126953125,6260,-5035,35,30,-33,27
40648403,0.4761962890625,-0.0135498046875,-0.7169189453125,0.50897216796875,6320,-5030,-12,28,-32,28
40658380,0.47216796875,-0.01202392578125,-0.71697998046875,0.5126953125,6339,-5000,-60,26,-32,28
40668362,0.46807861328125,-0.0107421875,-0.7171630859375,0.51617431640625,6303,-4937,-112,23,-31,29
40678344,0.4638671875,-0.00982666015625,-0.717529296875,0.51953125,6241,-4856,-159,20,-31,32
40688328,0.45947265625,-0.0093994140625,-0.718017578125,0.522705078125,6170,-4788,-196,17,-31,34
40698310,0.45489501953125,-0.00927734375,-0.71875,0.52569580078125,6111,-4734,-258,14,-30,37
40708292,0.4501953125,-0.009521484375,-0.71966552734375,0.52850341796875,6057,-4729,-338,11,-30,37
40718273,0.445556640625,-0.0098876953125,-0.72076416015625,0.53094482421875,5995,-4761,-420,8,-30,36
40728257,0.4410400390625,-0.01025390625,-0.72198486328125,0.53302001953125,5951,-4813,-488,5,-29,33
40738245,0.43682861328125,-0.01043701171875,-0.72332763671875,0.53466796875,5908,-4864,-550,3,-29,29
40748223,0.4329833984375,-0.01043701171875,-0.72479248046875,0.5357666015625,5857,-4934,-602,0,-28,24
40758209,0.4295654296875,-0.01019287109375,-0.72637939453125,0.536376953125,5810,-5009,-657,-2,-27,19
40768190,0.42657470703125,-0.0096435546875,-0.72802734375,0.53656005859375,5780,-5072,-707,-4,-26,14
40778172,0.4239501953125,-0.00885009765625,-0.729736328125,0.53631591796875,5732,-5164,-771,-6,-24,9
40788149,0.421630859375,-0.00799560546875,-0.73150634765625,0.5357666015625,5693,-5254,-837,-7,-23,6
40798132,0.41973876953125,-0.00701904296875,-0.73321533203125,0.534912109375,5652,-5362,-897,-9,-21,2
40808109,0.41802978515625,-0.00604248046875,-0.7349853515625,0.53387451171875,5629,-5467,-974,-9,-20,0
40818093,0.4166259765625,-0.00506591796875,-0.73663330078125,0.53265380859375,5610,-5564,-1027,-10,-18,-1
40828072,0.415283203125,-0.00421142578125,-0.73834228515625,0.5313720703125,5592,-5640,-1077,-11,-16,-1
40838061,0.41412353515625,-0.003662109375,-0.73992919921875,0.5301513671875,5584,-5692,-1121,-12,-14,0
40848041,0.4129638671875,-0.00341796875,-0.741455078125,0.52886962890625,5548,-5724,-1165,-12,-13,3
40858026,0.41162109375,-0.00360107421875,-0.74298095703125,0.52777099609375,5474,-5742,-1187,-13,-11,6
40868010,0.41021728515625,-0.00433349609375,-0.74444580078125,0.52679443359375,5395,-5782,-1208,-14,-10,10
40877991,0.40869140625,-0.00543212890625,-0.745849609375,0.52593994140625,5324,-5840,-1226,-14,-8,13
40887975,0.40704345703125,-0.0069580078125,-0.74725341796875,0.52520751953125,5253,-5903,-1253,-15,-7,16
40897959,0.4053955078125,-0.0087890625,-0.74853515625,0.524658203125,5198,-5963,-1281,-15,-6,18
40907941,0.40374755859375,-0.0108642578125,-0.74981689453125,0.52410888671875,5146,-6005,-1300,-15,-5,19
40917922,0.40216064453125,-0.01312255859375,-0.7509765625,0.5235595703125,5093,-6031,-1321,-15,-3,20
40927902,0.40069580078125,-0.01544189453125,-0.7520751953125,0.52301025390625,5048,-6048,-1363,-15,-2,19
40937884,0.3994140625,-0.01776123046875,-0.75311279296875,0.52239990234375,5003,-6093,-1396,-15,-1,18
40947874,0.39837646484375,-0.01995849609375,-0.75408935546875,0.521728515625,4976,-6147,-1442,-15,1,16
40957857,0.39764404296875,-0.0220947265625,-0.7550048828125,0.5208740234375,4949,-6197,-1484,-16,2,13
40967839,0.39715576171875,-0.0240478515625,-0.75592041015625,0.51983642578125,4920,-6213,-1540,-16,3,10
40977823,0.39697265625,-0.02581787109375,-0.7568359375,0.51861572265625,4901,-6237,-1576,-16,5,8
40987798,0.39703369140625,-0.02752685546875,-0.7576904296875,0.51727294921875,4897,-6260,-1612,-17,6,6
40997781,0.39727783203125,-0.0291748046875,-0.758544921875,0.51568603515625,4877,-6279,-1624,-17,7,4
41007763,0.397705078125,-0.03076171875,-0.75933837890625,0.51409912109375,4852,-6310,-1644,-18,8,3
41017745,0.3983154296875,-0.0323486328125,-0.7601318359375,0.5123291015625,4846,-6310,-1657,-18,9,1
41027729,0.3990478515625,-0.033935546875,-0.76092529296875,0.510498046875,4834,-6323,-1657,-19,10,1
41037711,0.39990234375,-0.03564453125,-0.76165771484375,0.50860595703125,4831,-6334,-1691,-19,11,1
41047695,0.40081787109375,-0.0374755859375,-0.76239013671875,0.5067138671875,4857,-6344,-1717,-20,12,2
41057681,0.40185546875,-0.03936767578125,-0.76300048828125,0.50469970703125,4918,-6359,-1757,-20,14,2
41067663,0.40313720703125,-0.04144287109375,-0.7635498046875,0.50274658203125,4981,-6371,-1808,-20,16,2
41077647,0.404541015625,-0.04364013671875,-0.7640380859375,0.50067138671875,5029,-6390,-1846,-20,18,2
41087631,0.40625,-0.04595947265625,-0.76434326171875,0.49859619140625,5070,-6412,-1879,-20,20,2
41097612,0.4080810546875,-0.04833984375,-0.76458740234375,0.4964599609375,5092,-6456,-1910,-20,23,1
41107599,0.4102783203125,-0.05084228515625,-0.76470947265625,0.49432373046875,5110,-6512,-1938,-20,25,0
41117578,0.4127197265625,-0.05328369140625,-0.7646484375,0.4920654296875,5144,-6541,-1991,-20,28,-2
41127547,0.41552734375,-0.05572509765625,-0.7645263671875,0.48968505859375,5177,-6587,-2019,-20,30,-4
41137530,0.4185791015625,-0.05816650390625,-0.76416015625,0.48724365234375,5217,-6609,-2039,-19,33,-5
41147511,0.4219970703125,-0.0606689453125,-0.763671875,0.48486328125,5278,-6630,-2053,-19,35,-5
41157493,0.4256591796875,-0.0633544921875,-0.762939453125,0.48236083984375,5321,-6620,-2067,-18,39,-5
41167479,0.42950439453125,-0.06634521484375,-0.7620849609375,0.47998046875,5342,-6603,-2083,-18,42,-3
41177461,0.43353271484375,-0.06951904296875,-0.760986328125,0.47760009765625,5361,-6600,-2086,-18,45,-3
41187447,0.43780517578125,-0.072998046875,-0.75970458984375,0.47528076171875,5365,-6616,-2075,-18,47,-2
41197427,0.44219970703125,-0.07659912109375,-0.7581787109375,0.47296142578125,5371,-6627,-2067,-17,50,-2
41207418,0.4468994140625,-0.080322265625,-0.75653076171875,0.47064208984375,5382,-6647,-2064,-17,53,-2
41217403,0.45184326171875,-0.0841064453125,-0.754638671875,0.46820068359375,5372,-6645,-2061,-17,56,-3
41227379,0.45709228515625,-0.087890625,-0.75262451171875,0.4656982421875,5382,-6633,-2049,-16,58,-5
41237360,0.462646484375,-0.09161376953125,-0.75042724609375,0.46307373046875,5388,-6631,-2040,-16,61,-6
41247344,0.46844482421875,-0.09539794921875,-0.748046875,0.4603271484375,5392,-6640,-2016,-16,63,-8
41257326,0.47442626953125,-0.09912109375,-0.74554443359375,0.45745849609375,5368,-6649,-1967,-16,65,-9
41267308,0.48065185546875,-0.10284423828125,-0.74285888671875,0.4544677734375,5347,-6632,-1924,-16,67,-11
41277291,0.48699951171875,-0.10662841796875,-0.7401123046875,0.45135498046875,5303,-6603,-1888,-16,68,-12
41287273,0.493408203125,-0.11041259765625,-0.7371826171875,0.4482421875,5262,-6558,-1828,-16,69,-11
41297255,0.4998779296875,-0.1142578125,-0.73419189453125,0.445068359375,5218,-6521,-1746,-17,69,-11
41307239,0.50628662109375,-0.1182861328125,-0.7310791015625,0.44183349609375,5172,-6468,-1668,-17,71,-10
41317221,0.5126953125,-0.1224365234375,-0.72784423828125,0.4385986328125,5152,-6422,-1586,-17,71,-10
41327209,0.51904296875,-0.12664794921875,-0.72454833984375,0.4354248046875,5131,-6380,-1527,-17,71,-9
41337193,0.5252685546875,-0.1309814453125,-0.72125244140625,0.43212890625,5117,-6361,-1483,-18,71,-8
41347176,0.53143310546875,-0.13531494140625,-0.7178955078125,0.42877197265625,5091,-6337,-1418,-19,71,-8
41357159,0.53759765625,-0.13958740234375,-0.714599609375,0.42535400390625,5039,-6318,-1350,-19,71,-10
41367135,0.543701171875,-0.1436767578125,-0.7113037109375,0.42169189453125,4985,-6280,-1280,-20,70,-12
41377118,0.54974365234375,-0.1475830078125,-0.7081298828125,0.417724609375,4926,-6222,-1186,-21,68,-14
41387099,0.55572509765625,-0.15130615234375,-0.705078125,0.41363525390625,4849,-6143,-1085,-22,67,-16
41397082,0.5615234375,-0.1549072265625,-0.70220947265625,0.409423828125,4760,-6061,-975,-23,64,-17
41407066,0.567138671875,-0.158447265625,-0.69940185546875,0.405029296875,4693,-5999,-860,-25,62,-17
41417047,0.5723876953125,-0.1619873046875,-0.69683837890625,0.400634765625,4646,-5953,-765,-26,60,-17
41427028,0.57733154296875,-0.1656494140625,-0.6944580078125,0.39617919921875,4613,-5909,-694,-28,57,-15
41437012,0.5819091796875,-0.1693115234375,-0.6922607421875,0.391845703125,4591,-5899,-630,-29,54,-14
41446994,0.5860595703125,-0.1729736328125,-0.69024658203125,0.387451171875,4580,-5888,-568,-30,51,-13
41456977,0.58990478515625,-0.17669677734375,-0.6884765625,0.3831787109375,4559,-5881,-523,-31,48,-12
41466959,0.59326171875,-0.18048095703125,-0.6868896484375,0.37890625,4556,-5866,-476,-32,44,-10
41476941,0.59625244140625,-0.184326171875,-0.68560791015625,0.37481689453125,4534,-5848,-417,-34,41,-8
41486925,0.5987548828125,-0.18829345703125,-0.6844482421875,0.370849609375,4510,-5824,-397,-35,37,-5
41496907,0.60076904296875,-0.1923828125,-0.68359375,0.3670654296875,4523,-5815,-369,-35,33,-2
41506896,0.6024169921875,-0.196533203125,-0.682861328125,0.36358642578125,4546,-5823,-342,-36,30,0
41516874,0.60357666015625,-0.2008056640625,-0.682373046875,0.3602294921875,4584,-5841,-343,-36,27,3
41526862,0.6043701171875,-0.20513916015625,-0.6820068359375,0.35711669921875,4615,-5892,-338,-37,23,5
41536844,0.60479736328125,-0.20953369140625,-0.6817626953125,0.354248046875,4643,-5951,-323,-36,20,7
41546826,0.6048583984375,-0.2138671875,-0.68170166015625,0.35162353515625,4666,-5996,-329,-36,17,9
41556805,0.60467529296875,-0.21820068359375,-0.6817626953125,0.34918212890625,4690,-6059,-325,-35,15,10
41566787,0.60418701171875,-0.22247314453125,-0.68194580078125,0.34698486328125,4722,-6114,-358,-34,12,11
41576769,0.60357666015625,-0.2265625,-0.68218994140625,0.344970703125,4775,-6150,-382,-33,10,12
41586751,0.60272216796875,-0.23052978515625,-0.68255615234375,0.34307861328125,4823,-6195,-437,-32,8,12
41596734,0.6016845703125,-0.234375,-0.6829833984375,0.3414306640625,4884,-6247,-474,-31,6,13
41606718,0.60064697265625,-0.238037109375,-0.68341064453125,0.33990478515625,4942,-6308,-500,-30,5,13
41616700,0.5994873046875,-0.2415771484375,-0.683837890625,0.33856201171875,4995,-6366,-546,-28,4,14
41626682,0.5982666015625,-0.24493408203125,-0.68426513671875,0.33740234375,5032,-6405,-582,-26,2,14
41636670,0.59698486328125,-0.24810791015625,-0.6846923828125,0.33642578125,5060,-6434,-628,-24,1,14
41646649,0.595703125,-0.25115966796875,-0.68511962890625,0.33563232421875,5106,-6471,-658,-22,1,14
41656631,0.59442138671875,-0.25390625,-0.685546875,0.33502197265625,5139,-6488,-686,-20,0,14
41666615,0.5931396484375,-0.25653076171875,-0.6859130859375,0.33453369140625,5173,-6528,-726,-18,-1,13
41676603,0.592041015625,-0.2587890625,-0.68621826171875,0.3341064453125,5204,-6539,-751,-16,-1,12
41686584,0.5909423828125,-0.26080322265625,-0.6865234375,0.3338623046875,5240,-6543,-779,-14,-1,11
41696556,0.59002685546875,-0.2625732421875,-0.686767578125,0.3336181640625,5275,-6567,-809,-12,-1,9
41706539,0.5892333984375,-0.2640380859375,-0.68701171875,0.33343505859375,5316,-6580,-837,-10,-1,8
41716521,0.58856201171875,-0.26519775390625,-0.68719482421875,0.333251953125,5364,-6580,-877,-8,-1,6
41726509,0.58807373046875,-0.26611328125,-0.68731689453125,0.3331298828125,5418,-6574,-903,-6,0,5
41736491,0.5877685546875,-0.2667236328125,-0.6873779296875,0.3330078125,5468,-6571,-927,-4,0,4
41746476,0.587646484375,-0.26715087890625,-0.6873779296875,0.3328857421875,5510,-6575,-939,-2,1,2
41756458,0.5877685546875,-0.26727294921875,-0.687255859375,0.332763671875,5539,-6580,-954,0,2,0
41766440,0.588134765625,-0.26715087890625,-0.6871337890625,0.3326416015625,5564,-6577,-941,1,3,-2
41776422,0.588623046875,-0.2667236328125,-0.6868896484375,0.33245849609375,5577,-6534,-933,3,3,-4
41786406,0.58929443359375,-0.26617431640625,-0.6866455078125,0.332275390625,5572,-6484,-919,4,4,-5
41796380,0.590087890625,-0.2655029296875,-0.686279296875,0.3321533203125,5577,-6429,-905,6,4,-5
41806362,0.59100341796875,-0.2647705078125,-0.685791015625,0.33209228515625,5595,-6373,-894,7,6,-5
41816348,0.592041015625,-0.26397705078125,-0.68524169921875,0.33203125,5594,-6353,-872,8,6,-6
41826332,0.59320068359375,-0.2630615234375,-0.68463134765625,0.33197021484375,5585,-6330,-840,9,7,-7
41836312,0.594482421875,-0.261962890625,-0.68402099609375,0.33184814453125,5575,-6329,-814,10,7,-9
41846296,0.59588623046875,-0.2606201171875,-0.683349609375,0.33172607421875,5579,-6315,-784,11,8,-11
41856278,0.59747314453125,-0.25921630859375,-0.6826171875,0.33148193359375,5582,-6294,-758,11,8,-11
41866262,0.5989990234375,-0.25775146484375,-0.681884765625,0.33123779296875,5552,-6256,-728,11,9,-12
41876241,0.60064697265625,-0.2562255859375,-0.68115234375,0.33111572265625,5528,-6200,-701,12,9,-11
41886227,0.6021728515625,-0.25482177734375,-0.68035888671875,0.3310546875,5493,-6155,-668,12,9,-10
41896209,0.6036376953125,-0.2535400390625,-0.67950439453125,0.33111572265625,5447,-6111,-630,12,9,-9
41906196,0.60504150390625,-0.25238037109375,-0.6785888671875,0.331298828125,5384,-6044,-596,12,8,-7
41916178,0.6063232421875,-0.2513427734375,-0.67767333984375,0.33154296875,5342,-5993,-561,11,8,-6
41926161,0.6075439453125,-0.2503662109375,-0.67681884765625,0.33184814453125,5307,-5943,-532,11,7,-5
41936139,0.608642578125,-0.24945068359375,-0.676025390625,0.3321533203125,5278,-5909,-519,10,7,-5
41946121,0.609619140625,-0.24859619140625,-0.67529296875,0.33245849609375,5249,-5891,-485,10,6,-5
41956103,0.610595703125,-0.24774169921875,-0.67462158203125,0.3326416015625,5231,-5872,-448,9,5,-5
41966085,0.61151123046875,-0.246826171875,-0.67413330078125,0.33270263671875,5207,-5842,-416,8,5,-6
41976067,0.6123046875,-0.2459716796875,-0.6737060546875,0.33270263671875,5183,-5816,-400,7,4,-7
41986051,0.613037109375,-0.24505615234375,-0.67340087890625,0.33258056640625,5167,-5806,-386,6,3,-7
41996034,0.61370849609375,-0.244140625,-0.67327880859375,0.33233642578125,5147,-5801,-356,5,2,-9
42006016,0.6142578125,-0.2432861328125,-0.6732177734375,0.33203125,5153,-5798,-346,3,1,-9
42015996,0.61474609375,-0.24237060546875,-0.67333984375,0.33160400390625,5148,-5805,-341,2,0,-9
42025981,0.6151123046875,-0.24151611328125,-0.67352294921875,0.33111572265625,5149,-5816,-329,1,-1,-9
42039421,0.61541748046875,-0.24072265625,-0.673828125,0.33056640625,5160,-5828,-327,1,-1,-9
42045944,0.61553955078125,-0.2401123046875,-0.6741943359375,0.33001708984375,5171,-5857,-321,-1,-2,-8
42055924,0.61553955078125,-0.2396240234375,-0.674560546875,0.32958984375,5176,-5876,-334,-1,-3,-6
42065910,0.61541748046875,-0.2392578125,-0.67498779296875,0.32928466796875,5189,-5888,-328,-2,-3,-5
42075890,0.61517333984375,-0.23907470703125,-0.6754150390625,0.3289794921875,5206,-5917,-339,-3,-4,-3
42085874,0.61480712890625,-0.23907470703125,-0.67584228515625,0.32879638671875,5209,-5949,-343,-3,-4,-2
42095862,0.6143798828125,-0.2391357421875,-0.67626953125,0.32861328125,5209,-5967,-358,-4,-4,-1
42105845,0.61383056640625,-0.23931884765625,-0.6767578125,0.3284912109375,5217,-5988,-362,-4,-5,-1
42115825,0.61328125,-0.239501953125,-0.67724609375,0.328369140625,5233,-6022,-372,-4,-5,-1
42125802,0.61273193359375,-0.23968505859375,-0.67779541015625,0.32818603515625,5254,-6050,-394,-4,-5,-1
42135789,0.6121826171875,-0.2398681640625,-0.67828369140625,0.3280029296875,5280,-6070,-409,-4,-5,0
42145775,0.6116943359375,-0.24005126953125,-0.67877197265625,0.32781982421875,5323,-6097,-414,-4,-5,0
42155753,0.61114501953125,-0.24029541015625,-0.67926025390625,0.32763671875,5357,-6124,-446,-5,-4,0
42165737,0.61065673828125,-0.24053955078125,-0.67974853515625,0.327392578125,5382,-6137,-452,-4,-4,-1
42175718,0.6102294921875,-0.24072265625,-0.68017578125,0.3271484375,5401,-6151,-462,-4,-4,-1
42185700,0.60986328125,-0.24090576171875,-0.68060302734375,0.32684326171875,5418,-6158,-470,-4,-3,-1
42195682,0.60955810546875,-0.24102783203125,-0.68096923828125,0.3265380859375,5429,-6160,-482,-4,-2,-2
42205670,0.60931396484375,-0.24114990234375,-0.68133544921875,0.32611083984375,5452,-6156,-490,-4,-2,-3
42215654,0.60919189453125,-0.2412109375,-0.681640625,0.32568359375,5481,-6164,-498,-4,-1,-3
42225635,0.609130859375,-0.24127197265625,-0.681884765625,0.32525634765625,5495,-6167,-498,-4,-1,-3
42235620,0.609130859375,-0.2413330078125,-0.68206787109375,0.3248291015625,5505,-6181,-496,-3,0,-3
42245609,0.60919189453125,-0.24139404296875,-0.68218994140625,0.3243408203125,5510,-6179,-474,-3,1,-3
42255599,0.60931396484375,-0.241455078125,-0.68231201171875,0.32391357421875,5502,-6169,-470,-3,1,-3
42265569,0.6094970703125,-0.2415771484375,-0.68231201171875,0.323486328125,5506,-6160,-461,-3,2,-3
42275545,0.60968017578125,-0.24163818359375,-0.68231201171875,0.322998046875,5531,-6150,-465,-3,2,-3
42285527,0.60992431640625,-0.24176025390625,-0.68231201171875,0.322509765625,5551,-6142,-478,-3,3,-3
42295509,0.6102294921875,-0.24188232421875,-0.68218994140625,0.32196044921875,5561,-6133,-475,-3,3,-3
42305489,0.610595703125,-0.24200439453125,-0.68212890625,0.3214111328125,5561,-6124,-471,-3,4,-3
42315476,0.61102294921875,-0.24212646484375,-0.68194580078125,0.32086181640625,5562,-6119,-467,-3,4,-3
42325455,0.6114501953125,-0.2423095703125,-0.6817626953125,0.32037353515625,5536,-6104,-445,-3,4,-3
42335437,0.61187744140625,-0.2425537109375,-0.6815185546875,0.31988525390625,5531,-6084,-429,-3,5,-2
42345422,0.61224365234375,-0.24298095703125,-0.6812744140625,0.3194580078125,5520,-6058,-406,-4,5,-1
42355411,0.612548828125,-0.24346923828125,-0.68096923828125,0.31903076171875,5504,-6031,-391,-4,5,0
42365386,0.61285400390625,-0.24407958984375,-0.68060302734375,0.3187255859375,5479,-6020,-369,-4,5,1
42375368,0.61309814453125,-0.2447509765625,-0.68023681640625,0.3184814453125,5452,-6000,-343,-4,5,2
42385350,0.6134033203125,-0.2454833984375,-0.67987060546875,0.3182373046875,5424,-5987,-322,-4,5,2
42395334,0.6136474609375,-0.24615478515625,-0.67950439453125,0.31787109375,5404,-5964,-301,-5,5,1
42405316,0.614013671875,-0.24676513671875,-0.67926025390625,0.31744384765625,5399,-5950,-285,-5,5,0
42415303,0.61431884765625,-0.24725341796875,-0.67901611328125,0.31689453125,5384,-5945,-279,-5,5,-1
42425280,0.6146240234375,-0.24774169921875,-0.67889404296875,0.31622314453125,5380,-5949,-283,-6,4,-2
42435261,0.61492919921875,-0.24810791015625,-0.67877197265625,0.31549072265625,5380,-5948,-283,-6,4,-3
42445245,0.61529541015625,-0.24853515625,-0.67864990234375,0.31475830078125,5361,-5957,-271,-6,4,-3
