subject,Joshua Spiesman
arm,right
label,3
hz,100.1764736716425
time,5.15091

timestamp_us,q0,q1,q2,q3,ax,ay,az,gx,gy,gz
110282283,-0.1197509765625,-0.65057373046875,0.34649658203125,-0.6651611328125,7908,-2151,-639,2,-7,-9
110292264,-0.12005615234375,-0.6513671875,0.34588623046875,-0.66461181640625,7903,-2157,-665,1,-6,-6
110302242,-0.1202392578125,-0.65203857421875,0.3455810546875,-0.66412353515625,7859,-2147,-699,0,-6,-4
110312238,-0.12030029296875,-0.6524658203125,0.3455810546875,-0.66363525390625,7788,-2153,-720,-1,-5,-1
110322220,-0.12017822265625,-0.65289306640625,0.3458251953125,-0.66314697265625,7712,-2150,-747,-2,-6,1
110332195,-0.1201171875,-0.65325927734375,0.34619140625,-0.66259765625,7660,-2149,-763,-3,-6,1
110342186,-0.12017822265625,-0.65362548828125,0.34661865234375,-0.6619873046875,7628,-2147,-791,-4,-6,1
110352174,-0.12030029296875,-0.65411376953125,0.34698486328125,-0.66131591796875,7587,-2152,-823,-5,-6,-1
110362144,-0.12060546875,-0.6546630859375,0.34735107421875,-0.6605224609375,7551,-2186,-853,-5,-7,-2
110372119,-0.120849609375,-0.6552734375,0.34765625,-0.65966796875,7504,-2222,-871,-5,-8,-3
110382103,-0.12115478515625,-0.65594482421875,0.3480224609375,-0.6588134765625,7444,-2244,-881,-5,-8,-3
110392084,-0.12139892578125,-0.65667724609375,0.34832763671875,-0.6578369140625,7408,-2286,-897,-5,-9,-3
110402067,-0.12158203125,-0.657470703125,0.3486328125,-0.6568603515625,7407,-2299,-925,-5,-9,-3
110412051,-0.12176513671875,-0.6583251953125,0.34893798828125,-0.65582275390625,7395,-2324,-948,-5,-10,-4
110422033,-0.12188720703125,-0.65924072265625,0.3492431640625,-0.65472412109375,7392,-2346,-980,-5,-11,-4
110432015,-0.1220703125,-0.66015625,0.34942626953125,-0.65362548828125,7412,-2342,-1009,-4,-11,-4
110441997,-0.12225341796875,-0.66119384765625,0.34967041015625,-0.6524658203125,7444,-2325,-1062,-5,-11,-4
110451987,-0.1224365234375,-0.66229248046875,0.349853515625,-0.6512451171875,7508,-2321,-1110,-5,-12,-5
110461965,-0.1226806640625,-0.66339111328125,0.3499755859375,-0.64996337890625,7570,-2304,-1149,-5,-12,-5
110471946,-0.12298583984375,-0.66455078125,0.35003662109375,-0.648681640625,7631,-2279,-1180,-5,-12,-6
110481929,-0.1234130859375,-0.66571044921875,0.35009765625,-0.6473388671875,7682,-2265,-1225,-5,-12,-7
110491911,-0.12396240234375,-0.66693115234375,0.35009765625,-0.64599609375,7721,-2239,-1270,-6,-12,-7
110501894,-0.12457275390625,-0.6680908203125,0.35015869140625,-0.6446533203125,7762,-2232,-1313,-6,-11,-8
110511878,-0.125244140625,-0.66925048828125,0.35028076171875,-0.64324951171875,7800,-2223,-1342,-7,-11,-7
110521860,-0.1258544921875,-0.67034912109375,0.3504638671875,-0.64190673828125,7817,-2208,-1366,-7,-11,-6
110531841,-0.1263427734375,-0.67120361328125,0.35089111328125,-0.640625,7827,-2217,-1370,-8,-11,-4
110541824,-0.12664794921875,-0.67205810546875,0.35150146484375,-0.639404296875,7830,-2226,-1376,-8,-11,-2
110551808,-0.12689208984375,-0.6727294921875,0.35223388671875,-0.63818359375,7834,-2241,-1380,-8,-10,-1
110561791,-0.12713623046875,-0.67340087890625,0.35302734375,-0.63702392578125,7836,-2256,-1387,-8,-10,0
110571772,-0.12738037109375,-0.67401123046875,0.35382080078125,-0.6358642578125,7852,-2287,-1405,-8,-10,-1
110581758,-0.127685546875,-0.6746826171875,0.35455322265625,-0.63470458984375,7877,-2310,-1428,-8,-10,-2
110591742,-0.1280517578125,-0.67535400390625,0.355224609375,-0.63360595703125,7882,-2332,-1439,-8,-9,-2
110601719,-0.12835693359375,-0.67596435546875,0.3558349609375,-0.63250732421875,7869,-2354,-1454,-8,-9,-2
110611701,-0.1285400390625,-0.67657470703125,0.35650634765625,-0.6314697265625,7831,-2368,-1476,-7,-9,-1
110621689,-0.128662109375,-0.67706298828125,0.357177734375,-0.6304931640625,7791,-2384,-1488,-6,-9,0
110631666,-0.128662109375,-0.67755126953125,0.35784912109375,-0.62957763671875,7764,-2396,-1494,-6,-8,0
110641651,-0.12872314453125,-0.67816162109375,0.3583984375,-0.628662109375,7723,-2406,-1497,-5,-9,-1
110651635,-0.1287841796875,-0.67877197265625,0.358642578125,-0.62774658203125,7702,-2416,-1529,-4,-8,-3
110661613,-0.12890625,-0.67950439453125,0.3587646484375,-0.62689208984375,7683,-2421,-1568,-3,-8,-5
110671594,-0.12896728515625,-0.68035888671875,0.358642578125,-0.62603759765625,7660,-2451,-1602,-1,-9,-6
110681583,-0.1290283203125,-0.6812744140625,0.35833740234375,-0.62518310546875,7645,-2486,-1647,0,-9,-8
110691564,-0.12896728515625,-0.68231201171875,0.35784912109375,-0.6243896484375,7637,-2508,-1684,1,-9,-8
110701547,-0.12884521484375,-0.683349609375,0.35723876953125,-0.62359619140625,7636,-2536,-1718,3,-9,-9
110711529,-0.1285400390625,-0.6844482421875,0.3564453125,-0.6229248046875,7657,-2544,-1759,5,-9,-9
110721510,-0.128173828125,-0.68560791015625,0.3555908203125,-0.62225341796875,7689,-2520,-1796,6,-9,-9
110731494,-0.12762451171875,-0.686767578125,0.35455322265625,-0.62164306640625,7726,-2497,-1838,8,-9,-8
110741477,-0.12689208984375,-0.68792724609375,0.353515625,-0.62109375,7751,-2470,-1876,9,-9,-7
110751459,-0.1259765625,-0.6890869140625,0.35235595703125,-0.62066650390625,7767,-2441,-1916,11,-9,-7
110761437,-0.12493896484375,-0.6903076171875,0.35107421875,-0.6202392578125,7773,-2404,-1931,13,-9,-7
110771429,-0.12384033203125,-0.69146728515625,0.34967041015625,-0.61993408203125,7774,-2380,-1956,14,-9,-7
110781413,-0.1226806640625,-0.6927490234375,0.34814453125,-0.61962890625,7789,-2314,-1982,15,-9,-8
110791396,-0.12158203125,-0.69403076171875,0.346435546875,-0.61932373046875,7822,-2226,-2015,15,-9,-9
110801371,-0.12066650390625,-0.69537353515625,0.3446044921875,-0.6190185546875,7851,-2130,-2068,15,-8,-9
110811353,-0.11981201171875,-0.69677734375,0.34283447265625,-0.61865234375,7881,-2027,-2119,15,-8,-9
110821336,-0.11895751953125,-0.69805908203125,0.34112548828125,-0.61822509765625,7896,-1942,-2142,14,-8,-9
110831317,-0.11834716796875,-0.6993408203125,0.33941650390625,-0.61785888671875,7914,-1878,-2155,13,-8,-9
110841300,-0.11785888671875,-0.70062255859375,0.33782958984375,-0.61737060546875,7903,-1821,-2181,11,-8,-9
110851284,-0.11761474609375,-0.70184326171875,0.33636474609375,-0.61688232421875,7886,-1777,-2199,9,-7,-10
110861263,-0.11749267578125,-0.7030029296875,0.33502197265625,-0.6163330078125,7838,-1734,-2197,7,-7,-9
110871243,-0.11737060546875,-0.7039794921875,0.33392333984375,-0.61578369140625,7787,-1708,-2193,5,-7,-8
110881235,-0.11737060546875,-0.70489501953125,0.3331298828125,-0.61517333984375,7732,-1694,-2174,4,-6,-6
110891218,-0.1173095703125,-0.70574951171875,0.33258056640625,-0.614501953125,7684,-1694,-2140,2,-7,-5
110901205,-0.1173095703125,-0.70648193359375,0.3321533203125,-0.61383056640625,7640,-1707,-2090,0,-7,-5
110911189,-0.117431640625,-0.707275390625,0.3319091796875,-0.61309814453125,7588,-1725,-2034,-1,-8,-5
110921174,-0.11767578125,-0.7081298828125,0.33160400390625,-0.61224365234375,7536,-1753,-1978,-2,-9,-7
110931153,-0.11798095703125,-0.70904541015625,0.33123779296875,-0.61126708984375,7481,-1781,-1922,-2,-10,-8
110941124,-0.118408203125,-0.71014404296875,0.330810546875,-0.61016845703125,7458,-1813,-1872,-3,-11,-10
110951108,-0.118896484375,-0.7113037109375,0.33026123046875,-0.6090087890625,7456,-1858,-1820,-3,-12,-11
110961091,-0.11932373046875,-0.7125244140625,0.3297119140625,-0.6077880859375,7496,-1901,-1777,-2,-13,-11
110971073,-0.11962890625,-0.7137451171875,0.3292236328125,-0.6065673828125,7554,-1940,-1737,-2,-14,-10
110981055,-0.11981201171875,-0.7149658203125,0.3287353515625,-0.6053466796875,7639,-1963,-1724,-1,-14,-9
110991038,-0.11981201171875,-0.7161865234375,0.328369140625,-0.6041259765625,7753,-1988,-1727,-1,-14,-7
111001024,-0.1197509765625,-0.71728515625,0.3280029296875,-0.60302734375,7881,-2018,-1731,0,-14,-7
111011002,-0.11956787109375,-0.7183837890625,0.32757568359375,-0.60198974609375,8004,-2028,-1756,1,-13,-6
111020991,-0.11932373046875,-0.719482421875,0.3270263671875,-0.60101318359375,8113,-2038,-1760,2,-13,-7
111030974,-0.119140625,-0.720458984375,0.326416015625,-0.6002197265625,8207,-2049,-1780,2,-11,-7
111040952,-0.1190185546875,-0.72137451171875,0.32562255859375,-0.59954833984375,8299,-2024,-1789,3,-10,-8
111050934,-0.1190185546875,-0.72216796875,0.32489013671875,-0.59906005859375,8362,-1986,-1800,2,-8,-7
111060916,-0.1190185546875,-0.72271728515625,0.32421875,-0.59869384765625,8405,-1945,-1824,2,-6,-5
111070900,-0.11895751953125,-0.72314453125,0.32379150390625,-0.5985107421875,8419,-1894,-1834,1,-4,-3
111080880,-0.11895751953125,-0.7232666015625,0.323486328125,-0.5985107421875,8398,-1846,-1852,1,-2,-1
111090868,-0.118896484375,-0.72314453125,0.32354736328125,-0.59857177734375,8356,-1807,-1871,0,0,1
111100846,-0.11895751953125,-0.722900390625,0.32373046875,-0.59881591796875,8304,-1763,-1880,-2,1,2
111110825,-0.119140625,-0.72247314453125,0.32391357421875,-0.59912109375,8259,-1716,-1895,-3,3,2
111120805,-0.11956787109375,-0.7220458984375,0.32421875,-0.59942626953125,8198,-1692,-1928,-4,4,1
111130791,-0.12017822265625,-0.7215576171875,0.32440185546875,-0.59979248046875,8149,-1675,-1963,-5,5,-1
111140766,-0.12103271484375,-0.7210693359375,0.324462890625,-0.60015869140625,8098,-1667,-1993,-6,6,-3
111150757,-0.1221923828125,-0.72064208984375,0.32440185546875,-0.6004638671875,8061,-1672,-2027,-6,7,-5
111160738,-0.1234130859375,-0.72021484375,0.32427978515625,-0.600830078125,8017,-1672,-2059,-7,7,-6
111170715,-0.1246337890625,-0.7197265625,0.32415771484375,-0.6011962890625,7963,-1666,-2075,-7,8,-5
111180696,-0.1258544921875,-0.71923828125,0.3240966796875,-0.6015625,7913,-1662,-2076,-7,8,-5
111190679,-0.1270751953125,-0.71868896484375,0.3240966796875,-0.60198974609375,7837,-1650,-2079,-7,8,-4
111200662,-0.128173828125,-0.71820068359375,0.32415771484375,-0.602294921875,7772,-1646,-2092,-7,7,-4
111210645,-0.12933349609375,-0.71771240234375,0.32421875,-0.60260009765625,7721,-1626,-2096,-7,7,-4
111220628,-0.1304931640625,-0.71728515625,0.32427978515625,-0.602783203125,7685,-1605,-2104,-7,7,-5
111230610,-0.1317138671875,-0.7169189453125,0.3243408203125,-0.6029052734375,7666,-1592,-2129,-8,6,-5
111240593,-0.1329345703125,-0.71661376953125,0.324462890625,-0.60296630859375,7640,-1564,-2143,-8,5,-4
111250575,-0.134033203125,-0.71624755859375,0.32470703125,-0.60302734375,7611,-1547,-2159,-8,5,-3
111260562,-0.135009765625,-0.71588134765625,0.3251953125,-0.60296630859375,7597,-1530,-2177,-9,4,0
111270542,-0.13580322265625,-0.7154541015625,0.325927734375,-0.6029052734375,7596,-1515,-2187,-9,4,2
111280522,-0.1365966796875,-0.71502685546875,0.32684326171875,-0.60272216796875,7615,-1504,-2213,-10,3,3
111290504,-0.1373291015625,-0.714599609375,0.327880859375,-0.6025390625,7655,-1536,-2233,-11,3,3
111300487,-0.13812255859375,-0.714111328125,0.32891845703125,-0.60235595703125,7739,-1609,-2233,-11,2,2
111310469,-0.138916015625,-0.71368408203125,0.32989501953125,-0.60211181640625,7871,-1709,-2224,-11,2,2
111320451,-0.13970947265625,-0.7132568359375,0.33087158203125,-0.60198974609375,8017,-1840,-2217,-11,2,1
111330430,-0.14031982421875,-0.71270751953125,0.33197021484375,-0.60186767578125,8178,-2016,-2202,-11,2,3
111340422,-0.14044189453125,-0.71185302734375,0.33349609375,-0.60198974609375,8331,-2227,-2177,-10,2,9
111350404,-0.13958740234375,-0.71063232421875,0.33587646484375,-0.602294921875,8488,-2508,-2129,-9,2,19
111360380,-0.1375732421875,-0.70880126953125,0.33929443359375,-0.60302734375,8617,-2871,-2043,-7,2,33
111370362,-0.1341552734375,-0.706298828125,0.3438720703125,-0.6041259765625,8750,-3287,-1945,-5,2,48
111380350,-0.12933349609375,-0.70306396484375,0.349609375,-0.60565185546875,8922,-3716,-1859,-2,2,62
111390332,-0.123291015625,-0.69921875,0.35614013671875,-0.60760498046875,9151,-4192,-1752,1,3,73
111400312,-0.11614990234375,-0.6947021484375,0.3631591796875,-0.60992431640625,9347,-4721,-1626,5,4,82
111410295,-0.10791015625,-0.689697265625,0.37060546875,-0.61273193359375,9469,-5286,-1487,9,4,90
111420277,-0.0987548828125,-0.6842041015625,0.378173828125,-0.61578369140625,9459,-5832,-1320,14,5,95
111430264,-0.08856201171875,-0.6783447265625,0.3857421875,-0.61907958984375,9305,-6343,-1138,19,4,101
111440241,-0.0775146484375,-0.6722412109375,0.3931884765625,-0.62249755859375,9098,-6794,-950,25,3,104
111450233,-0.0657958984375,-0.6661376953125,0.400146484375,-0.62603759765625,8948,-7184,-827,31,2,104
111460216,-0.05377197265625,-0.66009521484375,0.4063720703125,-0.6295166015625,8965,-7540,-810,37,1,101
111470196,-0.0418701171875,-0.65435791015625,0.41168212890625,-0.63299560546875,9157,-7869,-920,42,2,96
111480186,-0.0302734375,-0.6488037109375,0.416015625,-0.636474609375,9464,-8153,-1137,46,4,90
111490174,-0.01910400390625,-0.64349365234375,0.41943359375,-0.6400146484375,9868,-8394,-1442,50,7,85
111500154,-0.0081787109375,-0.63818359375,0.42230224609375,-0.6436767578125,10344,-8539,-1748,53,10,84
111510125,0.0028076171875,-0.632568359375,0.425048828125,-0.64752197265625,10928,-8631,-1999,56,12,90
111520107,0.0142822265625,-0.626220703125,0.42791748046875,-0.65155029296875,11518,-8676,-2205,59,15,101
111530088,0.02679443359375,-0.6190185546875,0.43145751953125,-0.65576171875,11988,-8651,-2367,63,18,117
111540072,0.0406494140625,-0.6104736328125,0.43597412109375,-0.6600341796875,12240,-8592,-2445,65,21,136
111550053,0.0560302734375,-0.60064697265625,0.44146728515625,-0.66424560546875,12339,-8544,-2477,68,23,155
111560037,0.07257080078125,-0.58966064453125,0.44769287109375,-0.6683349609375,12304,-8480,-2476,70,25,169
111570019,0.08966064453125,-0.57781982421875,0.45416259765625,-0.67218017578125,12141,-8393,-2469,72,27,177
111580001,0.106689453125,-0.56561279296875,0.46051025390625,-0.67578125,11800,-8253,-2438,72,29,177
111589989,0.123291015625,-0.55328369140625,0.46630859375,-0.67913818359375,11252,-8064,-2335,72,30,170
111599967,0.13897705078125,-0.54107666015625,0.47137451171875,-0.6824951171875,10626,-7825,-2187,72,31,161
111609948,0.153564453125,-0.52923583984375,0.47552490234375,-0.68572998046875,10088,-7592,-2050,71,32,150
111619931,0.1669921875,-0.51776123046875,0.47894287109375,-0.68896484375,9578,-7376,-1906,70,34,140
111629915,0.17950439453125,-0.50640869140625,0.48199462890625,-0.692138671875,9094,-7164,-1745,67,36,135
111639898,0.19171142578125,-0.494873046875,0.48516845703125,-0.6949462890625,8553,-6909,-1564,64,37,136
111649882,0.20428466796875,-0.48272705078125,0.48895263671875,-0.697265625,7969,-6611,-1351,61,37,145
111659863,0.21734619140625,-0.4700927734375,0.49322509765625,-0.69891357421875,7454,-6398,-1124,57,36,152
111669845,0.23052978515625,-0.4571533203125,0.49786376953125,-0.70001220703125,6907,-6232,-897,53,35,154
111679829,0.24371337890625,-0.444091796875,0.50262451171875,-0.7005615234375,6420,-6105,-694,50,34,156
111689812,0.257080078125,-0.43084716796875,0.50775146484375,-0.70037841796875,6041,-6030,-523,47,32,162
111699793,0.27081298828125,-0.417236328125,0.51312255859375,-0.69952392578125,5707,-6033,-342,44,31,168
111709772,0.28485107421875,-0.40338134765625,0.51873779296875,-0.6978759765625,5373,-6031,-171,41,28,173
111719765,0.2989501953125,-0.3895263671875,0.52447509765625,-0.695556640625,5076,-6062,-13,37,26,174
111729746,0.31256103515625,-0.3759765625,0.53009033203125,-0.69281005859375,4806,-6118,112,33,25,169
111739722,0.3253173828125,-0.363037109375,0.535400390625,-0.689697265625,4538,-6236,234,29,23,162
111749705,0.33734130859375,-0.35064697265625,0.54046630859375,-0.6864013671875,4252,-6352,333,26,22,155
111759687,0.3492431640625,-0.33837890625,0.54571533203125,-0.68243408203125,3862,-6372,416,22,21,158
111769671,0.36199951171875,-0.32537841796875,0.551513671875,-0.67742919921875,3453,-6331,463,19,19,172
111779652,0.37615966796875,-0.311279296875,0.55792236328125,-0.67108154296875,3037,-6223,507,16,17,190
111789635,0.39141845703125,-0.29620361328125,0.5648193359375,-0.66339111328125,2675,-6084,556,12,15,205
111799617,0.406982421875,-0.2806396484375,0.5718994140625,-0.65460205078125,2357,-5946,548,9,14,210
111809598,0.42205810546875,-0.26531982421875,0.57879638671875,-0.64532470703125,2109,-5797,550,5,14,206
111819581,0.4359130859375,-0.25067138671875,0.58544921875,-0.63592529296875,1890,-5649,558,2,15,196
111829562,0.4486083984375,-0.2366943359375,0.591796875,-0.62652587890625,1628,-5470,547,-2,17,186
111839542,0.46044921875,-0.22296142578125,0.5980224609375,-0.616943359375,1294,-5209,529,-5,18,181
111849524,0.47216796875,-0.20904541015625,0.60430908203125,-0.60675048828125,902,-4854,514,-7,18,184
111859508,0.48419189453125,-0.1944580078125,0.610595703125,-0.595703125,509,-4411,479,-9,18,190
111869490,0.4964599609375,-0.17926025390625,0.61688232421875,-0.5838623046875,137,-3917,462,-10,18,195
111879470,0.50860595703125,-0.16375732421875,0.62286376953125,-0.5714111328125,-198,-3373,450,-12,18,196
111889454,0.520263671875,-0.1485595703125,0.62841796875,-0.558837890625,-513,-2833,486,-12,18,188
111899434,0.531005859375,-0.13409423828125,0.6334228515625,-0.546630859375,-798,-2309,557,-13,17,175
111909424,0.5406494140625,-0.1207275390625,0.6378173828125,-0.53509521484375,-1067,-1787,621,-14,17,159
111919406,0.5491943359375,-0.10845947265625,0.6417236328125,-0.52423095703125,-1392,-1275,694,-14,16,144
111929389,0.55694580078125,-0.0970458984375,0.645263671875,-0.5137939453125,-1726,-766,779,-16,14,132
111939365,0.56439208984375,-0.0863037109375,0.64837646484375,-0.50360107421875,-2095,-264,874,-17,12,124
111949350,0.57147216796875,-0.07611083984375,0.65118408203125,-0.4935302734375,-2468,185,931,-18,10,117
111959330,0.578125,-0.06658935546875,0.65374755859375,-0.483642578125,-2819,584,970,-19,8,109
111969314,0.5843505859375,-0.05792236328125,0.65594482421875,-0.47418212890625,-3125,939,1017,-20,7,99
111979295,0.5899658203125,-0.0501708984375,0.65789794921875,-0.46533203125,-3393,1236,1074,-20,5,88
111989275,0.59503173828125,-0.04345703125,0.6595458984375,-0.4571533203125,-3628,1457,1128,-20,4,75
111999259,0.599365234375,-0.03790283203125,0.660888671875,-0.449951171875,-3821,1635,1192,-20,2,60
112009245,0.60284423828125,-0.033935546875,0.6619873046875,-0.444091796875,-3988,1752,1283,-20,1,41
112019228,0.60516357421875,-0.0318603515625,0.66278076171875,-0.4398193359375,-4107,1836,1332,-21,-1,17
112029207,0.606201171875,-0.0321044921875,0.66339111328125,-0.43743896484375,-4154,1826,1333,-21,-2,-9
112039191,0.60577392578125,-0.03472900390625,0.6639404296875,-0.43701171875,-4140,1740,1284,-22,-4,-36
112049174,0.60400390625,-0.03955078125,0.664306640625,-0.43841552734375,-4088,1583,1225,-22,-5,-60
112059156,0.60101318359375,-0.04638671875,0.66455078125,-0.4415283203125,-3931,1372,1151,-22,-5,-82
112069127,0.59674072265625,-0.0550537109375,0.66461181640625,-0.4461669921875,-3709,1114,1038,-22,-5,-100
112079110,0.5914306640625,-0.06500244140625,0.66461181640625,-0.451904296875,-3443,835,902,-22,-4,-114
112091995,0.5853271484375,-0.07574462890625,0.66455078125,-0.458251953125,-3161,538,758,-22,-3,-121
112099076,0.57855224609375,-0.08673095703125,0.66448974609375,-0.46490478515625,-2828,249,588,-22,-1,-123
112109064,0.57122802734375,-0.09796142578125,0.6644287109375,-0.47174072265625,-2501,-72,427,-21,1,-125
112119043,0.563232421875,-0.10943603515625,0.6644287109375,-0.47882080078125,-2152,-442,278,-21,5,-129
112129025,0.5540771484375,-0.12139892578125,0.6644287109375,-0.48651123046875,-1828,-893,136,-21,9,-138
112139009,0.54376220703125,-0.13409423828125,0.66436767578125,-0.49493408203125,-1565,-1371,19,-20,13,-149
112148996,0.5323486328125,-0.14727783203125,0.6640625,-0.50384521484375,-1379,-1844,-49,-20,17,-157
112158981,0.5201416015625,-0.16070556640625,0.66363525390625,-0.5130615234375,-1183,-2310,-93,-20,20,-161
112168958,0.50714111328125,-0.17425537109375,0.6629638671875,-0.52239990234375,-911,-2765,-162,-20,23,-164
112178939,0.49322509765625,-0.18804931640625,0.66217041015625,-0.5318603515625,-620,-3245,-247,-21,27,-169
112188925,0.47796630859375,-0.2025146484375,0.66107177734375,-0.541748046875,-274,-3751,-301,-22,30,-181
112198907,0.46087646484375,-0.2181396484375,0.659423828125,-0.55242919921875,33,-4276,-348,-23,34,-199
112208891,0.44189453125,-0.23486328125,0.65716552734375,-0.5635986328125,166,-4800,-395,-24,38,-216
112218878,0.42218017578125,-0.251708984375,0.6544189453125,-0.5745849609375,141,-5270,-394,-26,39,-219
112228854,0.40283203125,-0.2677001953125,0.6513671875,-0.5845947265625,215,-5794,-369,-26,36,-208
112238836,0.3843994140625,-0.2828369140625,0.64813232421875,-0.59344482421875,502,-6437,-432,-27,34,-193
112248818,0.366455078125,-0.2972412109375,0.64483642578125,-0.60125732421875,935,-7058,-523,-28,32,-183
112258801,0.3486328125,-0.31121826171875,0.64141845703125,-0.6083984375,1320,-7489,-585,-29,31,-179
112268784,0.33111572265625,-0.32470703125,0.63787841796875,-0.6148681640625,1519,-7643,-592,-30,31,-174
112278773,0.31427001953125,-0.33721923828125,0.6343994140625,-0.62054443359375,1531,-7673,-563,-30,29,-167
112288755,0.29833984375,-0.348876953125,0.63079833984375,-0.6256103515625,1654,-7838,-527,-29,27,-158
112298737,0.28265380859375,-0.36053466796875,0.62677001953125,-0.63031005859375,2124,-8329,-573,-28,23,-158
112308714,0.26593017578125,-0.373291015625,0.6217041015625,-0.6351318359375,2830,-8960,-715,-27,21,-171
112318697,0.2476806640625,-0.38751220703125,0.61553955078125,-0.6400146484375,3459,-9417,-860,-28,20,-190
112328679,0.2283935546875,-0.4024658203125,0.60833740234375,-0.64483642578125,3912,-9556,-929,-28,19,-200
112338662,0.20928955078125,-0.4169921875,0.600830078125,-0.64910888671875,4164,-9440,-928,-28,17,-195
112348643,0.191650390625,-0.43011474609375,0.5936279296875,-0.65264892578125,4249,-9164,-836,-27,15,-178
112358626,0.17596435546875,-0.44146728515625,0.58697509765625,-0.65545654296875,4433,-8881,-729,-24,13,-157
112368608,0.16156005859375,-0.45172119140625,0.5806884765625,-0.65777587890625,5001,-8821,-699,-23,11,-143
112378590,0.14678955078125,-0.46221923828125,0.57391357421875,-0.659912109375,5888,-8955,-816,-22,12,-150
112388574,0.1298828125,-0.47393798828125,0.56585693359375,-0.662109375,6820,-9071,-993,-24,14,-173
112398555,0.11053466796875,-0.487060546875,0.55615234375,-0.66424560546875,7605,-8997,-1157,-26,16,-197
112408542,0.08953857421875,-0.50079345703125,0.54547119140625,-0.6661376953125,8102,-8736,-1253,-28,19,-210
112418521,0.068603515625,-0.51373291015625,0.53472900390625,-0.66741943359375,8361,-8339,-1292,-30,20,-204
112428503,0.04901123046875,-0.525146484375,0.52484130859375,-0.66815185546875,8499,-7906,-1279,-31,20,-184
112438486,0.03173828125,-0.534423828125,0.51641845703125,-0.66839599609375,8619,-7506,-1236,-31,20,-156
112448466,0.0166015625,-0.54193115234375,0.5093994140625,-0.66827392578125,8742,-7202,-1246,-30,20,-133
112458450,0.00274658203125,-0.54833984375,0.50323486328125,-0.66790771484375,8880,-6988,-1263,-30,20,-122
112468431,-0.010986328125,-0.554443359375,0.49713134765625,-0.6673583984375,9071,-6838,-1266,-30,20,-124
112478421,-0.02557373046875,-0.56097412109375,0.49005126953125,-0.666748046875,9280,-6719,-1249,-30,21,-138
112488404,-0.04156494140625,-0.5682373046875,0.4815673828125,-0.66595458984375,9519,-6604,-1220,-29,21,-156
112498380,-0.0589599609375,-0.57635498046875,0.4716796875,-0.664794921875,9818,-6470,-1239,-29,22,-174
112508362,-0.07733154296875,-0.58489990234375,0.4605712890625,-0.6632080078125,10133,-6308,-1275,-29,22,-186
112518344,-0.095947265625,-0.59332275390625,0.448974609375,-0.66119384765625,10441,-6148,-1284,-29,22,-188
112528326,-0.11431884765625,-0.6011962890625,0.43743896484375,-0.658935546875,10732,-6009,-1322,-29,22,-184
112538307,-0.1318359375,-0.60821533203125,0.426513671875,-0.6563720703125,10878,-5947,-1368,-30,23,-174
112548293,-0.1478271484375,-0.61383056640625,0.4168701171875,-0.6539306640625,10847,-5925,-1374,-31,24,-157
112558274,-0.1619873046875,-0.617919921875,0.408935546875,-0.6517333984375,10672,-5939,-1326,-32,25,-133
112568256,-0.17376708984375,-0.62030029296875,0.4031982421875,-0.6500244140625,10484,-6011,-1217,-33,26,-106
112578244,-0.18316650390625,-0.62103271484375,0.3995361328125,-0.64898681640625,10367,-6193,-1087,-32,26,-79
112588227,-0.1903076171875,-0.62054443359375,0.3978271484375,-0.64849853515625,10298,-6473,-992,-31,25,-55
112598209,-0.1953125,-0.6190185546875,0.39764404296875,-0.64849853515625,10262,-6842,-957,-29,24,-36
112608186,-0.19873046875,-0.6168212890625,0.39862060546875,-0.6490478515625,10336,-7253,-920,-25,23,-22
112618179,-0.20062255859375,-0.61419677734375,0.4002685546875,-0.64990234375,10529,-7684,-923,-21,21,-11
112628160,-0.20135498046875,-0.61138916015625,0.40228271484375,-0.65106201171875,10638,-8140,-930,-16,19,-4
112638138,-0.20074462890625,-0.6085205078125,0.40460205078125,-0.6524658203125,10559,-8600,-928,-10,16,4
112648111,-0.19879150390625,-0.60546875,0.4073486328125,-0.65423583984375,10424,-9094,-903,-5,13,13
112658097,-0.19525146484375,-0.60223388671875,0.4105224609375,-0.65631103515625,10240,-9620,-837,1,10,22
112668078,-0.190185546875,-0.59869384765625,0.4141845703125,-0.65869140625,10065,-10067,-771,7,7,33
112678061,-0.18365478515625,-0.594970703125,0.41815185546875,-0.66143798828125,9955,-10382,-679,13,4,45
112688043,-0.17584228515625,-0.5908203125,0.42242431640625,-0.66455078125,9926,-10566,-579,18,2,56
112698026,-0.16705322265625,-0.58636474609375,0.4267578125,-0.66802978515625,9970,-10635,-521,23,3,65
112708009,-0.15777587890625,-0.58160400390625,0.430908203125,-0.67169189453125,10019,-10645,-486,27,5,70
112717995,-0.14794921875,-0.57647705078125,0.43511962890625,-0.6756591796875,10060,-10618,-490,30,7,77
112727978,-0.13702392578125,-0.57061767578125,0.43975830078125,-0.679931640625,10035,-10561,-530,33,9,92
112737955,-0.12432861328125,-0.5635986328125,0.44549560546875,-0.68450927734375,9978,-10459,-523,36,8,115
112747941,-0.10943603515625,-0.5552978515625,0.452392578125,-0.68927001953125,9884,-10335,-413,39,6,140
112757923,-0.0926513671875,-0.54583740234375,0.460205078125,-0.69403076171875,9792,-10158,-260,41,3,160
112767903,-0.07476806640625,-0.53594970703125,0.46832275390625,-0.698486328125,9752,-9948,-137,42,0,170
112777885,-0.0567626953125,-0.526123046875,0.4761962890625,-0.70233154296875,9797,-9735,-122,42,-3,169
112787865,-0.03948974609375,-0.516845703125,0.48333740234375,-0.70550537109375,9956,-9560,-190,41,-4,163
112797848,-0.02294921875,-0.5079345703125,0.489990234375,-0.7081298828125,10174,-9416,-294,40,-4,159
112807832,-0.006591796875,-0.49884033203125,0.49664306640625,-0.71026611328125,10345,-9270,-419,37,-4,165
112817814,0.01055908203125,-0.48895263671875,0.5040283203125,-0.7119140625,10445,-9109,-530,35,-4,180
112827796,0.0291748046875,-0.47784423828125,0.51239013671875,-0.7130126953125,10417,-8974,-592,33,-5,200
112837784,0.049072265625,-0.46551513671875,0.52142333984375,-0.7135009765625,10282,-8862,-573,32,-6,215
112847767,0.06915283203125,-0.4527587890625,0.53033447265625,-0.71343994140625,10170,-8823,-544,31,-6,216
112857750,0.08795166015625,-0.44061279296875,0.53839111328125,-0.71295166015625,10097,-8821,-565,30,-6,201
112867734,0.10498046875,-0.42938232421875,0.54541015625,-0.712158203125,9988,-8810,-615,28,-5,185
112877710,0.12066650390625,-0.41876220703125,0.5516357421875,-0.711181640625,9827,-8741,-664,27,-4,176
112887693,0.13629150390625,-0.407958984375,0.557861328125,-0.70977783203125,9567,-8592,-676,25,-4,182
112897674,0.15289306640625,-0.39599609375,0.56463623046875,-0.70782470703125,9267,-8430,-649,23,-4,198
112907657,0.17083740234375,-0.38275146484375,0.57196044921875,-0.705078125,8948,-8332,-584,22,-4,214
112917638,0.18927001953125,-0.36871337890625,0.579345703125,-0.70184326171875,8675,-8302,-516,22,-3,220
112927622,0.207275390625,-0.3544921875,0.58636474609375,-0.6982421875,8398,-8314,-475,22,-2,216
112937603,0.224365234375,-0.34063720703125,0.5926513671875,-0.694580078125,8069,-8253,-432,22,-1,207
112947591,0.2408447265625,-0.32672119140625,0.5985107421875,-0.690673828125,7667,-8089,-419,22,1,205
112957570,0.257568359375,-0.3121337890625,0.6044921875,-0.6861572265625,7131,-7829,-387,21,2,213
112967554,0.275390625,-0.29620361328125,0.61077880859375,-0.68072509765625,6510,-7498,-323,20,2,229
112977535,0.2945556640625,-0.2786865234375,0.6171875,-0.67431640625,5914,-7211,-255,20,1,244
112987517,0.31414794921875,-0.260498046875,0.62335205078125,-0.6669921875,5377,-7014,-192,20,0,248
112997499,0.3330078125,-0.24249267578125,0.62884521484375,-0.659423828125,4911,-6886,-167,20,1,239
113007481,0.35015869140625,-0.22564697265625,0.63348388671875,-0.65203857421875,4445,-6795,-139,19,1,220
113017464,0.3653564453125,-0.21026611328125,0.63726806640625,-0.6451416015625,3993,-6653,-112,18,2,198
113027449,0.37933349609375,-0.19573974609375,0.6405029296875,-0.638427734375,3516,-6395,-82,17,3,188
113037434,0.393310546875,-0.180908203125,0.6435546875,-0.6312255859375,2976,-6035,-77,16,2,192
113047417,0.408203125,-0.1649169921875,0.6466064453125,-0.62298583984375,2428,-5621,-52,16,1,206
113057399,0.42431640625,-0.1474609375,0.6495361328125,-0.61346435546875,1984,-5213,-19,16,0,223
113067376,0.441162109375,-0.12890625,0.6522216796875,-0.602783203125,1604,-4863,-19,16,0,234
113077359,0.45794677734375,-0.11004638671875,0.6544189453125,-0.591552734375,1272,-4562,-16,16,-1,234
113087338,0.4737548828125,-0.09173583984375,0.65594482421875,-0.58038330078125,933,-4245,-6,17,-1,221
113097325,0.48797607421875,-0.07476806640625,0.6568603515625,-0.56988525390625,600,-3919,32,17,0,201
113107306,0.5006103515625,-0.05926513671875,0.65728759765625,-0.56024169921875,259,-3545,61,16,0,181
113117293,0.511962890625,-0.044921875,0.6573486328125,-0.5511474609375,-100,-3150,85,15,0,166
113127270,0.52252197265625,-0.03131103515625,0.6571044921875,-0.54241943359375,-415,-2793,65,15,-1,156
113137256,0.53253173828125,-0.018310546875,0.65655517578125,-0.5338134765625,-687,-2469,56,15,-2,150
113147238,0.5421142578125,-0.005615234375,0.65576171875,-0.52532958984375,-909,-2146,45,15,-2,146
113157221,0.55145263671875,0.0068359375,0.65472412109375,-0.516845703125,-1115,-1801,55,14,-3,142
113167205,0.56048583984375,0.01910400390625,0.6534423828125,-0.5084228515625,-1317,-1445,95,15,-3,138
113177192,0.56915283203125,0.031005859375,0.65191650390625,-0.50006103515625,-1507,-1044,153,14,-4,134
113187175,0.57763671875,0.04278564453125,0.650146484375,-0.49169921875,-1731,-582,242,14,-4,130
113197161,0.5859375,0.054443359375,0.64813232421875,-0.4832763671875,-1981,-65,363,12,-4,126
113207130,0.59405517578125,0.0657958984375,0.64599609375,-0.47479248046875,-2281,471,520,11,-4,120
113217112,0.60162353515625,0.076416015625,0.64373779296875,-0.46661376953125,-2566,1008,697,9,-4,110
113227095,0.60858154296875,0.0860595703125,0.6414794921875,-0.45904541015625,-2855,1548,865,7,-4,96
113237077,0.61468505859375,0.09454345703125,0.63934326171875,-0.4521484375,-3141,2088,1023,4,-4,81
113247060,0.619873046875,0.10162353515625,0.63739013671875,-0.4461669921875,-3438,2586,1191,1,-4,64
113257040,0.62432861328125,0.10736083984375,0.6357421875,-0.4410400390625,-3741,3050,1362,-2,-4,47
113267019,0.6279296875,0.1116943359375,0.63433837890625,-0.436767578125,-4060,3476,1507,-5,-4,31
113277001,0.63092041015625,0.11468505859375,0.63323974609375,-0.43328857421875,-4340,3825,1599,-9,-5,17
113286984,0.63311767578125,0.11627197265625,0.63250732421875,-0.4306640625,-4593,4088,1651,-13,-5,0
113296960,0.634521484375,0.11627197265625,0.63226318359375,-0.42901611328125,-4791,4254,1673,-16,-5,-16
113306941,0.63482666015625,0.1143798828125,0.632568359375,-0.42864990234375,-4937,4323,1667,-20,-4,-37
113316926,0.63385009765625,0.1104736328125,0.6334228515625,-0.4298095703125,-5002,4299,1624,-23,-4,-61
113326906,0.6314697265625,0.1041259765625,0.6348876953125,-0.43267822265625,-4999,4188,1557,-28,-3,-87
113336890,0.62762451171875,0.095458984375,0.636962890625,-0.437255859375,-4912,4001,1471,-31,-3,-111
113346878,0.622314453125,0.08465576171875,0.63946533203125,-0.443359375,-4775,3746,1360,-34,-2,-134
113356854,0.61572265625,0.072021484375,0.642333984375,-0.45062255859375,-4617,3448,1227,-37,-2,-152
113366838,0.60791015625,0.05767822265625,0.64532470703125,-0.4588623046875,-4366,3078,1088,-40,-2,-168
113376821,0.59893798828125,0.04180908203125,0.6484375,-0.46795654296875,-4050,2660,914,-42,-2,-182
113386803,0.588623046875,0.0244140625,0.651611328125,-0.477783203125,-3640,2182,716,-44,-1,-195
113396790,0.5770263671875,0.00567626953125,0.6546630859375,-0.48822021484375,-3218,1603,519,-45,0,-206
113406768,0.564208984375,-0.0140380859375,0.6575927734375,-0.4990234375,-2805,933,350,-47,1,-214
113416759,0.55059814453125,-0.03424072265625,0.66015625,-0.50970458984375,-2407,214,192,-47,2,-215
113426741,0.53668212890625,-0.0543212890625,0.66229248046875,-0.5198974609375,-1969,-502,49,-47,3,-208
113436718,0.522705078125,-0.07379150390625,0.6641845703125,-0.529296875,-1448,-1252,-128,-47,4,-198
113446700,0.50848388671875,-0.09271240234375,0.66583251953125,-0.53802490234375,-822,-1987,-331,-46,6,-190
113456686,0.4935302734375,-0.11138916015625,0.66729736328125,-0.5465087890625,-158,-2772,-500,-44,11,-189
113466668,0.47723388671875,-0.1304931640625,0.6683349609375,-0.55548095703125,460,-3653,-623,-43,16,-199
113476649,0.4591064453125,-0.1502685546875,0.66888427734375,-0.56500244140625,988,-4585,-734,-42,21,-212
113486635,0.43939208984375,-0.170654296875,0.66876220703125,-0.57489013671875,1373,-5462,-806,-42,24,-222
113496614,0.419189453125,-0.19073486328125,0.6680908203125,-0.58441162109375,1651,-6226,-856,-41,26,-220
113506596,0.399169921875,-0.2098388671875,0.6669921875,-0.59307861328125,1939,-6964,-957,-39,27,-209
113516578,0.37969970703125,-0.22760009765625,0.6654052734375,-0.60101318359375,2244,-7707,-1030,-35,27,-197
113526565,0.36065673828125,-0.24420166015625,0.66326904296875,-0.60858154296875,2552,-8455,-1052,-30,28,-191
113536545,0.34112548828125,-0.2607421875,0.6600341796875,-0.61639404296875,2908,-9114,-1060,-25,29,-199
113546527,0.32025146484375,-0.2781982421875,0.65557861328125,-0.624755859375,3269,-9558,-1049,-22,29,-218
113556510,0.29791259765625,-0.29669189453125,0.649658203125,-0.63336181640625,3435,-9683,-1053,-20,28,-236
113566495,0.27545166015625,-0.3150634765625,0.64306640625,-0.641357421875,3373,-9509,-1010,-19,26,-236
113576476,0.25506591796875,-0.3314208984375,0.636474609375,-0.6480712890625,3266,-9187,-935,-18,22,-209
113586459,0.23822021484375,-0.3446044921875,0.630859375,-0.653076171875,3303,-8930,-892,-15,18,-165
113596437,0.224853515625,-0.35467529296875,0.62628173828125,-0.6568603515625,3661,-8942,-904,-11,16,-126
113606429,0.21307373046875,-0.36334228515625,0.62188720703125,-0.66015625,4225,-9183,-951,-7,15,-113
113616413,0.200439453125,-0.3726806640625,0.61669921875,-0.663818359375,4759,-9396,-1025,-4,16,-130
113626394,0.185302734375,-0.384033203125,0.60986328125,-0.66796875,5075,-9359,-1049,-4,16,-163
113636370,0.16796875,-0.3973388671875,0.6014404296875,-0.6724853515625,5098,-9083,-990,-5,15,-191
113646352,0.1497802734375,-0.41143798828125,0.592041015625,-0.6766357421875,5004,-8726,-861,-6,11,-202
113656336,0.132080078125,-0.4254150390625,0.582275390625,-0.68011474609375,5087,-8443,-727,-6,6,-195
113666318,0.11572265625,-0.43865966796875,0.57269287109375,-0.68280029296875,5406,-8295,-642,-5,1,-181
113676299,0.1004638671875,-0.451171875,0.5633544921875,-0.684814453125,5972,-8317,-629,-5,-2,-169
113686279,0.08551025390625,-0.4635009765625,0.55389404296875,-0.6864013671875,6632,-8400,-669,-4,-3,-169
113696261,0.07000732421875,-0.4759521484375,0.5438232421875,-0.6876220703125,7196,-8356,-717,-5,-2,-176
113706239,0.05401611328125,-0.48858642578125,0.53326416015625,-0.68853759765625,7643,-8217,-748,-5,-2,-181
113716230,0.037841796875,-0.50091552734375,0.52239990234375,-0.68902587890625,7958,-8036,-763,-6,-2,-181
113726213,0.022216796875,-0.5125732421875,0.51165771484375,-0.689208984375,8230,-7824,-725,-6,-2,-174
113736192,0.0076904296875,-0.52325439453125,0.50146484375,-0.68902587890625,8548,-7658,-670,-7,-3,-161
113746184,-0.00567626953125,-0.53289794921875,0.49188232421875,-0.68853759765625,8832,-7553,-620,-6,-3,-148
113756167,-0.0179443359375,-0.54156494140625,0.48284912109375,-0.68798828125,9126,-7508,-567,-5,-2,-139
113766143,-0.0299072265625,-0.54962158203125,0.47393798828125,-0.6873779296875,9463,-7512,-539,-5,-1,-137
113776124,-0.0423583984375,-0.5576171875,0.46453857421875,-0.6866455078125,9766,-7482,-538,-5,2,-144
113786103,-0.0556640625,-0.56573486328125,0.4544677734375,-0.68585205078125,10039,-7393,-561,-5,4,-154
113796085,-0.0697021484375,-0.5738525390625,0.44378662109375,-0.68475341796875,10297,-7236,-623,-6,6,-161
113806067,-0.08404541015625,-0.581787109375,0.4329833984375,-0.68341064453125,10438,-7039,-683,-7,8,-161
113816051,-0.09783935546875,-0.589111328125,0.4224853515625,-0.681884765625,10557,-6884,-701,-8,8,-154
113826032,-0.11077880859375,-0.5955810546875,0.4127197265625,-0.68023681640625,10757,-6892,-648,-9,8,-145
113836018,-0.122802734375,-0.60137939453125,0.40350341796875,-0.67864990234375,11032,-7156,-580,-9,8,-140
113846001,-0.13446044921875,-0.60675048828125,0.3944091796875,-0.67694091796875,11298,-7553,-560,-8,8,-142
113855989,-0.1461181640625,-0.61199951171875,0.3851318359375,-0.6751708984375,11566,-7983,-570,-7,10,-147
113865963,-0.157470703125,-0.6168212890625,0.3758544921875,-0.6734619140625,11735,-8345,-614,-6,11,-144
113875946,-0.1673583984375,-0.62078857421875,0.36761474609375,-0.67193603515625,11749,-8614,-661,-5,12,-126
113885930,-0.17425537109375,-0.6231689453125,0.36181640625,-0.671142578125,11525,-8758,-679,-3,13,-88
113895912,-0.17669677734375,-0.62322998046875,0.3597412109375,-0.67156982421875,11040,-8847,-588,0,11,-33
113905896,-0.17352294921875,-0.6207275390625,0.362060546875,-0.6734619140625,10428,-9021,-374,5,9,29
113915878,-0.1651611328125,-0.6158447265625,0.36834716796875,-0.6766357421875,9854,-9295,-127,10,5,81
113925858,-0.15301513671875,-0.6094970703125,0.37689208984375,-0.68048095703125,9328,-9580,130,16,1,112
113935841,-0.13916015625,-0.602783203125,0.3858642578125,-0.68438720703125,8934,-9824,295,21,-2,120
113945822,-0.12554931640625,-0.59674072265625,0.39373779296875,-0.6878662109375,8715,-10024,333,26,-5,107
113955803,-0.1136474609375,-0.59185791015625,0.3995361328125,-0.6907958984375,8606,-10174,266,29,-5,82
113965784,-0.1036376953125,-0.58837890625,0.40313720703125,-0.6932373046875,8528,-10241,171,32,-6,59
113975766,-0.09490966796875,-0.58563232421875,0.4053955078125,-0.69549560546875,8394,-10242,165,34,-6,47
113985759,-0.08587646484375,-0.58282470703125,0.40753173828125,-0.69781494140625,8317,-10200,274,35,-7,54
113995740,-0.07550048828125,-0.57940673828125,0.410400390625,-0.7001953125,8310,-10139,449,37,-10,71
114005715,-0.0633544921875,-0.5750732421875,0.41436767578125,-0.70257568359375,8439,-10057,630,38,-12,92
114015698,-0.0499267578125,-0.5701904296875,0.419189453125,-0.704833984375,8766,-9932,715,38,-14,107
114025682,-0.03607177734375,-0.5650634765625,0.42425537109375,-0.70672607421875,9251,-9802,691,38,-14,112
114035663,-0.02252197265625,-0.55999755859375,0.42926025390625,-0.70831298828125,9795,-9675,549,36,-13,114
114045646,-0.00897216796875,-0.5545654296875,0.43450927734375,-0.70965576171875,10274,-9555,364,34,-11,122
114055627,0.0054931640625,-0.5482177734375,0.44085693359375,-0.71075439453125,10521,-9483,202,33,-9,140
114065611,0.0218505859375,-0.54022216796875,0.4486083984375,-0.711669921875,10597,-9519,153,32,-8,165
114075592,0.03997802734375,-0.53070068359375,0.45758056640625,-0.71234130859375,10614,-9607,195,32,-7,185
114085575,0.05908203125,-0.520263671875,0.46697998046875,-0.71258544921875,10616,-9680,263,32,-7,194
114095558,0.07763671875,-0.50970458984375,0.47576904296875,-0.712646484375,10721,-9720,294,32,-6,189
114105544,0.09478759765625,-0.4996337890625,0.4835205078125,-0.71246337890625,10851,-9735,256,32,-3,177
114115531,0.11041259765625,-0.489990234375,0.49029541015625,-0.7122802734375,10966,-9715,182,32,1,167
114125509,0.1253662109375,-0.48004150390625,0.496826171875,-0.7120361328125,10977,-9639,95,31,5,168
114135490,0.14068603515625,-0.4691162109375,0.5037841796875,-0.71160888671875,10848,-9536,5,31,10,180
114145472,0.1571044921875,-0.45684814453125,0.51141357421875,-0.710693359375,10642,-9466,-83,32,12,196
114155456,0.17437744140625,-0.4434814453125,0.51934814453125,-0.70941162109375,10380,-9383,-127,33,14,207
114165436,0.19158935546875,-0.42974853515625,0.52703857421875,-0.70770263671875,10106,-9289,-184,34,14,206
114175427,0.20770263671875,-0.4163818359375,0.533935546875,-0.70599365234375,9830,-9212,-220,34,16,194
114185410,0.22265625,-0.40350341796875,0.53997802734375,-0.70428466796875,9464,-9030,-263,34,17,184
114195392,0.23748779296875,-0.3905029296875,0.5458984375,-0.70220947265625,8987,-8748,-308,33,16,188
114205369,0.2535400390625,-0.37640380859375,0.55230712890625,-0.69927978515625,8446,-8460,-289,33,14,205
114215350,0.2713623046875,-0.3609619140625,0.55926513671875,-0.6951904296875,7926,-8255,-232,32,11,225
114225334,0.29046630859375,-0.344482421875,0.56646728515625,-0.69000244140625,7406,-8069,-155,31,9,238
114235316,0.3099365234375,-0.3277587890625,0.5733642578125,-0.6839599609375,6925,-7905,-52,30,5,240
114245296,0.3287353515625,-0.3114013671875,0.57952880859375,-0.6776123046875,6525,-7776,26,30,3,231
114255278,0.34625244140625,-0.29595947265625,0.58477783203125,-0.67120361328125,6212,-7651,48,30,3,218
114265260,0.36236572265625,-0.28143310546875,0.58929443359375,-0.66497802734375,5902,-7510,24,29,3,205
114275241,0.3775634765625,-0.26727294921875,0.59332275390625,-0.65875244140625,5541,-7264,-15,29,4,199
114285232,0.392822265625,-0.25274658203125,0.59716796875,-0.65203857421875,5112,-6908,-39,29,4,202
114295214,0.408447265625,-0.2373046875,0.60101318359375,-0.64471435546875,4668,-6524,-53,29,5,210
114305205,0.42437744140625,-0.2210693359375,0.6046142578125,-0.63671875,4220,-6166,-71,30,5,214
114315188,0.43994140625,-0.2047119140625,0.60791015625,-0.62847900390625,3850,-5844,-88,31,6,211
114325174,0.4547119140625,-0.1885986328125,0.61065673828125,-0.62030029296875,3554,-5549,-129,31,7,204
114335146,0.46844482421875,-0.17291259765625,0.61297607421875,-0.6123046875,3262,-5272,-162,31,8,195
114345123,0.48126220703125,-0.15765380859375,0.614990234375,-0.60443115234375,2962,-4995,-192,31,10,187
114355105,0.49359130859375,-0.1424560546875,0.61676025390625,-0.59637451171875,2619,-4697,-183,30,11,184
114365086,0.50567626953125,-0.1270751953125,0.6182861328125,-0.58807373046875,2229,-4341,-132,29,11,184
114375070,0.51776123046875,-0.111328125,0.61956787109375,-0.57928466796875,1807,-3981,-50,29,11,185
114385052,0.52978515625,-0.095458984375,0.62060546875,-0.57012939453125,1393,-3599,33,28,11,184
114395035,0.54150390625,-0.07958984375,0.62127685546875,-0.56072998046875,978,-3177,121,27,10,181
114405016,0.55291748046875,-0.06390380859375,0.62164306640625,-0.5511474609375,585,-2717,201,26,9,177
114415000,0.56396484375,-0.0484619140625,0.6217041015625,-0.5413818359375,263,-2230,268,25,8,173
114424988,0.57470703125,-0.033203125,0.62139892578125,-0.53143310546875,-42,-1713,321,24,7,170
114434964,0.58514404296875,-0.01824951171875,0.620849609375,-0.5213623046875,-330,-1212,364,22,7,165
114444946,0.59503173828125,-0.003662109375,0.62005615234375,-0.51129150390625,-603,-723,395,21,6,158
114454930,0.60418701171875,0.01025390625,0.619140625,-0.50140380859375,-873,-224,409,19,6,148
114464912,0.612548828125,0.0233154296875,0.61810302734375,-0.49200439453125,-1191,305,479,17,7,135
114474895,0.61993408203125,0.0352783203125,0.6170654296875,-0.4832763671875,-1517,832,587,14,7,119
114484878,0.62640380859375,0.04595947265625,0.61602783203125,-0.47540283203125,-1839,1345,751,11,7,103
114494859,0.63201904296875,0.055419921875,0.614990234375,-0.46820068359375,-2161,1858,944,8,6,88
114504842,0.63720703125,0.06396484375,0.6138916015625,-0.46148681640625,-2509,2390,1175,4,6,77
114514823,0.6419677734375,0.0716552734375,0.61279296875,-0.45513916015625,-2893,2925,1399,1,5,67
114524804,0.6463623046875,0.07855224609375,0.61175537109375,-0.44915771484375,-3274,3458,1599,-2,4,57
114534784,0.650390625,0.084716796875,0.61083984375,-0.4434814453125,-3580,3868,1756,-4,4,49
114544771,0.65380859375,0.0902099609375,0.60992431640625,-0.4384765625,-3780,4187,1911,-4,5,40
114554758,0.65625,0.094970703125,0.6092529296875,-0.43487548828125,-3865,4436,2026,0,9,23
114564737,0.65704345703125,0.09869384765625,0.6087646484375,-0.43341064453125,-3947,4676,2108,6,13,-2
114574708,0.65594482421875,0.1009521484375,0.60882568359375,-0.43450927734375,-4103,4966,2145,11,18,-34
114584696,0.6527099609375,0.1011962890625,0.60955810546875,-0.4383544921875,-4401,5264,2141,11,21,-69
114594676,0.64776611328125,0.09912109375,0.61083984375,-0.44439697265625,-4766,5470,2121,8,21,-99
114604660,0.64154052734375,0.0947265625,0.61248779296875,-0.4520263671875,-5000,5498,2045,4,18,-123
114614641,0.634033203125,0.0877685546875,0.61444091796875,-0.46124267578125,-5045,5391,1910,-1,15,-147
114624620,0.625,0.07818603515625,0.61676025390625,-0.4720458984375,-4973,5158,1700,-6,12,-172
114634605,0.614501953125,0.06597900390625,0.6192626953125,-0.4842529296875,-4847,4841,1478,-11,9,-196
114644588,0.6024169921875,0.0513916015625,0.62188720703125,-0.49761962890625,-4655,4450,1244,-16,7,-218
114654569,0.5888671875,0.0345458984375,0.62445068359375,-0.51190185546875,-4340,3984,997,-20,4,-236
114664550,0.5738525390625,0.015625,0.626708984375,-0.52691650390625,-3908,3456,760,-24,1,-253
114674533,0.5572509765625,-0.0054931640625,0.62847900390625,-0.5426025390625,-3369,2823,531,-27,-3,-270
114684513,0.53900146484375,-0.02862548828125,0.62957763671875,-0.558837890625,-2806,2109,300,-29,-6,-285
114694497,0.519287109375,-0.053466796875,0.62982177734375,-0.57513427734375,-2281,1338,124,-31,-11,-296
114704478,0.498779296875,-0.07928466796875,0.62896728515625,-0.591064453125,-1713,448,-22,-31,-15,-298
114714459,0.4779052734375,-0.10540771484375,0.626953125,-0.60614013671875,-1060,-576,-149,-29,-19,-291
114724439,0.457275390625,-0.1309814453125,0.6239013671875,-0.62005615234375,-325,-1690,-240,-26,-22,-277
114734430,0.43731689453125,-0.155517578125,0.61993408203125,-0.6326904296875,559,-2884,-283,-23,-23,-259
114744414,0.4176025390625,-0.1790771484375,0.6151123046875,-0.644287109375,1493,-4017,-295,-19,-23,-246
114754396,0.39801025390625,-0.20159912109375,0.60968017578125,-0.6551513671875,2338,-5006,-236,-17,-20,-237
114764371,0.37835693359375,-0.22320556640625,0.60369873046875,-0.665283203125,3041,-5930,-161,-15,-17,-231
114774355,0.35882568359375,-0.24365234375,0.5972900390625,-0.67462158203125,3691,-6822,-14,-12,-14,-223
114784337,0.33953857421875,-0.26318359375,0.5902099609375,-0.6834716796875,4536,-7974,130,-9,-13,-215
114794320,0.319580078125,-0.2825927734375,0.5823974609375,-0.69195556640625,5570,-9286,221,-6,-10,-217
114804302,0.29815673828125,-0.30218505859375,0.57354736328125,-0.7005615234375,6493,-10354,289,-3,-6,-230
114814286,0.275634765625,-0.32159423828125,0.56396484375,-0.70892333984375,7122,-10937,341,-3,-2,-238
114824272,0.2530517578125,-0.33990478515625,0.5540771484375,-0.716552734375,7366,-11010,416,-4,1,-233
114834256,0.23187255859375,-0.35614013671875,0.54473876953125,-0.72296142578125,7307,-10818,506,-6,3,-213
114844241,0.2130126953125,-0.37017822265625,0.536376953125,-0.7279052734375,7204,-10640,611,-8,2,-188
114854223,0.1962890625,-0.382568359375,0.52899169921875,-0.731689453125,7394,-10631,754,-10,0,-165
114864205,0.18084716796875,-0.39410400390625,0.5220947265625,-0.7344970703125,7744,-10780,826,-12,-2,-152
114874190,0.1658935546875,-0.4052734375,0.5155029296875,-0.736572265625,7978,-10851,827,-14,-3,-149
114884174,0.15118408203125,-0.416015625,0.509033203125,-0.73822021484375,8003,-10707,805,-15,-4,-147
114894156,0.13714599609375,-0.42608642578125,0.5029296875,-0.73944091796875,7731,-10321,806,-17,-4,-140
114904127,0.12457275390625,-0.4349365234375,0.49755859375,-0.7401123046875,7215,-9773,841,-17,-5,-124
114914109,0.11395263671875,-0.44244384765625,0.49310302734375,-0.7403564453125,6561,-9170,910,-18,-7,-106
114924092,0.10516357421875,-0.448974609375,0.48956298828125,-0.7401123046875,6022,-8605,991,-18,-10,-91
114934074,0.0970458984375,-0.455322265625,0.48626708984375,-0.739501953125,5855,-8210,1090,-19,-13,-86
114944057,0.08837890625,-0.46240234375,0.48248291015625,-0.7386474609375,5908,-7931,1137,-21,-16,-97
114954039,0.0777587890625,-0.4708251953125,0.47772216796875,-0.7376708984375,6078,-7659,1132,-23,-17,-118
114964022,0.064697265625,-0.480712890625,0.4715576171875,-0.73651123046875,6312,-7338,1087,-26,-17,-144
114974003,0.04931640625,-0.4918212890625,0.46405029296875,-0.735107421875,6494,-6983,1024,-28,-17,-166
114983995,0.032470703125,-0.5035400390625,0.45550537109375,-0.73345947265625,6646,-6618,993,-29,-17,-179
114993977,0.01507568359375,-0.5152587890625,0.44647216796875,-0.73138427734375,6886,-6325,954,-30,-18,-182
115003953,-0.002197265625,-0.5267333984375,0.43743896484375,-0.72882080078125,7265,-6114,911,-31,-19,-179
115013935,-0.019287109375,-0.53790283203125,0.428466796875,-0.72576904296875,7836,-5983,840,-33,-19,-176
115023917,-0.03619384765625,-0.54876708984375,0.419677734375,-0.72210693359375,8446,-5866,715,-35,-20,-174
115033900,-0.05303955078125,-0.559326171875,0.41107177734375,-0.71795654296875,8931,-5714,571,-37,-20,-171
115043881,-0.06964111328125,-0.5693359375,0.4027099609375,-0.71331787109375,9318,-5510,440,-39,-20,-167
115053864,-0.08563232421875,-0.5787353515625,0.39483642578125,-0.70843505859375,9634,-5286,314,-40,-19,-159
115063846,-0.100830078125,-0.58721923828125,0.3876953125,-0.70343017578125,9831,-5018,208,-41,-19,-147
115073830,-0.11468505859375,-0.59466552734375,0.381591796875,-0.69830322265625,9983,-4731,94,-42,-18,-131
115083810,-0.1270751953125,-0.6011962890625,0.37664794921875,-0.6932373046875,10175,-4478,-49,-42,-17,-115
115093792,-0.1383056640625,-0.6068115234375,0.3726806640625,-0.6883544921875,10400,-4314,-193,-42,-16,-102
115103773,-0.14892578125,-0.61181640625,0.3692626953125,-0.68359375,10604,-4226,-315,-42,-14,-97
115113762,-0.15948486328125,-0.616455078125,0.36578369140625,-0.6788330078125,10786,-4171,-419,-42,-12,-99
115123747,-0.17041015625,-0.6209716796875,0.36175537109375,-0.6741943359375,10957,-4114,-495,-41,-10,-105
115133723,-0.18206787109375,-0.62554931640625,0.3570556640625,-0.66943359375,11129,-4040,-576,-40,-7,-114
115143705,-0.19415283203125,-0.630126953125,0.35162353515625,-0.66461181640625,11252,-3931,-641,-40,-5,-119
115153686,-0.20635986328125,-0.63446044921875,0.34588623046875,-0.6597900390625,11337,-3807,-693,-39,-3,-121
115163669,-0.21826171875,-0.63836669921875,0.34014892578125,-0.6551513671875,11352,-3669,-725,-38,-1,-117
115173656,-0.22943115234375,-0.6417236328125,0.3348388671875,-0.6507568359375,11270,-3531,-736,-36,1,-109
115183635,-0.2396240234375,-0.6444091796875,0.33026123046875,-0.64678955078125,11098,-3406,-731,-35,2,-97
115193619,-0.24853515625,-0.6463623046875,0.32659912109375,-0.643310546875,10854,-3319,-720,-34,3,-83
115203601,-0.2562255859375,-0.64764404296875,0.323974609375,-0.64031982421875,10540,-3249,-690,-33,4,-69
115213582,-0.2626953125,-0.6483154296875,0.32232666015625,-0.6378173828125,10226,-3178,-639,-32,4,-56
115223564,-0.2679443359375,-0.6484375,0.3216552734375,-0.6358642578125,9911,-3117,-584,-30,4,-42
115233546,-0.2720947265625,-0.64813232421875,0.32196044921875,-0.63433837890625,9628,-3044,-523,-29,3,-29
115243529,-0.27508544921875,-0.6473388671875,0.32305908203125,-0.63323974609375,9406,-2984,-458,-27,3,-17
115253510,-0.277099609375,-0.646240234375,0.32489013671875,-0.63250732421875,9190,-2924,-434,-25,2,-7
115263498,-0.27825927734375,-0.64495849609375,0.3272705078125,-0.632080078125,8961,-2876,-413,-23,2,1
115273476,-0.2789306640625,-0.64349365234375,0.3299560546875,-0.63189697265625,8731,-2839,-379,-21,1,6
115283458,-0.2791748046875,-0.64208984375,0.3326416015625,-0.6318359375,8531,-2791,-365,-19,0,8
115293438,-0.279296875,-0.64080810546875,0.335205078125,-0.6317138671875,8339,-2735,-348,-17,0,7
115303432,-0.2794189453125,-0.6396484375,0.3375244140625,-0.63165283203125,8183,-2681,-316,-16,-1,5
115313410,-0.27960205078125,-0.6387939453125,0.33941650390625,-0.63140869140625,8062,-2631,-310,-14,-2,2
115323394,-0.280029296875,-0.63818359375,0.3409423828125,-0.6309814453125,7965,-2568,-301,-13,-2,-3
115333367,-0.28057861328125,-0.63787841796875,0.342041015625,-0.63043212890625,7877,-2516,-300,-11,-4,-6
115343350,-0.28118896484375,-0.6378173828125,0.3428955078125,-0.6297607421875,7814,-2460,-306,-10,-4,-8
115353332,-0.28179931640625,-0.637939453125,0.34356689453125,-0.62896728515625,7783,-2396,-323,-9,-6,-9
115363314,-0.28228759765625,-0.63824462890625,0.34417724609375,-0.628173828125,7807,-2322,-357,-8,-7,-9
115373295,-0.2825927734375,-0.63861083984375,0.34478759765625,-0.6273193359375,7891,-2230,-394,-7,-7,-7
115383279,-0.28265380859375,-0.63897705078125,0.3455810546875,-0.62646484375,7967,-2137,-449,-6,-8,-4
115393261,-0.2823486328125,-0.63934326171875,0.34649658203125,-0.625732421875,8035,-2058,-512,-5,-8,-1
115403245,-0.28167724609375,-0.6395263671875,0.34771728515625,-0.6251220703125,8067,-2005,-561,-5,-9,3
115413231,-0.2806396484375,-0.63970947265625,0.34918212890625,-0.6246337890625,8111,-1960,-608,-4,-9,7
115423216,-0.27935791015625,-0.6397705078125,0.350830078125,-0.62420654296875,8127,-1900,-658,-3,-10,10
115433193,-0.27777099609375,-0.6397705078125,0.35260009765625,-0.6239013671875,8144,-1852,-679,-2,-10,12
