subject,Joshua Spiesman
arm,left
label,0
hz,100.17435189967313
time,5.76994

timestamp_us,q0,q1,q2,q3,ax,ay,az,gx,gy,gz
75276673,-0.33642578125,-0.01715087890625,-0.7864990234375,-0.51776123046875,-4107,6611,-2083,-10,13,0
75286652,-0.3350830078125,-0.01605224609375,-0.7864990234375,-0.5186767578125,-4110,6617,-2067,-10,12,1
75296636,-0.333740234375,-0.01513671875,-0.7864990234375,-0.51953125,-4115,6614,-2063,-9,12,2
75306617,-0.3323974609375,-0.01422119140625,-0.7864990234375,-0.5203857421875,-4121,6613,-2044,-8,11,2
75316600,-0.3311767578125,-0.01336669921875,-0.7864990234375,-0.521240234375,-4122,6626,-2019,-8,11,2
75326581,-0.33001708984375,-0.012451171875,-0.78656005859375,-0.52191162109375,-4123,6640,-2021,-7,11,0
75336569,-0.32904052734375,-0.011474609375,-0.78662109375,-0.5224609375,-4132,6635,-2000,-7,10,-1
75346546,-0.3282470703125,-0.01043701171875,-0.78662109375,-0.52294921875,-4126,6630,-1980,-6,9,-3
75356527,-0.3275146484375,-0.00933837890625,-0.78668212890625,-0.52325439453125,-4128,6639,-1965,-5,9,-4
75366510,-0.326904296875,-0.00823974609375,-0.78680419921875,-0.5235595703125,-4127,6650,-1931,-4,9,-4
75376494,-0.3262939453125,-0.0072021484375,-0.786865234375,-0.52386474609375,-4147,6661,-1909,-4,8,-3
75386475,-0.32574462890625,-0.00640869140625,-0.78692626953125,-0.52410888671875,-4162,6681,-1889,-4,7,-2
75396457,-0.32513427734375,-0.00567626953125,-0.78704833984375,-0.52435302734375,-4174,6695,-1872,-3,7,-1
75406449,-0.32452392578125,-0.00518798828125,-0.787109375,-0.5245361328125,-4186,6719,-1858,-2,6,0
75416430,-0.32391357421875,-0.0047607421875,-0.7872314453125,-0.5247802734375,-4184,6748,-1842,-2,6,0
75426408,-0.32342529296875,-0.00439453125,-0.78729248046875,-0.5250244140625,-4202,6770,-1816,-1,5,0
75436394,-0.3228759765625,-0.00408935546875,-0.78741455078125,-0.525146484375,-4225,6800,-1808,-1,5,1
75446372,-0.3223876953125,-0.00384521484375,-0.7874755859375,-0.52532958984375,-4245,6827,-1789,-1,4,1
75456355,-0.322021484375,-0.003662109375,-0.78753662109375,-0.5255126953125,-4258,6844,-1777,-1,3,1
75466341,-0.32171630859375,-0.00341796875,-0.78759765625,-0.525634765625,-4277,6868,-1754,0,3,0
75476321,-0.32159423828125,-0.0030517578125,-0.78765869140625,-0.525634765625,-4265,6881,-1740,0,3,-2
75486302,-0.32159423828125,-0.00262451171875,-0.78765869140625,-0.52557373046875,-4259,6885,-1710,0,2,-4
75496284,-0.32177734375,-0.00201416015625,-0.78765869140625,-0.52545166015625,-4248,6884,-1690,0,2,-5
75506258,-0.32208251953125,-0.00140380859375,-0.78765869140625,-0.5252685546875,-4240,6878,-1673,0,1,-6
75516240,-0.32244873046875,-0.0008544921875,-0.78765869140625,-0.5250244140625,-4240,6861,-1667,1,0,-6
75526231,-0.32281494140625,-0.00030517578125,-0.7877197265625,-0.5247802734375,-4249,6848,-1659,1,0,-6
75536214,-0.3231201171875,0.0001220703125,-0.78778076171875,-0.5245361328125,-4231,6830,-1646,2,0,-5
75546206,-0.3233642578125,0.00030517578125,-0.787841796875,-0.5242919921875,-4231,6817,-1655,2,-1,-3
75556185,-0.3236083984375,0.0003662109375,-0.787841796875,-0.5240478515625,-4225,6808,-1656,2,-1,-2
75566167,-0.32373046875,0.000244140625,-0.7879638671875,-0.52386474609375,-4231,6797,-1655,3,-1,-1
75576154,-0.3238525390625,6.103515625e-05,-0.78802490234375,-0.523681640625,-4231,6785,-1659,3,-1,0
75586124,-0.323974609375,-0.000244140625,-0.7880859375,-0.5235595703125,-4221,6775,-1652,3,-2,1
75596106,-0.32403564453125,-0.0006103515625,-0.7882080078125,-0.5233154296875,-4225,6775,-1676,3,-2,1
75606088,-0.32415771484375,-0.0009765625,-0.788330078125,-0.52301025390625,-4230,6774,-1694,4,-2,1
75616069,-0.32427978515625,-0.0013427734375,-0.78851318359375,-0.522705078125,-4249,6789,-1704,4,-2,1
75626055,-0.32440185546875,-0.00177001953125,-0.78863525390625,-0.52239990234375,-4264,6819,-1745,4,-2,1
75636034,-0.32452392578125,-0.00225830078125,-0.78887939453125,-0.52197265625,-4277,6848,-1788,5,-2,1
75646014,-0.32464599609375,-0.0028076171875,-0.7890625,-0.5216064453125,-4284,6872,-1830,5,-3,2
75655997,-0.32476806640625,-0.0032958984375,-0.78924560546875,-0.521240234375,-4295,6894,-1859,5,-3,1
75665985,-0.32489013671875,-0.00390625,-0.7894287109375,-0.5208740234375,-4293,6899,-1879,5,-3,1
75675963,-0.3251953125,-0.00433349609375,-0.78961181640625,-0.52044677734375,-4301,6903,-1878,5,-3,0
75685948,-0.32550048828125,-0.0047607421875,-0.78973388671875,-0.52001953125,-4299,6911,-1893,4,-4,-1
75695927,-0.32598876953125,-0.00506591796875,-0.78985595703125,-0.51953125,-4304,6923,-1918,4,-4,-2
75705908,-0.32647705078125,-0.00531005859375,-0.78997802734375,-0.51904296875,-4323,6924,-1952,4,-4,-2
75715896,-0.3270263671875,-0.00555419921875,-0.79010009765625,-0.51849365234375,-4349,6927,-1977,4,-5,-2
75725878,-0.32763671875,-0.005859375,-0.79022216796875,-0.51800537109375,-4364,6903,-2006,4,-5,-2
75735864,-0.328125,-0.00628662109375,-0.790283203125,-0.51751708984375,-4361,6868,-2012,4,-6,0
75745842,-0.32867431640625,-0.00689697265625,-0.79034423828125,-0.51708984375,-4369,6845,-2018,4,-6,1
75755824,-0.3291015625,-0.0076904296875,-0.7904052734375,-0.51666259765625,-4379,6832,-2020,5,-6,2
75765805,-0.32958984375,-0.008544921875,-0.79046630859375,-0.51629638671875,-4393,6838,-2031,5,-7,3
75775789,-0.33001708984375,-0.009521484375,-0.79052734375,-0.51593017578125,-4424,6868,-2032,5,-7,3
75785769,-0.33056640625,-0.01055908203125,-0.79052734375,-0.5155029296875,-4459,6897,-2030,5,-8,3
75795761,-0.3311767578125,-0.011474609375,-0.79058837890625,-0.51507568359375,-4507,6939,-2020,5,-8,2
75805743,-0.33197021484375,-0.01226806640625,-0.79052734375,-0.51458740234375,-4572,6989,-2004,6,-9,0
75815721,-0.3330078125,-0.01287841796875,-0.79046630859375,-0.51397705078125,-4633,7051,-1977,6,-9,-2
75825701,-0.33428955078125,-0.01312255859375,-0.7904052734375,-0.51324462890625,-4694,7109,-1969,6,-10,-6
75835684,-0.33599853515625,-0.0130615234375,-0.790283203125,-0.5123291015625,-4756,7167,-1968,5,-11,-11
75845666,-0.33795166015625,-0.0125732421875,-0.79010009765625,-0.5113525390625,-4821,7220,-1956,5,-11,-15
75855647,-0.34027099609375,-0.01177978515625,-0.789794921875,-0.51025390625,-4861,7265,-1954,4,-12,-19
75865636,-0.34295654296875,-0.01068115234375,-0.7894287109375,-0.50909423828125,-4895,7293,-1935,3,-14,-22
75875618,-0.345703125,-0.00946044921875,-0.78900146484375,-0.50787353515625,-4928,7306,-1912,3,-14,-23
75885599,-0.3486328125,-0.00830078125,-0.7884521484375,-0.5067138671875,-4962,7297,-1890,2,-15,-23
75895581,-0.35150146484375,-0.00726318359375,-0.78790283203125,-0.50567626953125,-4986,7282,-1866,2,-16,-21
75905563,-0.3543701171875,-0.00640869140625,-0.7872314453125,-0.50469970703125,-4998,7249,-1833,1,-16,-19
75915547,-0.3570556640625,-0.00592041015625,-0.7864990234375,-0.50396728515625,-4996,7194,-1792,1,-18,-16
75925529,-0.35968017578125,-0.00567626953125,-0.78570556640625,-0.50335693359375,-4994,7133,-1749,0,-18,-13
75935511,-0.36224365234375,-0.0057373046875,-0.78485107421875,-0.50286865234375,-4993,7071,-1719,0,-19,-10
75945495,-0.3646240234375,-0.00616455078125,-0.78387451171875,-0.50262451171875,-4984,7011,-1669,0,-20,-7
75955476,-0.36688232421875,-0.0069580078125,-0.78289794921875,-0.50250244140625,-4982,6959,-1631,0,-20,-4
75965456,-0.36907958984375,-0.00799560546875,-0.7818603515625,-0.50250244140625,-4995,6909,-1607,0,-22,-2
75975450,-0.37127685546875,-0.00933837890625,-0.78076171875,-0.5025634765625,-5000,6857,-1577,0,-22,1
75985430,-0.37335205078125,-0.01092529296875,-0.7796630859375,-0.50274658203125,-4993,6800,-1539,0,-23,2
75995413,-0.37542724609375,-0.0126953125,-0.77850341796875,-0.50286865234375,-4998,6757,-1515,0,-24,3
76005395,-0.3775634765625,-0.01446533203125,-0.77734375,-0.5030517578125,-4993,6699,-1487,0,-24,4
76015373,-0.3797607421875,-0.01629638671875,-0.77618408203125,-0.50311279296875,-5006,6629,-1457,0,-25,4
76025353,-0.382080078125,-0.01812744140625,-0.7750244140625,-0.50311279296875,-4999,6566,-1425,1,-26,3
76035337,-0.38446044921875,-0.02001953125,-0.77386474609375,-0.50299072265625,-4980,6500,-1391,2,-26,2
76045320,-0.386962890625,-0.02178955078125,-0.77276611328125,-0.502685546875,-4974,6434,-1360,3,-26,1
76055303,-0.38958740234375,-0.0235595703125,-0.771728515625,-0.50225830078125,-4975,6380,-1331,4,-27,0
76067995,-0.39227294921875,-0.02532958984375,-0.77069091796875,-0.50164794921875,-4974,6315,-1300,6,-28,-1
76075269,-0.39501953125,-0.02716064453125,-0.76971435546875,-0.5008544921875,-4975,6286,-1266,6,-28,-1
76085257,-0.39788818359375,-0.0291748046875,-0.76873779296875,-0.5,-4983,6231,-1259,8,-29,0
76095240,-0.400634765625,-0.0313720703125,-0.767822265625,-0.4990234375,-4991,6175,-1228,9,-30,1
76105225,-0.40338134765625,-0.0338134765625,-0.7669677734375,-0.49798583984375,-5014,6131,-1210,11,-30,3
76115206,-0.406005859375,-0.03656005859375,-0.76611328125,-0.4969482421875,-5044,6112,-1196,12,-31,5
76125195,-0.40850830078125,-0.0396728515625,-0.765380859375,-0.495849609375,-5090,6104,-1195,14,-31,8
76135178,-0.41082763671875,-0.0430908203125,-0.7646484375,-0.4947509765625,-5130,6094,-1206,15,-32,11
76145160,-0.4130859375,-0.046875,-0.763916015625,-0.49365234375,-5161,6093,-1236,16,-32,13
76155131,-0.415283203125,-0.05084228515625,-0.76324462890625,-0.492431640625,-5187,6117,-1268,17,-33,14
76165115,-0.41748046875,-0.05499267578125,-0.76263427734375,-0.49114990234375,-5222,6147,-1311,18,-34,15
76175097,-0.419677734375,-0.05926513671875,-0.761962890625,-0.48974609375,-5255,6191,-1359,19,-34,15
76185079,-0.4219970703125,-0.0635986328125,-0.7613525390625,-0.48822021484375,-5285,6255,-1415,20,-36,14
76195061,-0.42437744140625,-0.06793212890625,-0.7607421875,-0.48651123046875,-5303,6319,-1477,20,-36,14
76205051,-0.42681884765625,-0.072265625,-0.76007080078125,-0.4847412109375,-5315,6351,-1521,21,-37,13
76215028,-0.42938232421875,-0.07659912109375,-0.7593994140625,-0.48291015625,-5305,6370,-1578,21,-38,12
76225009,-0.4320068359375,-0.08087158203125,-0.7586669921875,-0.48095703125,-5270,6392,-1624,21,-38,11
76234995,-0.43475341796875,-0.0850830078125,-0.7579345703125,-0.47894287109375,-5253,6398,-1665,21,-39,10
76244982,-0.43756103515625,-0.08935546875,-0.757080078125,-0.4769287109375,-5228,6407,-1708,20,-40,10
76254957,-0.4404296875,-0.09356689453125,-0.7562255859375,-0.474853515625,-5178,6421,-1753,20,-40,9
76264938,-0.44329833984375,-0.0977783203125,-0.7552490234375,-0.47283935546875,-5127,6412,-1790,19,-41,9
76274922,-0.44622802734375,-0.10211181640625,-0.75421142578125,-0.47088623046875,-5089,6420,-1812,19,-42,10
76284904,-0.44903564453125,-0.10662841796875,-0.7530517578125,-0.46905517578125,-5040,6433,-1809,19,-43,12
76294891,-0.45172119140625,-0.111328125,-0.7518310546875,-0.46734619140625,-5000,6446,-1823,19,-42,14
76304878,-0.45428466796875,-0.1162109375,-0.75048828125,-0.46575927734375,-4962,6484,-1829,18,-43,17
76314856,-0.45672607421875,-0.12139892578125,-0.74908447265625,-0.46441650390625,-4931,6529,-1837,18,-43,19
76324840,-0.458984375,-0.126708984375,-0.74761962890625,-0.463134765625,-4904,6575,-1845,17,-43,21
76334823,-0.46124267578125,-0.132080078125,-0.74603271484375,-0.4619140625,-4868,6601,-1850,17,-44,21
76344804,-0.46356201171875,-0.13739013671875,-0.744384765625,-0.460693359375,-4811,6622,-1854,17,-43,20
76354788,-0.46588134765625,-0.142578125,-0.7427978515625,-0.4593505859375,-4762,6633,-1861,16,-43,19
76364767,-0.46832275390625,-0.1475830078125,-0.74114990234375,-0.45794677734375,-4723,6652,-1874,16,-44,17
76374759,-0.4708251953125,-0.15240478515625,-0.73956298828125,-0.45635986328125,-4702,6692,-1887,16,-44,15
76384741,-0.47332763671875,-0.15716552734375,-0.73797607421875,-0.4547119140625,-4675,6718,-1894,16,-44,14
76394716,-0.47589111328125,-0.16192626953125,-0.736328125,-0.45306396484375,-4647,6742,-1899,16,-44,14
76404698,-0.4783935546875,-0.1666259765625,-0.73468017578125,-0.451416015625,-4607,6744,-1907,16,-43,14
76414682,-0.4808349609375,-0.17132568359375,-0.7330322265625,-0.44970703125,-4577,6730,-1909,16,-43,14
76424663,-0.4832763671875,-0.17608642578125,-0.7313232421875,-0.44805908203125,-4568,6711,-1892,16,-43,16
76434648,-0.48553466796875,-0.18096923828125,-0.72955322265625,-0.446533203125,-4578,6679,-1873,16,-43,18
76444636,-0.48773193359375,-0.18609619140625,-0.7276611328125,-0.445068359375,-4597,6654,-1846,16,-44,21
76454614,-0.4898681640625,-0.19140625,-0.7257080078125,-0.4437255859375,-4608,6642,-1814,16,-44,23
76464596,-0.491943359375,-0.1968994140625,-0.7236328125,-0.4423828125,-4609,6625,-1771,17,-45,24
76474578,-0.49407958984375,-0.20245361328125,-0.72149658203125,-0.44097900390625,-4618,6614,-1723,17,-46,24
76484563,-0.496337890625,-0.20806884765625,-0.71929931640625,-0.43939208984375,-4623,6610,-1687,18,-47,23
76494546,-0.4986572265625,-0.2137451171875,-0.717041015625,-0.437744140625,-4627,6592,-1656,19,-48,23
76504529,-0.50115966796875,-0.2193603515625,-0.71478271484375,-0.43585205078125,-4643,6570,-1622,20,-49,22
76514511,-0.50372314453125,-0.22515869140625,-0.71234130859375,-0.433837890625,-4642,6552,-1597,20,-51,22
76524492,-0.50634765625,-0.2310791015625,-0.70989990234375,-0.431640625,-4663,6549,-1572,21,-53,23
76534478,-0.50909423828125,-0.2373046875,-0.707275390625,-0.429443359375,-4678,6558,-1534,22,-55,24
76544459,-0.5118408203125,-0.24371337890625,-0.7044677734375,-0.4271240234375,-4665,6570,-1484,23,-56,26
76554438,-0.5146484375,-0.2503662109375,-0.7015380859375,-0.42474365234375,-4635,6601,-1440,24,-58,26
76564431,-0.51751708984375,-0.25714111328125,-0.698486328125,-0.42218017578125,-4608,6630,-1407,25,-60,25
76574414,-0.5205078125,-0.2640380859375,-0.69537353515625,-0.41943359375,-4573,6694,-1395,26,-62,25
76584396,-0.52362060546875,-0.2711181640625,-0.692138671875,-0.41644287109375,-4529,6759,-1384,27,-64,25
76594372,-0.5267333984375,-0.2783203125,-0.68878173828125,-0.41326904296875,-4470,6820,-1372,28,-66,24
76604353,-0.5299072265625,-0.28558349609375,-0.68536376953125,-0.409912109375,-4398,6858,-1368,30,-67,24
76614337,-0.5330810546875,-0.29296875,-0.68182373046875,-0.4063720703125,-4316,6908,-1377,31,-68,24
76624320,-0.53631591796875,-0.30047607421875,-0.67822265625,-0.40277099609375,-4237,6947,-1374,31,-69,24
76634303,-0.5394287109375,-0.30804443359375,-0.674560546875,-0.39898681640625,-4163,6998,-1393,32,-70,24
76644286,-0.54254150390625,-0.315673828125,-0.67083740234375,-0.39508056640625,-4099,7054,-1417,33,-70,24
76654268,-0.545654296875,-0.3233642578125,-0.6669921875,-0.39111328125,-4026,7118,-1440,33,-71,24
76664256,-0.54864501953125,-0.3310546875,-0.6630859375,-0.38702392578125,-3929,7203,-1486,33,-72,23
76674240,-0.55157470703125,-0.3387451171875,-0.6591796875,-0.38287353515625,-3824,7282,-1519,34,-71,22
76684220,-0.554443359375,-0.34637451171875,-0.65521240234375,-0.37872314453125,-3716,7374,-1547,34,-72,22
76694206,-0.55731201171875,-0.3538818359375,-0.6512451171875,-0.3743896484375,-3651,7446,-1565,34,-71,21
76704192,-0.5601806640625,-0.361328125,-0.64715576171875,-0.3701171875,-3583,7517,-1588,33,-71,21
76714175,-0.56292724609375,-0.3687744140625,-0.6429443359375,-0.3658447265625,-3500,7596,-1617,32,-72,21
76724158,-0.565673828125,-0.3760986328125,-0.63873291015625,-0.361572265625,-3421,7677,-1665,32,-72,20
76734129,-0.56842041015625,-0.38330078125,-0.63446044921875,-0.357177734375,-3322,7744,-1714,31,-72,18
76744111,-0.57122802734375,-0.3902587890625,-0.63018798828125,-0.35272216796875,-3232,7792,-1754,30,-71,17
76754094,-0.57403564453125,-0.39703369140625,-0.6258544921875,-0.34820556640625,-3145,7821,-1775,30,-71,15
76764076,-0.57684326171875,-0.4036865234375,-0.6214599609375,-0.34368896484375,-3073,7815,-1802,29,-72,15
76774058,-0.57958984375,-0.41033935546875,-0.61700439453125,-0.3392333984375,-2990,7794,-1824,28,-71,16
76784042,-0.582275390625,-0.4169921875,-0.6124267578125,-0.3349609375,-2949,7757,-1853,27,-71,19
76794026,-0.58465576171875,-0.423828125,-0.60760498046875,-0.3309326171875,-2901,7725,-1876,27,-70,22
76804008,-0.5869140625,-0.43084716796875,-0.60247802734375,-0.32720947265625,-2861,7677,-1883,26,-70,27
76813996,-0.5889892578125,-0.43804931640625,-0.5970458984375,-0.3238525390625,-2813,7656,-1897,25,-70,31
76823978,-0.59075927734375,-0.44549560546875,-0.5914306640625,-0.32080078125,-2756,7627,-1904,25,-70,35
76833956,-0.5924072265625,-0.45306396484375,-0.58544921875,-0.31805419921875,-2726,7592,-1901,24,-69,39
76843937,-0.59375,-0.46075439453125,-0.579345703125,-0.31561279296875,-2693,7582,-1917,23,-68,42
76853921,-0.594970703125,-0.4686279296875,-0.57293701171875,-0.3134765625,-2675,7580,-1945,23,-68,46
76863901,-0.59600830078125,-0.47650146484375,-0.56640625,-0.3115234375,-2656,7592,-1973,22,-67,48
76873885,-0.5968017578125,-0.48443603515625,-0.5596923828125,-0.30975341796875,-2613,7572,-1984,22,-66,50
76883869,-0.59759521484375,-0.4923095703125,-0.552978515625,-0.30804443359375,-2567,7542,-1976,21,-66,51
76893851,-0.5982666015625,-0.49993896484375,-0.5462646484375,-0.30633544921875,-2518,7508,-1958,21,-64,49
76903834,-0.598876953125,-0.50738525390625,-0.5396728515625,-0.3045654296875,-2468,7497,-1920,21,-63,48
76913816,-0.59954833984375,-0.51446533203125,-0.5333251953125,-0.30255126953125,-2413,7513,-1874,21,-62,44
76923800,-0.60028076171875,-0.52117919921875,-0.5272216796875,-0.30035400390625,-2347,7542,-1828,21,-60,39
76933784,-0.60101318359375,-0.52740478515625,-0.5216064453125,-0.29779052734375,-2285,7592,-1797,21,-59,33
76943770,-0.601806640625,-0.533203125,-0.51641845703125,-0.294921875,-2228,7641,-1767,21,-57,27
76953753,-0.60272216796875,-0.53851318359375,-0.51165771484375,-0.291748046875,-2173,7647,-1732,21,-55,22
76963734,-0.6036376953125,-0.5433349609375,-0.50732421875,-0.2882080078125,-2131,7664,-1690,21,-54,17
76973711,-0.60467529296875,-0.5478515625,-0.50341796875,-0.28448486328125,-2070,7673,-1655,21,-52,12
76983693,-0.6055908203125,-0.55206298828125,-0.49981689453125,-0.28057861328125,-2013,7699,-1629,21,-50,8
76993676,-0.60662841796875,-0.55596923828125,-0.49658203125,-0.2764892578125,-1965,7735,-1602,21,-49,5
77003658,-0.60760498046875,-0.5595703125,-0.49359130859375,-0.2723388671875,-1928,7778,-1587,21,-48,2
77013639,-0.60858154296875,-0.56298828125,-0.4908447265625,-0.26812744140625,-1890,7815,-1572,21,-45,0
77023622,-0.6094970703125,-0.566162109375,-0.48828125,-0.263916015625,-1859,7837,-1556,20,-44,-2
77033600,-0.6103515625,-0.56915283203125,-0.4859619140625,-0.25982666015625,-1830,7850,-1537,20,-41,-3
77043584,-0.61114501953125,-0.572021484375,-0.48370361328125,-0.255859375,-1801,7852,-1521,19,-40,-3
77053566,-0.61187744140625,-0.57470703125,-0.48150634765625,-0.2520751953125,-1776,7863,-1489,19,-38,-3
77063549,-0.612548828125,-0.57733154296875,-0.4793701171875,-0.24853515625,-1765,7858,-1470,18,-37,-2
77073542,-0.6131591796875,-0.5799560546875,-0.4771728515625,-0.24517822265625,-1753,7843,-1445,17,-35,0
77083516,-0.61370849609375,-0.58245849609375,-0.4749755859375,-0.2420654296875,-1750,7815,-1406,16,-34,1
77093499,-0.6141357421875,-0.5849609375,-0.4727783203125,-0.23919677734375,-1760,7797,-1374,16,-33,2
77103482,-0.61456298828125,-0.58746337890625,-0.47052001953125,-0.236572265625,-1769,7768,-1348,15,-31,4
77113464,-0.61492919921875,-0.58984375,-0.46826171875,-0.234130859375,-1789,7765,-1323,14,-30,5
77123449,-0.615234375,-0.59222412109375,-0.46588134765625,-0.23187255859375,-1818,7774,-1309,13,-29,6
77133434,-0.61553955078125,-0.59454345703125,-0.46356201171875,-0.22979736328125,-1814,7768,-1280,13,-28,6
77143420,-0.61590576171875,-0.5966796875,-0.46136474609375,-0.22784423828125,-1799,7734,-1253,12,-26,5
77153402,-0.61627197265625,-0.5985107421875,-0.45947265625,-0.22576904296875,-1789,7698,-1219,11,-25,2
77163380,-0.61669921875,-0.60009765625,-0.45794677734375,-0.22357177734375,-1783,7665,-1185,11,-24,-2
77173359,-0.6171875,-0.60137939453125,-0.456787109375,-0.22119140625,-1782,7634,-1162,10,-22,-6
77183340,-0.61761474609375,-0.6024169921875,-0.4559326171875,-0.21875,-1815,7655,-1155,10,-20,-9
77193325,-0.61810302734375,-0.603271484375,-0.455322265625,-0.21630859375,-1855,7698,-1156,10,-19,-10
77203308,-0.61859130859375,-0.60406494140625,-0.45477294921875,-0.2139892578125,-1901,7735,-1152,9,-17,-9
77213293,-0.618896484375,-0.60479736328125,-0.45428466796875,-0.2119140625,-1943,7788,-1169,9,-16,-8
77223271,-0.619140625,-0.6055908203125,-0.4537353515625,-0.21014404296875,-2002,7820,-1166,8,-14,-5
77233256,-0.6192626953125,-0.6064453125,-0.453125,-0.208740234375,-2049,7827,-1160,8,-12,-3
77243242,-0.6192626953125,-0.60723876953125,-0.4525146484375,-0.20758056640625,-2089,7820,-1134,7,-11,-1
77253224,-0.61920166015625,-0.6080322265625,-0.451904296875,-0.20672607421875,-2110,7812,-1118,7,-9,-1
77263208,-0.619140625,-0.60870361328125,-0.45147705078125,-0.2059326171875,-2136,7809,-1119,6,-7,-1
77273187,-0.6190185546875,-0.6092529296875,-0.45123291015625,-0.2052001953125,-2151,7823,-1115,6,-5,-2
77283179,-0.61883544921875,-0.609619140625,-0.45123291015625,-0.20458984375,-2171,7836,-1128,5,-3,-3
77293160,-0.61865234375,-0.60986328125,-0.451416015625,-0.20404052734375,-2201,7844,-1116,5,-2,-4
77303142,-0.61846923828125,-0.6099853515625,-0.4517822265625,-0.20355224609375,-2243,7861,-1107,4,0,-6
77313112,-0.61822509765625,-0.60992431640625,-0.45233154296875,-0.203125,-2272,7873,-1102,4,2,-6
77323096,-0.61798095703125,-0.6097412109375,-0.453125,-0.20281982421875,-2313,7889,-1114,3,4,-8
77333079,-0.61773681640625,-0.609375,-0.4541015625,-0.20245361328125,-2343,7904,-1103,2,5,-9
77343061,-0.61749267578125,-0.60882568359375,-0.45526123046875,-0.20208740234375,-2359,7922,-1107,2,6,-12
77353051,-0.6173095703125,-0.60809326171875,-0.45672607421875,-0.20172119140625,-2374,7913,-1102,1,7,-14
77363026,-0.6171875,-0.60711669921875,-0.4583740234375,-0.20123291015625,-2396,7895,-1106,1,8,-16
77373007,-0.6170654296875,-0.60589599609375,-0.4603271484375,-0.20074462890625,-2439,7889,-1115,0,9,-19
77382996,-0.6170654296875,-0.6044921875,-0.46240234375,-0.20013427734375,-2480,7885,-1120,-2,10,-20
77392977,-0.6171875,-0.60296630859375,-0.46453857421875,-0.1995849609375,-2519,7883,-1136,-3,10,-21
77402953,-0.61724853515625,-0.601318359375,-0.466796875,-0.1990966796875,-2559,7889,-1145,-3,11,-21
77412937,-0.617431640625,-0.59954833984375,-0.468994140625,-0.19866943359375,-2594,7888,-1146,-5,11,-21
77422919,-0.61767578125,-0.59771728515625,-0.47119140625,-0.1983642578125,-2623,7897,-1167,-6,11,-21
77432901,-0.61798095703125,-0.5958251953125,-0.47320556640625,-0.1981201171875,-2665,7906,-1181,-7,11,-20
77442884,-0.6182861328125,-0.593994140625,-0.47515869140625,-0.1981201171875,-2704,7906,-1176,-8,11,-18
77452866,-0.61859130859375,-0.59222412109375,-0.476806640625,-0.1983642578125,-2727,7909,-1173,-9,11,-16
77462849,-0.61895751953125,-0.59051513671875,-0.47833251953125,-0.19879150390625,-2753,7905,-1158,-10,11,-13
77472832,-0.619384765625,-0.5887451171875,-0.47967529296875,-0.1993408203125,-2783,7899,-1146,-11,10,-12
77482814,-0.619873046875,-0.58709716796875,-0.48077392578125,-0.2000732421875,-2807,7900,-1137,-12,10,-10
77492798,-0.620361328125,-0.58544921875,-0.4818115234375,-0.20086669921875,-2850,7917,-1137,-12,10,-9
77502774,-0.62091064453125,-0.58380126953125,-0.48272705078125,-0.2017822265625,-2878,7951,-1118,-13,9,-8
77512768,-0.62158203125,-0.5821533203125,-0.4835205078125,-0.2027587890625,-2925,7983,-1116,-14,9,-8
77522752,-0.62225341796875,-0.5804443359375,-0.48419189453125,-0.2037353515625,-2958,8004,-1089,-14,8,-7
77532732,-0.623046875,-0.57879638671875,-0.48480224609375,-0.20477294921875,-2988,8009,-1067,-15,8,-7
77542709,-0.6239013671875,-0.57696533203125,-0.48541259765625,-0.20574951171875,-3008,7999,-1049,-16,7,-7
77552693,-0.62481689453125,-0.57513427734375,-0.48602294921875,-0.2066650390625,-3030,7992,-1025,-16,6,-8
77562674,-0.62579345703125,-0.5732421875,-0.48663330078125,-0.20745849609375,-3046,8001,-1008,-16,6,-9
77572657,-0.62689208984375,-0.5712890625,-0.4873046875,-0.20819091796875,-3055,7987,-997,-17,5,-10
77582640,-0.62799072265625,-0.56927490234375,-0.48797607421875,-0.208740234375,-3076,7993,-993,-17,5,-12
77592622,-0.62908935546875,-0.56719970703125,-0.48870849609375,-0.209228515625,-3093,7976,-979,-17,5,-12
77602605,-0.63031005859375,-0.56512451171875,-0.4893798828125,-0.20965576171875,-3102,7946,-957,-17,3,-12
77612587,-0.63153076171875,-0.56304931640625,-0.49005126953125,-0.21002197265625,-3127,7922,-928,-17,3,-12
77622572,-0.63275146484375,-0.56109619140625,-0.4906005859375,-0.2103271484375,-3148,7872,-908,-17,2,-12
77632552,-0.63397216796875,-0.55914306640625,-0.49114990234375,-0.2105712890625,-3165,7824,-894,-16,2,-11
77642536,-0.63519287109375,-0.5572509765625,-0.4915771484375,-0.2108154296875,-3169,7763,-863,-16,1,-11
77652518,-0.636474609375,-0.55535888671875,-0.49200439453125,-0.21099853515625,-3174,7695,-826,-15,0,-11
77662499,-0.6376953125,-0.5535888671875,-0.49237060546875,-0.2110595703125,-3186,7607,-797,-15,0,-11
77672486,-0.63897705078125,-0.55181884765625,-0.49273681640625,-0.2110595703125,-3223,7527,-764,-14,-1,-10
77682463,-0.64019775390625,-0.55023193359375,-0.49298095703125,-0.2110595703125,-3241,7445,-738,-13,-1,-10
77692449,-0.641357421875,-0.5487060546875,-0.4931640625,-0.21099853515625,-3276,7369,-713,-13,-2,-9
77702435,-0.64239501953125,-0.54736328125,-0.49322509765625,-0.2109375,-3313,7310,-686,-12,-2,-7
77712417,-0.6434326171875,-0.54620361328125,-0.49322509765625,-0.21099853515625,-3347,7272,-660,-11,-2,-5
77722401,-0.64434814453125,-0.545166015625,-0.49310302734375,-0.2110595703125,-3376,7238,-631,-10,-3,-4
77732377,-0.645263671875,-0.54425048828125,-0.492919921875,-0.21112060546875,-3415,7207,-605,-9,-3,-3
77742361,-0.64605712890625,-0.54345703125,-0.4927978515625,-0.21112060546875,-3455,7164,-581,-8,-3,-3
77752343,-0.6468505859375,-0.54266357421875,-0.49261474609375,-0.21112060546875,-3497,7135,-554,-8,-3,-3
77762328,-0.64752197265625,-0.5418701171875,-0.49261474609375,-0.2109375,-3519,7095,-511,-6,-2,-4
77772308,-0.64825439453125,-0.54107666015625,-0.49267578125,-0.21063232421875,-3538,7058,-471,-6,-2,-6
77782293,-0.64892578125,-0.5401611328125,-0.49298095703125,-0.210205078125,-3561,7026,-439,-5,-2,-8
77792274,-0.64959716796875,-0.5391845703125,-0.493408203125,-0.20953369140625,-3579,7018,-416,-4,-1,-10
77802256,-0.6502685546875,-0.5382080078125,-0.49407958984375,-0.20867919921875,-3592,7042,-383,-3,-1,-12
77812243,-0.65087890625,-0.53704833984375,-0.49493408203125,-0.2076416015625,-3603,7074,-368,-3,0,-15
77822228,-0.65142822265625,-0.5357666015625,-0.49603271484375,-0.2064208984375,-3608,7104,-352,-2,0,-18
77832214,-0.65203857421875,-0.534423828125,-0.49737548828125,-0.20501708984375,-3612,7148,-348,-1,1,-20
77842193,-0.652587890625,-0.532958984375,-0.49884033203125,-0.20343017578125,-3614,7178,-355,-1,1,-22
77852186,-0.65313720703125,-0.53143310546875,-0.50042724609375,-0.20172119140625,-3627,7178,-357,-1,1,-24
77862174,-0.65362548828125,-0.52984619140625,-0.50213623046875,-0.199951171875,-3661,7186,-365,-1,2,-24
77872156,-0.65411376953125,-0.52825927734375,-0.50390625,-0.1982421875,-3684,7196,-367,0,2,-24
77882128,-0.654541015625,-0.5267333984375,-0.505615234375,-0.196533203125,-3722,7217,-379,0,3,-24
77892105,-0.65496826171875,-0.52520751953125,-0.50726318359375,-0.1949462890625,-3753,7260,-375,-1,3,-23
77902085,-0.65533447265625,-0.5238037109375,-0.5087890625,-0.19354248046875,-3785,7313,-391,-1,3,-21
77912072,-0.65557861328125,-0.52252197265625,-0.51025390625,-0.1922607421875,-3809,7367,-407,0,3,-19
77922054,-0.65576171875,-0.5213623046875,-0.5115966796875,-0.191162109375,-3837,7412,-425,-1,3,-17
77932035,-0.65594482421875,-0.52032470703125,-0.51275634765625,-0.19024658203125,-3869,7441,-434,-1,3,-15
77942017,-0.65606689453125,-0.5194091796875,-0.5137939453125,-0.18951416015625,-3905,7461,-443,-1,3,-12
77951998,-0.6561279296875,-0.51861572265625,-0.51470947265625,-0.18902587890625,-3935,7468,-448,-1,3,-10
77961988,-0.6561279296875,-0.5179443359375,-0.5155029296875,-0.18865966796875,-3974,7461,-463,-1,4,-8
77971965,-0.6561279296875,-0.51739501953125,-0.5162353515625,-0.18841552734375,-4003,7462,-472,-1,4,-7
77981948,-0.65606689453125,-0.516845703125,-0.516845703125,-0.18829345703125,-4029,7452,-477,-1,4,-6
77991930,-0.65594482421875,-0.516357421875,-0.51751708984375,-0.188232421875,-4049,7448,-494,-1,4,-5
78001913,-0.65582275390625,-0.515869140625,-0.51812744140625,-0.18817138671875,-4044,7437,-505,-1,4,-6
78011896,-0.6556396484375,-0.515380859375,-0.5189208984375,-0.18804931640625,-4028,7450,-518,-1,5,-7
78021878,-0.65545654296875,-0.5147705078125,-0.51971435546875,-0.18798828125,-4022,7472,-527,-1,5,-8
78031860,-0.6552734375,-0.51416015625,-0.5206298828125,-0.18792724609375,-4023,7520,-536,-1,6,-8
78041843,-0.655029296875,-0.5135498046875,-0.52154541015625,-0.1878662109375,-4036,7549,-559,-1,7,-7
78051827,-0.65472412109375,-0.512939453125,-0.5224609375,-0.18798828125,-4056,7557,-553,-1,7,-6
78061810,-0.654296875,-0.51239013671875,-0.5234375,-0.188232421875,-4053,7555,-559,-1,9,-6
78071791,-0.65386962890625,-0.51177978515625,-0.5245361328125,-0.18853759765625,-4043,7548,-535,-1,10,-6
78081770,-0.65338134765625,-0.51104736328125,-0.52569580078125,-0.18878173828125,-4038,7546,-510,-1,11,-8
78091762,-0.6529541015625,-0.51019287109375,-0.52703857421875,-0.18896484375,-4022,7545,-476,-1,11,-10
78101744,-0.65252685546875,-0.50909423828125,-0.52862548828125,-0.18902587890625,-4010,7545,-462,-1,12,-12
78111722,-0.65203857421875,-0.5079345703125,-0.53033447265625,-0.18902587890625,-3993,7544,-443,-1,13,-14
78121705,-0.6514892578125,-0.50665283203125,-0.5322265625,-0.18902587890625,-3985,7567,-427,-1,15,-14
78131685,-0.65081787109375,-0.50537109375,-0.5341796875,-0.18914794921875,-3971,7575,-422,-1,16,-14
78141669,-0.65008544921875,-0.504150390625,-0.53607177734375,-0.189453125,-3970,7583,-402,-1,17,-12
78151653,-0.6492919921875,-0.50299072265625,-0.5379638671875,-0.19000244140625,-3977,7596,-394,-1,18,-10
78161636,-0.6483154296875,-0.501953125,-0.539794921875,-0.19085693359375,-3952,7607,-378,-2,20,-8
78171617,-0.64727783203125,-0.5009765625,-0.5416259765625,-0.19195556640625,-3938,7613,-375,-2,20,-7
78181600,-0.64617919921875,-0.49993896484375,-0.54339599609375,-0.19317626953125,-3918,7613,-389,-2,22,-6
78191582,-0.64508056640625,-0.49884033203125,-0.5452880859375,-0.19451904296875,-3918,7607,-388,-4,23,-6
78201565,-0.6439208984375,-0.4976806640625,-0.54718017578125,-0.196044921875,-3918,7585,-408,-4,23,-6
78211550,-0.6427001953125,-0.4964599609375,-0.54913330078125,-0.19757080078125,-3927,7563,-431,-5,24,-6
78221532,-0.64154052734375,-0.4951171875,-0.55108642578125,-0.19921875,-3949,7546,-452,-6,25,-5
78231516,-0.64031982421875,-0.4937744140625,-0.55303955078125,-0.20098876953125,-3988,7529,-486,-6,25,-4
78241497,-0.63916015625,-0.492431640625,-0.554931640625,-0.202880859375,-4052,7538,-515,-7,26,-3
78251477,-0.637939453125,-0.49114990234375,-0.55670166015625,-0.20501708984375,-4108,7543,-547,-8,25,-1
78261464,-0.63671875,-0.4898681640625,-0.55841064453125,-0.20721435546875,-4183,7515,-579,-9,26,1
78271449,-0.63543701171875,-0.48870849609375,-0.5599365234375,-0.20965576171875,-4257,7508,-608,-9,26,4
78281434,-0.6341552734375,-0.48760986328125,-0.56134033203125,-0.2122802734375,-4324,7522,-616,-10,25,6
78291416,-0.63287353515625,-0.48675537109375,-0.5625,-0.21514892578125,-4388,7507,-641,-10,25,9
78301399,-0.6314697265625,-0.48602294921875,-0.5634765625,-0.21826171875,-4431,7501,-666,-11,25,12
78311377,-0.6300048828125,-0.4854736328125,-0.56427001953125,-0.2215576171875,-4460,7475,-667,-11,25,15
78321356,-0.62847900390625,-0.48504638671875,-0.56494140625,-0.22509765625,-4452,7463,-676,-11,25,17
78331340,-0.626953125,-0.48468017578125,-0.56561279296875,-0.2286376953125,-4434,7435,-673,-10,26,17
78341323,-0.62530517578125,-0.48431396484375,-0.5662841796875,-0.232177734375,-4414,7411,-673,-10,26,17
78351305,-0.6236572265625,-0.48382568359375,-0.56707763671875,-0.235595703125,-4374,7366,-664,-10,27,15
78361293,-0.6220703125,-0.48309326171875,-0.568115234375,-0.23876953125,-4340,7315,-658,-9,27,11
78371272,-0.62054443359375,-0.4820556640625,-0.56951904296875,-0.2415771484375,-4319,7269,-666,-9,28,7
78381256,-0.61907958984375,-0.48065185546875,-0.57122802734375,-0.24395751953125,-4282,7219,-693,-9,28,1
78391242,-0.6177978515625,-0.47882080078125,-0.57330322265625,-0.24591064453125,-4252,7180,-730,-9,28,-5
78401226,-0.61663818359375,-0.4766845703125,-0.57574462890625,-0.24737548828125,-4234,7146,-770,-9,28,-10
78411208,-0.6156005859375,-0.47418212890625,-0.578369140625,-0.24853515625,-4213,7090,-809,-9,28,-14
78421195,-0.61468505859375,-0.47149658203125,-0.58111572265625,-0.24945068359375,-4199,7037,-856,-9,27,-17
78431179,-0.6138916015625,-0.4686279296875,-0.583984375,-0.25018310546875,-4190,6974,-873,-10,26,-18
78441163,-0.6131591796875,-0.4658203125,-0.58673095703125,-0.25091552734375,-4197,6917,-899,-10,26,-18
78451138,-0.6124267578125,-0.4630126953125,-0.58935546875,-0.251708984375,-4196,6851,-911,-10,25,-17
78461115,-0.61163330078125,-0.46038818359375,-0.591796875,-0.25262451171875,-4193,6785,-926,-10,25,-14
78471098,-0.61083984375,-0.4580078125,-0.593994140625,-0.2537841796875,-4204,6740,-928,-11,24,-10
78481081,-0.60992431640625,-0.45599365234375,-0.5958251953125,-0.2552490234375,-4219,6718,-931,-11,23,-6
78491063,-0.60894775390625,-0.45428466796875,-0.59735107421875,-0.257080078125,-4216,6723,-943,-11,22,-1
78501051,-0.60784912109375,-0.452880859375,-0.59857177734375,-0.25921630859375,-4232,6763,-941,-11,22,4
78511030,-0.606689453125,-0.45184326171875,-0.5994873046875,-0.26171875,-4243,6832,-940,-12,21,8
78521014,-0.60552978515625,-0.45098876953125,-0.60015869140625,-0.264404296875,-4267,6925,-958,-12,21,10
78530997,-0.60430908203125,-0.45025634765625,-0.6007080078125,-0.26715087890625,-4294,7028,-971,-12,20,12
78540982,-0.6031494140625,-0.44952392578125,-0.60113525390625,-0.27001953125,-4308,7138,-985,-13,20,12
78550960,-0.60198974609375,-0.44873046875,-0.6015625,-0.27288818359375,-4302,7241,-995,-13,19,11
78560943,-0.6009521484375,-0.44775390625,-0.60205078125,-0.27569580078125,-4281,7326,-1015,-14,20,9
78570925,-0.60003662109375,-0.44659423828125,-0.6026611328125,-0.2783203125,-4235,7368,-1031,-15,19,6
78580908,-0.59912109375,-0.4451904296875,-0.60345458984375,-0.28076171875,-4185,7382,-1048,-14,20,3
78590890,-0.598388671875,-0.443603515625,-0.60430908203125,-0.2830810546875,-4109,7365,-1044,-15,20,1
78600878,-0.5975341796875,-0.44195556640625,-0.60528564453125,-0.28533935546875,-4010,7353,-1068,-15,20,0
78610855,-0.59661865234375,-0.44024658203125,-0.6063232421875,-0.28765869140625,-3905,7335,-1089,-15,21,0
78620840,-0.59564208984375,-0.43853759765625,-0.60736083984375,-0.28997802734375,-3793,7323,-1114,-15,22,0
78630821,-0.59454345703125,-0.4368896484375,-0.60845947265625,-0.29241943359375,-3673,7300,-1138,-15,23,1
78640804,-0.59332275390625,-0.43536376953125,-0.60955810546875,-0.29498291015625,-3579,7287,-1169,-14,24,2
78650786,-0.5919189453125,-0.433837890625,-0.61065673828125,-0.29766845703125,-3481,7284,-1201,-14,25,3
78660767,-0.59033203125,-0.43231201171875,-0.61187744140625,-0.30047607421875,-3406,7286,-1227,-14,26,3
78670757,-0.5887451171875,-0.4307861328125,-0.6131591796875,-0.3033447265625,-3348,7295,-1231,-14,27,3
78680741,-0.5870361328125,-0.42913818359375,-0.614501953125,-0.30615234375,-3315,7296,-1261,-14,28,2
78690716,-0.58526611328125,-0.42742919921875,-0.61602783203125,-0.3089599609375,-3312,7291,-1289,-14,29,1
78700701,-0.58349609375,-0.42547607421875,-0.61773681640625,-0.31158447265625,-3323,7274,-1287,-14,30,-1
78710680,-0.58172607421875,-0.42333984375,-0.61956787109375,-0.3140869140625,-3361,7256,-1303,-13,31,-3
78720663,-0.5799560546875,-0.4210205078125,-0.62158203125,-0.31640625,-3427,7244,-1309,-13,31,-5
78730645,-0.5782470703125,-0.4185791015625,-0.6236572265625,-0.318603515625,-3513,7248,-1323,-13,32,-6
78740628,-0.57666015625,-0.416015625,-0.6258544921875,-0.3206787109375,-3607,7258,-1336,-13,31,-7
78750609,-0.5750732421875,-0.41326904296875,-0.62811279296875,-0.32257080078125,-3696,7268,-1331,-13,31,-9
78760593,-0.5736083984375,-0.4105224609375,-0.63037109375,-0.3243408203125,-3790,7267,-1320,-13,31,-9
78770577,-0.57220458984375,-0.4075927734375,-0.6326904296875,-0.32598876953125,-3907,7260,-1318,-12,30,-11
78780558,-0.57080078125,-0.40478515625,-0.63494873046875,-0.32757568359375,-3995,7245,-1335,-12,30,-10
78790542,-0.5694580078125,-0.4019775390625,-0.6370849609375,-0.3291015625,-4090,7234,-1332,-12,29,-9
78800524,-0.56817626953125,-0.3992919921875,-0.63916015625,-0.3306884765625,-4168,7226,-1337,-12,28,-9
78810506,-0.56689453125,-0.39666748046875,-0.64111328125,-0.33221435546875,-4220,7202,-1343,-12,27,-7
78820489,-0.56561279296875,-0.39422607421875,-0.64300537109375,-0.333740234375,-4249,7187,-1358,-12,26,-7
78830471,-0.56439208984375,-0.391845703125,-0.64471435546875,-0.33526611328125,-4269,7164,-1361,-11,25,-7
78840454,-0.563232421875,-0.3895263671875,-0.6463623046875,-0.33673095703125,-4290,7138,-1355,-12,24,-6
78850434,-0.5621337890625,-0.38726806640625,-0.64794921875,-0.338134765625,-4313,7125,-1352,-11,23,-6
78860425,-0.56109619140625,-0.3851318359375,-0.64935302734375,-0.3394775390625,-4336,7111,-1353,-11,22,-5
78870408,-0.5601806640625,-0.383056640625,-0.65069580078125,-0.34088134765625,-4331,7097,-1338,-11,20,-5
78880392,-0.5592041015625,-0.381103515625,-0.65191650390625,-0.3421630859375,-4340,7089,-1321,-10,20,-4
78890369,-0.558349609375,-0.3792724609375,-0.653076171875,-0.343505859375,-4325,7098,-1300,-10,18,-4
78900350,-0.55755615234375,-0.37750244140625,-0.65411376953125,-0.34478759765625,-4302,7095,-1282,-10,18,-4
78910333,-0.55682373046875,-0.375732421875,-0.65509033203125,-0.34600830078125,-4261,7102,-1250,-10,16,-4
78920316,-0.55621337890625,-0.3739013671875,-0.65606689453125,-0.34710693359375,-4229,7093,-1231,-10,16,-6
78930298,-0.5556640625,-0.37213134765625,-0.65704345703125,-0.34814453125,-4217,7114,-1229,-10,15,-6
78940281,-0.55511474609375,-0.37042236328125,-0.657958984375,-0.34906005859375,-4209,7127,-1228,-9,14,-5
78950262,-0.55450439453125,-0.36883544921875,-0.6588134765625,-0.35009765625,-4195,7149,-1217,-9,14,-4
78960243,-0.553955078125,-0.367431640625,-0.65948486328125,-0.3511962890625,-4173,7146,-1202,-9,13,-2
78970235,-0.5533447265625,-0.36614990234375,-0.66009521484375,-0.35235595703125,-4132,7138,-1196,-9,13,-1
78980224,-0.55267333984375,-0.364990234375,-0.66064453125,-0.35357666015625,-4099,7120,-1180,-9,13,0
78990206,-0.552001953125,-0.3638916015625,-0.6611328125,-0.35479736328125,-4063,7124,-1169,-9,12,0
79000190,-0.55126953125,-0.3629150390625,-0.66162109375,-0.35601806640625,-4042,7138,-1168,-8,12,0
79010175,-0.5506591796875,-0.36181640625,-0.66217041015625,-0.357177734375,-4010,7129,-1176,-8,12,-1
79020154,-0.550048828125,-0.36065673828125,-0.6627197265625,-0.35821533203125,-3992,7133,-1201,-8,12,-2
79030125,-0.5494384765625,-0.3594970703125,-0.663330078125,-0.35906982421875,-3970,7145,-1225,-8,11,-3
79040107,-0.5489501953125,-0.3582763671875,-0.6639404296875,-0.35992431640625,-3980,7146,-1259,-8,11,-3
79050089,-0.5484619140625,-0.35711669921875,-0.66455078125,-0.36077880859375,-3985,7145,-1285,-8,11,-3
79060071,-0.54791259765625,-0.35601806640625,-0.6651611328125,-0.361572265625,-3983,7140,-1287,-7,10,-2
79070056,-0.54736328125,-0.35498046875,-0.6656494140625,-0.3624267578125,-3981,7120,-1290,-7,10,-2
79080036,-0.54681396484375,-0.35400390625,-0.66619873046875,-0.36328125,-3971,7108,-1297,-7,10,-1
79090020,-0.5462646484375,-0.35302734375,-0.666748046875,-0.364013671875,-3967,7099,-1299,-6,10,-2
79100002,-0.54583740234375,-0.35205078125,-0.66729736328125,-0.36468505859375,-3967,7106,-1276,-6,9,-3
79109991,-0.54547119140625,-0.35089111328125,-0.66790771484375,-0.365234375,-3968,7126,-1242,-6,9,-5
79119975,-0.54522705078125,-0.349609375,-0.66851806640625,-0.3656005859375,-3952,7143,-1232,-6,9,-7
79129951,-0.5450439453125,-0.34820556640625,-0.66925048828125,-0.36590576171875,-3955,7162,-1221,-5,9,-9
79139933,-0.54486083984375,-0.3468017578125,-0.6700439453125,-0.3660888671875,-3957,7188,-1217,-5,9,-9
79149915,-0.544677734375,-0.3453369140625,-0.6707763671875,-0.3663330078125,-3957,7221,-1222,-6,9,-10
79159899,-0.5445556640625,-0.34393310546875,-0.6715087890625,-0.36651611328125,-3965,7249,-1238,-6,8,-9
79169883,-0.54437255859375,-0.34259033203125,-0.67218017578125,-0.36688232421875,-3973,7281,-1249,-6,8,-8
79179866,-0.5440673828125,-0.3414306640625,-0.67279052734375,-0.3673095703125,-3986,7297,-1260,-6,8,-6
79189846,-0.543701171875,-0.34039306640625,-0.67327880859375,-0.367919921875,-3988,7304,-1251,-6,8,-3
79199827,-0.543212890625,-0.33953857421875,-0.6737060546875,-0.36865234375,-3981,7292,-1242,-6,9,-1
79209817,-0.5426025390625,-0.33880615234375,-0.674072265625,-0.3695068359375,-3983,7266,-1241,-6,8,0
79219797,-0.5419921875,-0.33819580078125,-0.67437744140625,-0.37042236328125,-3971,7233,-1214,-6,9,1
79229775,-0.541259765625,-0.33758544921875,-0.6746826171875,-0.37139892578125,-3959,7206,-1183,-5,9,1
79239766,-0.54058837890625,-0.33685302734375,-0.67510986328125,-0.37237548828125,-3950,7182,-1143,-5,10,1
79249750,-0.53985595703125,-0.33612060546875,-0.67559814453125,-0.37322998046875,-3938,7164,-1103,-5,11,0
79259732,-0.5391845703125,-0.33526611328125,-0.67608642578125,-0.3740234375,-3937,7160,-1072,-5,11,-1
79269707,-0.5384521484375,-0.33428955078125,-0.67669677734375,-0.374755859375,-3939,7174,-1053,-4,11,-2
79279690,-0.53778076171875,-0.3333740234375,-0.6773681640625,-0.37554931640625,-3940,7198,-1039,-4,12,-2
79289671,-0.53692626953125,-0.3323974609375,-0.67803955078125,-0.37628173828125,-3977,7235,-1048,-4,13,-2
79299654,-0.53607177734375,-0.3314208984375,-0.67877197265625,-0.3770751953125,-4006,7254,-1058,-4,13,-1
79309636,-0.53515625,-0.33050537109375,-0.67950439453125,-0.37786865234375,-4034,7277,-1061,-4,13,-1
79319626,-0.53411865234375,-0.32965087890625,-0.68023681640625,-0.37872314453125,-4056,7284,-1080,-4,14,0
79329606,-0.53302001953125,-0.328857421875,-0.680908203125,-0.37969970703125,-4048,7281,-1086,-4,14,1
79339585,-0.5318603515625,-0.328125,-0.681640625,-0.3807373046875,-4040,7284,-1094,-4,14,2
79349570,-0.53070068359375,-0.32733154296875,-0.68231201171875,-0.38177490234375,-4020,7287,-1113,-4,14,2
79359552,-0.529541015625,-0.32659912109375,-0.68304443359375,-0.38275146484375,-3986,7272,-1141,-4,15,1
79369536,-0.5283203125,-0.32574462890625,-0.683837890625,-0.3837890625,-3956,7252,-1173,-4,15,0
79379517,-0.527099609375,-0.3248291015625,-0.6846923828125,-0.38470458984375,-3911,7228,-1194,-4,15,0
79389503,-0.52593994140625,-0.32391357421875,-0.685546875,-0.38555908203125,-3887,7182,-1228,-4,15,-1
79399481,-0.524658203125,-0.32293701171875,-0.6864013671875,-0.386474609375,-3840,7174,-1259,-4,16,-1
79409463,-0.52349853515625,-0.32196044921875,-0.687255859375,-0.387451171875,-3796,7154,-1272,-4,15,-1
79419449,-0.52227783203125,-0.32098388671875,-0.6881103515625,-0.38836669921875,-3773,7151,-1309,-4,15,-1
79429434,-0.52105712890625,-0.32000732421875,-0.68896484375,-0.3892822265625,-3754,7168,-1335,-5,15,-2
79439416,-0.5198974609375,-0.31884765625,-0.68988037109375,-0.39019775390625,-3745,7176,-1355,-5,15,-2
79449399,-0.518798828125,-0.317626953125,-0.69073486328125,-0.39111328125,-3724,7190,-1351,-5,16,-4
79459376,-0.517822265625,-0.316162109375,-0.69171142578125,-0.39190673828125,-3722,7196,-1347,-6,16,-5
79469359,-0.516845703125,-0.31463623046875,-0.69268798828125,-0.3927001953125,-3728,7207,-1352,-6,16,-6
79479342,-0.51593017578125,-0.31298828125,-0.69366455078125,-0.3934326171875,-3738,7217,-1351,-7,16,-7
79489325,-0.51507568359375,-0.311279296875,-0.69464111328125,-0.39422607421875,-3750,7230,-1346,-7,16,-8
79499306,-0.51422119140625,-0.3094482421875,-0.69561767578125,-0.39501953125,-3769,7253,-1353,-7,16,-7
79509293,-0.51336669921875,-0.3076171875,-0.69659423828125,-0.39593505859375,-3787,7280,-1353,-8,17,-8
79519273,-0.512451171875,-0.3057861328125,-0.697509765625,-0.39678955078125,-3824,7310,-1359,-8,17,-7
79529256,-0.5115966796875,-0.303955078125,-0.6983642578125,-0.3978271484375,-3854,7336,-1361,-9,17,-6
79539237,-0.51055908203125,-0.30224609375,-0.69921875,-0.39892578125,-3882,7358,-1361,-9,17,-5
79549227,-0.509521484375,-0.300537109375,-0.70001220703125,-0.40020751953125,-3909,7381,-1350,-9,17,-3
79559210,-0.5084228515625,-0.2989501953125,-0.70074462890625,-0.40155029296875,-3925,7401,-1340,-10,18,-2
79569189,-0.50726318359375,-0.29736328125,-0.701416015625,-0.40301513671875,-3955,7395,-1326,-10,18,-1
79579181,-0.506103515625,-0.29583740234375,-0.7020263671875,-0.404541015625,-3976,7388,-1319,-11,18,-1
79589162,-0.50494384765625,-0.294189453125,-0.70263671875,-0.40606689453125,-3987,7372,-1332,-11,18,-1
79599139,-0.50384521484375,-0.29248046875,-0.70330810546875,-0.4075927734375,-3983,7342,-1331,-11,18,-2
79609117,-0.502685546875,-0.29071044921875,-0.7039794921875,-0.40899658203125,-3981,7310,-1333,-11,18,-3
79619098,-0.5015869140625,-0.28887939453125,-0.70465087890625,-0.4105224609375,-3974,7266,-1339,-11,18,-3
79629083,-0.50048828125,-0.28717041015625,-0.705322265625,-0.4119873046875,-3976,7217,-1347,-12,18,-2
79639064,-0.49932861328125,-0.28546142578125,-0.7059326171875,-0.4134521484375,-3968,7165,-1344,-11,18,-1
79649051,-0.49810791015625,-0.28387451171875,-0.70648193359375,-0.4150390625,-3972,7128,-1340,-11,18,0
79659031,-0.4969482421875,-0.28228759765625,-0.70709228515625,-0.41656494140625,-3963,7092,-1333,-11,18,0
79669012,-0.495849609375,-0.2806396484375,-0.70770263671875,-0.41796875,-3966,7072,-1322,-11,18,-1
79678996,-0.49481201171875,-0.2789306640625,-0.70831298828125,-0.4193115234375,-3972,7061,-1330,-11,17,-2
79688983,-0.49383544921875,-0.277099609375,-0.708984375,-0.42047119140625,-3973,7057,-1329,-10,17,-4
79698959,-0.49298095703125,-0.27520751953125,-0.70965576171875,-0.421630859375,-3986,7065,-1319,-10,16,-5
79708945,-0.49212646484375,-0.2733154296875,-0.71038818359375,-0.422607421875,-4006,7073,-1309,-9,16,-6
79718926,-0.49139404296875,-0.2713623046875,-0.7110595703125,-0.42352294921875,-4025,7098,-1311,-9,16,-6
79728911,-0.49066162109375,-0.26947021484375,-0.71173095703125,-0.4244384765625,-4045,7120,-1294,-9,15,-6
79738892,-0.489990234375,-0.267578125,-0.71240234375,-0.42535400390625,-4059,7147,-1265,-9,15,-7
79748878,-0.48931884765625,-0.26568603515625,-0.7130126953125,-0.42620849609375,-4062,7184,-1259,-9,15,-6
79758858,-0.48870849609375,-0.2637939453125,-0.713623046875,-0.4271240234375,-4062,7197,-1246,-9,14,-7
79768840,-0.48797607421875,-0.261962890625,-0.7142333984375,-0.427978515625,-4044,7212,-1227,-9,15,-6
79778822,-0.4873046875,-0.26025390625,-0.71484375,-0.428955078125,-4030,7221,-1213,-9,14,-5
79788804,-0.48651123046875,-0.258544921875,-0.71539306640625,-0.429931640625,-4010,7232,-1204,-9,15,-5
79798789,-0.48565673828125,-0.25689697265625,-0.71588134765625,-0.430908203125,-3993,7238,-1190,-9,15,-4
79808770,-0.48480224609375,-0.25537109375,-0.7164306640625,-0.43194580078125,-3978,7240,-1176,-8,15,-4
79818758,-0.48394775390625,-0.25384521484375,-0.7169189453125,-0.43304443359375,-3942,7247,-1180,-9,15,-3
79828743,-0.4830322265625,-0.2523193359375,-0.7174072265625,-0.43408203125,-3924,7232,-1174,-8,15,-3
79838717,-0.482177734375,-0.250732421875,-0.7178955078125,-0.4351806640625,-3913,7242,-1169,-9,15,-4
79848703,-0.48126220703125,-0.24920654296875,-0.718505859375,-0.4361572265625,-3926,7227,-1184,-8,15,-4
79858682,-0.48040771484375,-0.24755859375,-0.718994140625,-0.43707275390625,-3937,7219,-1174,-9,14,-5
79868666,-0.4796142578125,-0.24591064453125,-0.71954345703125,-0.43804931640625,-3941,7205,-1188,-8,14,-4
79878649,-0.47882080078125,-0.24432373046875,-0.72003173828125,-0.43890380859375,-3966,7205,-1200,-8,14,-4
79888636,-0.47802734375,-0.2427978515625,-0.7205810546875,-0.4398193359375,-3980,7203,-1203,-8,14,-4
79898614,-0.4771728515625,-0.24139404296875,-0.72100830078125,-0.4407958984375,-3999,7200,-1214,-8,13,-3
79908596,-0.47637939453125,-0.239990234375,-0.721435546875,-0.441650390625,-4023,7190,-1218,-8,13,-3
79918579,-0.47564697265625,-0.23870849609375,-0.72186279296875,-0.4425048828125,-4060,7170,-1217,-7,12,-2
79928563,-0.4749755859375,-0.2374267578125,-0.72222900390625,-0.443359375,-4072,7150,-1212,-8,11,-2
79938545,-0.47430419921875,-0.2362060546875,-0.72259521484375,-0.444091796875,-4101,7146,-1232,-7,11,-2
79948525,-0.47369384765625,-0.23504638671875,-0.722900390625,-0.44482421875,-4122,7144,-1246,-7,10,-2
79958507,-0.47308349609375,-0.2340087890625,-0.72320556640625,-0.44549560546875,-4136,7143,-1248,-6,9,-2
79968490,-0.47259521484375,-0.23309326171875,-0.72344970703125,-0.4461669921875,-4140,7137,-1248,-6,8,-1
79978475,-0.47210693359375,-0.232177734375,-0.72369384765625,-0.44677734375,-4143,7124,-1247,-5,8,-1
79988455,-0.47161865234375,-0.2314453125,-0.723876953125,-0.44732666015625,-4129,7129,-1242,-5,7,-1
79998435,-0.47119140625,-0.230712890625,-0.72406005859375,-0.4478759765625,-4109,7121,-1237,-5,6,-1
80008433,-0.47076416015625,-0.23016357421875,-0.7242431640625,-0.4483642578125,-4083,7110,-1229,-4,6,0
80018411,-0.47039794921875,-0.2296142578125,-0.72430419921875,-0.4488525390625,-4067,7114,-1204,-4,5,0
80028392,-0.4700927734375,-0.2291259765625,-0.72442626953125,-0.44927978515625,-4045,7110,-1190,-3,5,0
80038373,-0.4697265625,-0.22869873046875,-0.7244873046875,-0.44970703125,-4032,7135,-1173,-3,5,0
80048356,-0.46942138671875,-0.22833251953125,-0.724609375,-0.4500732421875,-4020,7157,-1181,-3,4,0
80058339,-0.46917724609375,-0.22796630859375,-0.7247314453125,-0.45037841796875,-4002,7179,-1179,-2,4,-1
80070995,-0.46893310546875,-0.22760009765625,-0.72479248046875,-0.45062255859375,-3985,7192,-1168,-2,3,-1
80078302,-0.46875,-0.2271728515625,-0.72491455078125,-0.4508056640625,-3963,7216,-1148,-3,3,-2
80088282,-0.4686279296875,-0.226806640625,-0.72503662109375,-0.4510498046875,-3948,7228,-1142,-2,3,-2
80098264,-0.468505859375,-0.22637939453125,-0.72509765625,-0.45123291015625,-3943,7228,-1136,-2,3,-2
80108243,-0.46832275390625,-0.22601318359375,-0.7252197265625,-0.45135498046875,-3936,7223,-1132,-2,3,-2
80118236,-0.46820068359375,-0.2257080078125,-0.72528076171875,-0.4515380859375,-3927,7217,-1130,-2,2,-1
80128219,-0.468017578125,-0.22540283203125,-0.72540283203125,-0.45172119140625,-3929,7209,-1135,-1,3,-1
80138196,-0.46783447265625,-0.22515869140625,-0.7254638671875,-0.451904296875,-3946,7205,-1143,-1,2,-1
80148189,-0.4676513671875,-0.22491455078125,-0.7255859375,-0.4520263671875,-3964,7208,-1151,-1,2,-1
80158176,-0.467529296875,-0.2247314453125,-0.72564697265625,-0.45220947265625,-3991,7207,-1152,-1,2,0
80168159,-0.46746826171875,-0.2244873046875,-0.72564697265625,-0.45233154296875,-4027,7196,-1155,-1,1,-1
80178122,-0.4674072265625,-0.22430419921875,-0.7257080078125,-0.452392578125,-4054,7202,-1165,-1,1,-1
80188104,-0.4674072265625,-0.22418212890625,-0.72576904296875,-0.45245361328125,-4072,7197,-1169,-1,0,-1
80198088,-0.4674072265625,-0.22393798828125,-0.72576904296875,-0.45245361328125,-4096,7193,-1162,-1,0,-1
80208069,-0.467529296875,-0.22381591796875,-0.72576904296875,-0.4525146484375,-4104,7193,-1172,-1,0,-1
80218055,-0.46759033203125,-0.22369384765625,-0.72576904296875,-0.45245361328125,-4112,7177,-1172,-1,-1,-1
80228051,-0.46771240234375,-0.2236328125,-0.7257080078125,-0.452392578125,-4117,7164,-1186,0,-1,0
80238026,-0.4677734375,-0.22369384765625,-0.72564697265625,-0.452392578125,-4124,7153,-1181,0,-2,1
80248006,-0.46795654296875,-0.22381591796875,-0.72552490234375,-0.45245361328125,-4144,7152,-1174,-1,-2,1
80257996,-0.46807861328125,-0.22406005859375,-0.725341796875,-0.45245361328125,-4144,7157,-1188,0,-2,2
80267976,-0.4681396484375,-0.22430419921875,-0.7252197265625,-0.45245361328125,-4136,7162,-1197,0,-2,1
80277954,-0.46832275390625,-0.224609375,-0.72503662109375,-0.452392578125,-4131,7158,-1205,0,-3,2
80287933,-0.468505859375,-0.22491455078125,-0.724853515625,-0.452392578125,-4101,7155,-1203,0,-3,1
80297916,-0.46868896484375,-0.22515869140625,-0.72467041015625,-0.45233154296875,-4085,7153,-1205,0,-3,1
80307898,-0.46893310546875,-0.2254638671875,-0.7244873046875,-0.4522705078125,-4057,7161,-1214,0,-4,1
80317881,-0.4691162109375,-0.225830078125,-0.72430419921875,-0.45220947265625,-4042,7165,-1222,0,-4,1
80327863,-0.46929931640625,-0.2261962890625,-0.72412109375,-0.45208740234375,-4003,7152,-1228,0,-4,1
80337847,-0.46942138671875,-0.22662353515625,-0.723876953125,-0.4520263671875,-3984,7156,-1232,0,-4,2
80347829,-0.4696044921875,-0.22705078125,-0.72369384765625,-0.45196533203125,-3975,7174,-1243,0,-4,2
80357812,-0.46978759765625,-0.22747802734375,-0.7235107421875,-0.451904296875,-3954,7177,-1251,1,-4,1
80367796,-0.46990966796875,-0.22784423828125,-0.72332763671875,-0.45184326171875,-3938,7181,-1259,0,-4,1
80377774,-0.4700927734375,-0.228271484375,-0.72314453125,-0.45172119140625,-3926,7193,-1268,1,-4,1
80387765,-0.47021484375,-0.22857666015625,-0.7230224609375,-0.45166015625,-3908,7203,-1276,0,-4,0
80397748,-0.47039794921875,-0.22882080078125,-0.722900390625,-0.45147705078125,-3898,7214,-1280,1,-3,0
80407725,-0.4705810546875,-0.22900390625,-0.72283935546875,-0.45135498046875,-3898,7207,-1276,0,-3,0
80417708,-0.470703125,-0.229248046875,-0.7227783203125,-0.45123291015625,-3883,7209,-1273,0,-3,-1
80427689,-0.4708251953125,-0.2293701171875,-0.72271728515625,-0.45111083984375,-3874,7198,-1266,1,-2,-1
80437673,-0.47100830078125,-0.2294921875,-0.72265625,-0.450927734375,-3882,7203,-1266,0,-3,-1
80447653,-0.47113037109375,-0.2296142578125,-0.72265625,-0.4508056640625,-3886,7219,-1259,1,-2,-1
80457636,-0.47125244140625,-0.22979736328125,-0.72259521484375,-0.45062255859375,-3888,7216,-1256,1,-2,-1
80467618,-0.4713134765625,-0.2298583984375,-0.72259521484375,-0.45050048828125,-3887,7215,-1257,1,-2,-1
80477601,-0.47137451171875,-0.22998046875,-0.72259521484375,-0.45037841796875,-3891,7213,-1255,1,-2,-1
80487584,-0.47149658203125,-0.23004150390625,-0.72265625,-0.4501953125,-3915,7218,-1265,1,-2,-1
80497566,-0.4715576171875,-0.2301025390625,-0.72265625,-0.45001220703125,-3931,7208,-1256,1,-1,-1
80507548,-0.4716796875,-0.23016357421875,-0.72265625,-0.44989013671875,-3939,7214,-1256,0,-2,-1
80517531,-0.47174072265625,-0.23016357421875,-0.72271728515625,-0.44976806640625,-3954,7218,-1256,1,-1,-1
80527521,-0.47174072265625,-0.230224609375,-0.72271728515625,-0.44970703125,-3972,7222,-1255,0,-1,0
80537498,-0.47186279296875,-0.230224609375,-0.72271728515625,-0.44964599609375,-3985,7225,-1239,0,-1,-1
80547479,-0.47186279296875,-0.230224609375,-0.72271728515625,-0.4495849609375,-3986,7223,-1235,0,-1,-1
80557462,-0.47198486328125,-0.230224609375,-0.72271728515625,-0.44952392578125,-3990,7220,-1216,0,-1,-1
80567449,-0.47198486328125,-0.23016357421875,-0.72271728515625,-0.449462890625,-3987,7220,-1220,0,0,-1
80577434,-0.4720458984375,-0.2301025390625,-0.72271728515625,-0.449462890625,-3997,7219,-1217,0,0,-1
80587419,-0.47210693359375,-0.23004150390625,-0.72271728515625,-0.44940185546875,-4008,7217,-1221,-1,-1,-1
80597397,-0.47216796875,-0.22998046875,-0.72271728515625,-0.4493408203125,-4017,7217,-1218,-1,-1,-1
80607372,-0.47222900390625,-0.22991943359375,-0.72271728515625,-0.4493408203125,-4018,7218,-1232,-1,-1,-1
80617362,-0.4722900390625,-0.22979736328125,-0.72271728515625,-0.44927978515625,-4013,7203,-1239,-1,0,-1
80627340,-0.47235107421875,-0.229736328125,-0.72271728515625,-0.44927978515625,-4013,7192,-1235,-1,0,-1
80637325,-0.472412109375,-0.22967529296875,-0.72271728515625,-0.44927978515625,-4014,7181,-1249,-1,-1,-1
80647309,-0.472412109375,-0.2296142578125,-0.72271728515625,-0.44927978515625,-4004,7171,-1246,-1,0,-1
80657296,-0.47247314453125,-0.2296142578125,-0.72271728515625,-0.4493408203125,-4001,7182,-1253,-1,-1,-1
80667273,-0.47247314453125,-0.2296142578125,-0.72265625,-0.4493408203125,-4013,7188,-1261,-1,-1,0
80677256,-0.47247314453125,-0.2296142578125,-0.72265625,-0.44940185546875,-4021,7205,-1278,-1,-1,0
80687240,-0.47247314453125,-0.22955322265625,-0.72259521484375,-0.449462890625,-4008,7210,-1275,-1,-1,0
80697228,-0.4725341796875,-0.22955322265625,-0.72259521484375,-0.449462890625,-4012,7210,-1259,-1,-1,-1
80707209,-0.4725341796875,-0.22955322265625,-0.7225341796875,-0.44952392578125,-4000,7222,-1263,-1,-1,0
80717194,-0.4725341796875,-0.2294921875,-0.7225341796875,-0.4495849609375,-3986,7213,-1260,-1,0,-1
80727179,-0.47247314453125,-0.22943115234375,-0.7225341796875,-0.44964599609375,-3965,7208,-1266,-1,0,-1
80737161,-0.472412109375,-0.2293701171875,-0.7225341796875,-0.44970703125,-3938,7203,-1265,-1,0,-1
80747130,-0.472412109375,-0.22930908203125,-0.7225341796875,-0.44976806640625,-3918,7214,-1259,-1,0,-1
80757115,-0.47235107421875,-0.229248046875,-0.7225341796875,-0.44989013671875,-3914,7203,-1268,-1,0,-1
80767097,-0.4722900390625,-0.22918701171875,-0.72259521484375,-0.44989013671875,-3914,7210,-1266,-1,0,-1
80777083,-0.47216796875,-0.2291259765625,-0.72259521484375,-0.45001220703125,-3915,7206,-1255,-1,0,0
80787064,-0.47210693359375,-0.22900390625,-0.72259521484375,-0.4500732421875,-3916,7206,-1243,-1,0,-1
80797051,-0.4720458984375,-0.2288818359375,-0.72265625,-0.45013427734375,-3920,7194,-1241,-1,1,-1
80807028,-0.4720458984375,-0.22869873046875,-0.72271728515625,-0.4501953125,-3928,7187,-1223,-1,1,-2
80817012,-0.47198486328125,-0.22845458984375,-0.72283935546875,-0.4501953125,-3946,7184,-1214,-1,1,-2
80826996,-0.471923828125,-0.22821044921875,-0.722900390625,-0.45025634765625,-3956,7189,-1205,-1,1,-1
80836981,-0.47186279296875,-0.22796630859375,-0.7230224609375,-0.45025634765625,-3972,7203,-1200,-1,1,-2
80846958,-0.4718017578125,-0.22772216796875,-0.72308349609375,-0.4503173828125,-3985,7210,-1198,-1,1,-1
80856941,-0.47174072265625,-0.2275390625,-0.72314453125,-0.45037841796875,-4012,7209,-1197,-1,1,-1
80866924,-0.4716796875,-0.22735595703125,-0.72320556640625,-0.450439453125,-4025,7222,-1209,-1,1,-1
80876907,-0.47161865234375,-0.2271728515625,-0.7232666015625,-0.450439453125,-4042,7218,-1220,-1,1,-1
80886887,-0.4715576171875,-0.22705078125,-0.723388671875,-0.45050048828125,-4037,7207,-1228,-1,1,-1
80896870,-0.47149658203125,-0.22686767578125,-0.72344970703125,-0.45050048828125,-4037,7200,-1243,-1,1,-1
80906852,-0.47137451171875,-0.226806640625,-0.7235107421875,-0.4505615234375,-4026,7192,-1242,-1,1,-1
80916837,-0.4713134765625,-0.2266845703125,-0.72357177734375,-0.4505615234375,-4031,7187,-1250,-1,1,-1
80926823,-0.47125244140625,-0.22662353515625,-0.7236328125,-0.45062255859375,-4029,7172,-1251,-1,0,0
80936806,-0.47119140625,-0.22650146484375,-0.72369384765625,-0.45062255859375,-4020,7166,-1249,0,0,-1
80946786,-0.47119140625,-0.2264404296875,-0.7237548828125,-0.4505615234375,-4017,7150,-1252,0,0,-1
80956767,-0.47119140625,-0.226318359375,-0.72381591796875,-0.45050048828125,-4018,7136,-1250,0,0,-1
80966758,-0.47119140625,-0.2261962890625,-0.72393798828125,-0.45037841796875,-3999,7126,-1246,0,0,-2
80976740,-0.47125244140625,-0.22601318359375,-0.72406005859375,-0.45025634765625,-3987,7112,-1254,0,0,-2
80986718,-0.4713134765625,-0.225830078125,-0.72418212890625,-0.4500732421875,-3987,7108,-1249,0,0,-3
80996697,-0.47137451171875,-0.2257080078125,-0.72430419921875,-0.44989013671875,-3986,7114,-1244,0,0,-3
81006681,-0.47137451171875,-0.22552490234375,-0.72442626953125,-0.44964599609375,-3995,7123,-1248,1,0,-3
81016663,-0.471435546875,-0.225341796875,-0.724609375,-0.449462890625,-3994,7140,-1241,0,0,-3
81026647,-0.4715576171875,-0.22515869140625,-0.7247314453125,-0.44927978515625,-3993,7159,-1233,1,0,-3
81036629,-0.47161865234375,-0.22491455078125,-0.724853515625,-0.4490966796875,-4015,7182,-1213,0,0,-3
81046613,-0.47174072265625,-0.22467041015625,-0.7249755859375,-0.44891357421875,-4021,7189,-1213,0,0,-3
