subject,Joshua Spiesman
arm,left
label,1
hz,100.17426073696399
time,5.650154

timestamp_us,q0,q1,q2,q3,ax,ay,az,gx,gy,gz
89152492,-0.40045166015625,0.18365478515625,-0.71392822265625,-0.5443115234375,-6224,5417,-669,-8,0,-5
89162469,-0.40032958984375,0.1844482421875,-0.71337890625,-0.54486083984375,-6233,5421,-654,-9,1,-5
89172452,-0.400146484375,0.185302734375,-0.71270751953125,-0.54559326171875,-6243,5431,-646,-11,2,-4
89182431,-0.3997802734375,0.186279296875,-0.7120361328125,-0.54644775390625,-6251,5404,-627,-12,3,-4
89192425,-0.3992919921875,0.18731689453125,-0.7113037109375,-0.54736328125,-6259,5352,-602,-13,4,-3
89202406,-0.39874267578125,0.18853759765625,-0.7105712890625,-0.54833984375,-6268,5274,-576,-14,4,-3
89212381,-0.39813232421875,0.18988037109375,-0.70977783203125,-0.54931640625,-6282,5181,-538,-15,5,-3
89222365,-0.39764404296875,0.19134521484375,-0.7088623046875,-0.55035400390625,-6299,5083,-492,-15,6,-4
89232350,-0.39715576171875,0.19293212890625,-0.7080078125,-0.55126953125,-6320,5006,-453,-15,6,-5
89242330,-0.39666748046875,0.19464111328125,-0.70709228515625,-0.5521240234375,-6338,4954,-430,-15,6,-6
89252312,-0.39617919921875,0.1962890625,-0.70623779296875,-0.552978515625,-6378,4939,-429,-15,6,-5
89262295,-0.39569091796875,0.19793701171875,-0.7054443359375,-0.55377197265625,-6433,4926,-431,-14,7,-5
89272278,-0.39520263671875,0.19952392578125,-0.7047119140625,-0.5545654296875,-6503,4928,-457,-14,6,-4
89282261,-0.3946533203125,0.20098876953125,-0.7039794921875,-0.5552978515625,-6600,4932,-517,-14,6,-3
89292242,-0.39404296875,0.20233154296875,-0.703369140625,-0.5560302734375,-6670,4952,-562,-13,5,-3
89302233,-0.3935546875,0.20367431640625,-0.7027587890625,-0.55670166015625,-6721,4954,-619,-13,5,-4
89312216,-0.3931884765625,0.2052001953125,-0.7020263671875,-0.5572509765625,-6722,4940,-659,-12,5,-6
89322195,-0.39306640625,0.20684814453125,-0.7012939453125,-0.5576171875,-6694,4928,-685,-12,4,-9
89332186,-0.39324951171875,0.208740234375,-0.700439453125,-0.557861328125,-6677,4896,-698,-12,4,-12
89342174,-0.3936767578125,0.2108154296875,-0.69952392578125,-0.5579833984375,-6648,4849,-693,-11,3,-15
89352145,-0.39422607421875,0.212890625,-0.6986083984375,-0.5579833984375,-6625,4824,-679,-11,2,-15
89362123,-0.394775390625,0.21484375,-0.6976318359375,-0.5579833984375,-6612,4802,-636,-10,2,-15
89372106,-0.39520263671875,0.216552734375,-0.69677734375,-0.55810546875,-6628,4807,-623,-9,2,-12
89382086,-0.39544677734375,0.2178955078125,-0.69610595703125,-0.55828857421875,-6628,4812,-596,-9,1,-8
89392071,-0.3955078125,0.21881103515625,-0.69549560546875,-0.55865478515625,-6649,4837,-581,-8,1,-4
89402062,-0.395263671875,0.21929931640625,-0.695068359375,-0.55914306640625,-6673,4869,-580,-7,1,0
89412035,-0.39471435546875,0.21942138671875,-0.69476318359375,-0.55987548828125,-6692,4886,-589,-7,0,5
89422019,-0.39404296875,0.21917724609375,-0.694580078125,-0.5606689453125,-6696,4899,-604,-7,0,7
89432004,-0.39324951171875,0.21875,-0.6944580078125,-0.56158447265625,-6718,4920,-619,-6,-1,9
89441988,-0.3924560546875,0.2181396484375,-0.6943359375,-0.56243896484375,-6725,4956,-641,-6,-1,10
89451967,-0.3917236328125,0.217529296875,-0.69427490234375,-0.56329345703125,-6743,4980,-645,-5,-2,9
89461950,-0.39117431640625,0.21697998046875,-0.69415283203125,-0.56402587890625,-6748,5012,-648,-5,-2,8
89471932,-0.39080810546875,0.21649169921875,-0.6939697265625,-0.564697265625,-6757,5044,-618,-4,-3,6
89481919,-0.39068603515625,0.21612548828125,-0.6937255859375,-0.565185546875,-6733,5075,-614,-3,-4,3
89491899,-0.39080810546875,0.2158203125,-0.6934814453125,-0.5655517578125,-6713,5112,-597,-3,-4,0
89501881,-0.39117431640625,0.2156982421875,-0.69317626953125,-0.56573486328125,-6658,5130,-593,-2,-5,-2
89511860,-0.391845703125,0.2158203125,-0.69281005859375,-0.565673828125,-6603,5123,-588,-1,-5,-6
89521847,-0.392822265625,0.216064453125,-0.69244384765625,-0.56536865234375,-6540,5092,-589,0,-6,-9
89531827,-0.39398193359375,0.21636962890625,-0.6920166015625,-0.56494140625,-6465,5057,-573,1,-7,-10
89541809,-0.395263671875,0.21661376953125,-0.69158935546875,-0.56451416015625,-6405,5013,-568,2,-8,-10
89551791,-0.396484375,0.21661376953125,-0.6912841796875,-0.56402587890625,-6344,4974,-563,3,-8,-8
89561771,-0.39764404296875,0.21630859375,-0.6910400390625,-0.5635986328125,-6306,4936,-552,4,-9,-5
89571764,-0.39849853515625,0.21551513671875,-0.6910400390625,-0.56329345703125,-6264,4935,-554,5,-9,-1
89581750,-0.39910888671875,0.2142333984375,-0.691162109375,-0.56317138671875,-6224,4947,-550,6,-10,4
89591725,-0.3994140625,0.2125244140625,-0.6915283203125,-0.563232421875,-6196,4985,-555,7,-10,8
89601706,-0.39947509765625,0.21038818359375,-0.6920166015625,-0.5633544921875,-6167,5027,-569,8,-10,12
89611690,-0.3994140625,0.2080078125,-0.69256591796875,-0.5635986328125,-6152,5069,-578,8,-10,15
89621672,-0.399169921875,0.2054443359375,-0.69317626953125,-0.56396484375,-6157,5125,-593,8,-11,16
89631654,-0.39886474609375,0.20281982421875,-0.69384765625,-0.56427001953125,-6164,5178,-593,8,-10,17
89641636,-0.3985595703125,0.20013427734375,-0.69451904296875,-0.56463623046875,-6168,5233,-605,8,-11,17
89651622,-0.39825439453125,0.197509765625,-0.6951904296875,-0.56494140625,-6195,5298,-602,8,-10,17
89661601,-0.39794921875,0.1949462890625,-0.69580078125,-0.5653076171875,-6204,5370,-582,8,-9,16
89671585,-0.39764404296875,0.19256591796875,-0.6964111328125,-0.5655517578125,-6223,5445,-566,8,-9,15
89681568,-0.39739990234375,0.19024658203125,-0.69696044921875,-0.56591796875,-6244,5513,-539,7,-8,14
89691550,-0.3970947265625,0.1881103515625,-0.69744873046875,-0.56622314453125,-6255,5580,-509,6,-8,13
89701533,-0.3968505859375,0.18621826171875,-0.6978759765625,-0.5665283203125,-6266,5645,-462,6,-7,11
89711516,-0.39666748046875,0.1845703125,-0.69818115234375,-0.5667724609375,-6279,5690,-405,4,-6,9
89721497,-0.39654541015625,0.18328857421875,-0.6983642578125,-0.5670166015625,-6281,5706,-358,3,-5,6
89731479,-0.3966064453125,0.18231201171875,-0.698486328125,-0.567138671875,-6273,5705,-289,3,-4,4
89741466,-0.39666748046875,0.181640625,-0.69854736328125,-0.5672607421875,-6270,5699,-260,2,-3,2
89751449,-0.396728515625,0.18121337890625,-0.69854736328125,-0.5673828125,-6299,5669,-230,1,-2,1
89761438,-0.39678955078125,0.180908203125,-0.698486328125,-0.56744384765625,-6322,5622,-186,0,-1,1
89771421,-0.3968505859375,0.1807861328125,-0.69842529296875,-0.5675048828125,-6340,5565,-138,0,-1,0
89781406,-0.39697265625,0.1807861328125,-0.69830322265625,-0.567626953125,-6357,5501,-77,0,-1,-1
89791396,-0.3970947265625,0.180908203125,-0.69818115234375,-0.567626953125,-6367,5436,-37,0,0,-2
89801364,-0.39739990234375,0.18121337890625,-0.69793701171875,-0.567626953125,-6366,5376,-13,-1,0,-4
89811350,-0.39776611328125,0.181640625,-0.69769287109375,-0.5675048828125,-6370,5327,10,-1,0,-5
89821330,-0.39825439453125,0.18212890625,-0.69744873046875,-0.5673828125,-6387,5279,19,-1,-1,-6
89831307,-0.39874267578125,0.18267822265625,-0.6971435546875,-0.56719970703125,-6394,5243,15,-1,-1,-6
89841297,-0.39923095703125,0.1829833984375,-0.6968994140625,-0.5670166015625,-6403,5210,0,0,-2,-4
89851273,-0.39959716796875,0.18304443359375,-0.69671630859375,-0.5670166015625,-6415,5189,0,0,-2,-2
89861264,-0.39990234375,0.182861328125,-0.696533203125,-0.56707763671875,-6433,5187,-3,0,-3,1
89871241,-0.40008544921875,0.18243408203125,-0.6964111328125,-0.5672607421875,-6444,5205,-21,0,-4,2
89881231,-0.4002685546875,0.18182373046875,-0.6962890625,-0.5675048828125,-6439,5243,-60,1,-5,3
89891208,-0.400390625,0.18115234375,-0.6961669921875,-0.5677490234375,-6433,5289,-94,0,-6,3
89901189,-0.40069580078125,0.18048095703125,-0.69598388671875,-0.56793212890625,-6411,5314,-121,0,-6,2
89911180,-0.40106201171875,0.17987060546875,-0.69573974609375,-0.56817626953125,-6377,5323,-140,0,-7,1
89921162,-0.40155029296875,0.1793212890625,-0.6954345703125,-0.568359375,-6361,5330,-150,0,-7,0
89931141,-0.40216064453125,0.17889404296875,-0.695068359375,-0.5684814453125,-6357,5350,-162,-1,-7,-1
89941120,-0.4027099609375,0.17840576171875,-0.69476318359375,-0.56866455078125,-6367,5381,-173,-1,-8,0
89951097,-0.4031982421875,0.1778564453125,-0.69439697265625,-0.5689697265625,-6366,5426,-202,-1,-7,1
89961079,-0.40350341796875,0.17730712890625,-0.694091796875,-0.56927490234375,-6343,5466,-229,-2,-7,1
89971062,-0.40380859375,0.17681884765625,-0.69378662109375,-0.56964111328125,-6282,5502,-275,-2,-6,0
89981051,-0.40411376953125,0.17657470703125,-0.69342041015625,-0.56988525390625,-6212,5507,-310,-3,-6,-2
89991025,-0.40447998046875,0.17657470703125,-0.6929931640625,-0.57012939453125,-6154,5484,-331,-4,-5,-4
90001006,-0.4049072265625,0.1767578125,-0.6925048828125,-0.57037353515625,-6137,5454,-328,-4,-4,-4
90010996,-0.4051513671875,0.1771240234375,-0.69207763671875,-0.57061767578125,-6158,5425,-333,-5,-3,-4
90020982,-0.40521240234375,0.17742919921875,-0.691650390625,-0.57098388671875,-6193,5428,-345,-6,-2,-1
90030964,-0.40496826171875,0.17767333984375,-0.6912841796875,-0.571533203125,-6206,5422,-369,-7,0,1
90040942,-0.404541015625,0.17803955078125,-0.69091796875,-0.5721435546875,-6195,5403,-401,-8,0,0
90050925,-0.4041748046875,0.17864990234375,-0.6905517578125,-0.57269287109375,-6163,5362,-417,-9,2,-2
90060905,-0.4039306640625,0.1795654296875,-0.6900634765625,-0.57318115234375,-6130,5310,-412,-10,2,-4
90070887,-0.4036865234375,0.18072509765625,-0.68951416015625,-0.5736083984375,-6146,5238,-367,-10,4,-5
90080871,-0.4034423828125,0.18194580078125,-0.68890380859375,-0.57415771484375,-6252,5190,-308,-11,4,-4
90090860,-0.40289306640625,0.1829833984375,-0.68841552734375,-0.5748291015625,-6424,5185,-243,-11,5,1
90100838,-0.40191650390625,0.18359375,-0.68798828125,-0.5758056640625,-6631,5208,-192,-12,5,6
90110818,-0.40069580078125,0.1839599609375,-0.68756103515625,-0.5770263671875,-6851,5245,-138,-12,5,10
90120800,-0.39947509765625,0.18426513671875,-0.6871337890625,-0.5782470703125,-7043,5248,-100,-12,5,10
90130786,-0.39849853515625,0.18499755859375,-0.68658447265625,-0.57940673828125,-7228,5246,-51,-13,5,6
90140768,-0.39801025390625,0.18621826171875,-0.685791015625,-0.58026123046875,-7455,5262,14,-13,5,-1
90150754,-0.39813232421875,0.1881103515625,-0.68475341796875,-0.58074951171875,-7728,5264,103,-13,5,-8
90160736,-0.39886474609375,0.190673828125,-0.6834716796875,-0.5809326171875,-8105,5256,191,-13,4,-15
90170713,-0.400146484375,0.19384765625,-0.68206787109375,-0.5806884765625,-8562,5218,273,-13,4,-20
90180697,-0.4019775390625,0.1973876953125,-0.6805419921875,-0.58001708984375,-9001,5120,349,-11,4,-25
90190679,-0.4041748046875,0.20135498046875,-0.67901611328125,-0.57891845703125,-9365,4945,401,-9,5,-29
90200660,-0.4068603515625,0.20574951171875,-0.67755126953125,-0.57720947265625,-9624,4651,407,-6,5,-35
90210644,-0.41021728515625,0.21087646484375,-0.67608642578125,-0.57470703125,-9796,4219,402,-3,6,-44
90220636,-0.41424560546875,0.21673583984375,-0.6746826171875,-0.57122802734375,-9903,3767,400,1,8,-53
90230611,-0.4189453125,0.2232666015625,-0.67333984375,-0.56683349609375,-10028,3355,410,5,9,-63
90240598,-0.42431640625,0.23046875,-0.67193603515625,-0.56158447265625,-10183,3026,393,9,10,-71
90250581,-0.43023681640625,0.238037109375,-0.67059326171875,-0.5555419921875,-10395,2787,349,13,10,-78
90260562,-0.43646240234375,0.245849609375,-0.669189453125,-0.5489501953125,-10642,2630,263,15,9,-83
90270544,-0.44317626953125,0.25390625,-0.66766357421875,-0.541748046875,-10909,2523,163,17,9,-90
90280528,-0.45037841796875,0.26239013671875,-0.66583251953125,-0.533935546875,-11185,2457,79,19,8,-99
90290510,-0.45819091796875,0.27142333984375,-0.66357421875,-0.52545166015625,-11523,2508,-11,19,6,-109
90300493,-0.46661376953125,0.281005859375,-0.66082763671875,-0.51641845703125,-11940,2629,-79,20,5,-119
90310475,-0.47552490234375,0.29095458984375,-0.657470703125,-0.5069580078125,-12348,2770,-152,19,2,-127
90320461,-0.4847412109375,0.301025390625,-0.65362548828125,-0.49725341796875,-12718,2943,-220,18,-1,-133
90330436,-0.49407958984375,0.31097412109375,-0.64923095703125,-0.487548828125,-13051,3132,-307,17,-4,-136
90340428,-0.5035400390625,0.32080078125,-0.64434814453125,-0.47802734375,-13332,3315,-396,14,-8,-139
90350411,-0.51300048828125,0.33056640625,-0.63885498046875,-0.468505859375,-13524,3472,-479,12,-12,-144
90360393,-0.52288818359375,0.34063720703125,-0.63262939453125,-0.458740234375,-13636,3587,-549,10,-15,-154
90370369,-0.5333251953125,0.35150146484375,-0.62542724609375,-0.44830322265625,-13715,3666,-597,8,-17,-168
90380351,-0.54425048828125,0.3631591796875,-0.6171875,-0.4371337890625,-13774,3702,-634,7,-19,-183
90390334,-0.55560302734375,0.37542724609375,-0.6080322265625,-0.42510986328125,-13775,3649,-682,6,-21,-194
90400317,-0.567138671875,0.387939453125,-0.59808349609375,-0.41259765625,-13695,3523,-706,6,-24,-201
90410299,-0.57855224609375,0.40032958984375,-0.58758544921875,-0.3997802734375,-13508,3352,-738,5,-26,-203
90420284,-0.58966064453125,0.41241455078125,-0.57672119140625,-0.3868408203125,-13248,3177,-765,6,-26,-204
90430268,-0.6004638671875,0.42425537109375,-0.56561279296875,-0.37371826171875,-12896,2959,-767,6,-27,-204
90440247,-0.61083984375,0.4356689453125,-0.55426025390625,-0.36041259765625,-12565,2758,-720,7,-26,-204
90450240,-0.62091064453125,0.44677734375,-0.54278564453125,-0.3468017578125,-12271,2524,-659,8,-24,-204
90460225,-0.63055419921875,0.45745849609375,-0.53131103515625,-0.3330078125,-11994,2326,-600,10,-23,-203
90470208,-0.63970947265625,0.4676513671875,-0.51983642578125,-0.31915283203125,-11677,2130,-559,11,-22,-201
90480187,-0.64849853515625,0.47747802734375,-0.50836181640625,-0.3050537109375,-11267,1945,-529,12,-21,-201
90490179,-0.65704345703125,0.4871826171875,-0.49658203125,-0.29052734375,-10783,1749,-478,13,-20,-204
90500162,-0.6654052734375,0.49688720703125,-0.48431396484375,-0.27532958984375,-10357,1530,-399,14,-19,-209
90510131,-0.673583984375,0.50653076171875,-0.47161865234375,-0.259521484375,-9990,1282,-298,15,-17,-214
90520113,-0.681396484375,0.515869140625,-0.45867919921875,-0.2432861328125,-9675,1037,-201,16,-16,-214
90530096,-0.6888427734375,0.52484130859375,-0.44561767578125,-0.2269287109375,-9380,767,-134,17,-16,-213
90540080,-0.69580078125,0.5330810546875,-0.4327392578125,-0.21087646484375,-9059,509,-106,18,-16,-205
90550062,-0.70220947265625,0.54058837890625,-0.420166015625,-0.19525146484375,-8671,249,-66,19,-16,-197
90560044,-0.70819091796875,0.54742431640625,-0.40789794921875,-0.18017578125,-8207,38,-29,19,-16,-188
90570025,-0.71368408203125,0.55377197265625,-0.39581298828125,-0.16546630859375,-7870,-154,13,19,-15,-184
90580009,-0.71868896484375,0.5595703125,-0.3841552734375,-0.151123046875,-7726,-357,33,19,-14,-178
90589995,-0.72320556640625,0.564697265625,-0.37310791015625,-0.13763427734375,-7700,-576,67,19,-13,-167
90599981,-0.72711181640625,0.5692138671875,-0.3629150390625,-0.12506103515625,-7667,-813,83,17,-12,-156
90609957,-0.73052978515625,0.57342529296875,-0.3531494140625,-0.1131591796875,-7466,-1019,66,16,-11,-150
90619939,-0.73370361328125,0.57769775390625,-0.3431396484375,-0.10101318359375,-7090,-1240,60,15,-11,-152
90629923,-0.7366943359375,0.58245849609375,-0.3321533203125,-0.08795166015625,-6610,-1470,67,13,-11,-163
90639906,-0.73956298828125,0.587646484375,-0.3199462890625,-0.07342529296875,-6090,-1700,116,13,-10,-177
90649887,-0.74224853515625,0.59320068359375,-0.3065185546875,-0.05743408203125,-5688,-1944,200,12,-9,-191
90659878,-0.7445068359375,0.59869384765625,-0.2926025390625,-0.04083251953125,-5407,-2193,286,12,-9,-194
90669854,-0.746337890625,0.603759765625,-0.279052734375,-0.02471923828125,-5206,-2426,361,11,-7,-187
90679839,-0.74761962890625,0.6082763671875,-0.26641845703125,-0.00970458984375,-4941,-2650,412,9,-6,-171
90689820,-0.74853515625,0.6121826171875,-0.25482177734375,0.00384521484375,-4582,-2844,469,8,-6,-155
90699805,-0.74908447265625,0.61572265625,-0.24407958984375,0.0164794921875,-4153,-2997,514,6,-5,-144
90709793,-0.749267578125,0.6190185546875,-0.23370361328125,0.028564453125,-3723,-3113,563,5,-4,-138
90719771,-0.7491455078125,0.62225341796875,-0.22332763671875,0.0406494140625,-3322,-3187,644,3,-3,-139
90729755,-0.748779296875,0.62548828125,-0.212646484375,0.05328369140625,-3000,-3251,737,2,-2,-144
90739734,-0.748046875,0.6287841796875,-0.2017822265625,0.06610107421875,-2826,-3352,833,0,-2,-146
90749712,-0.74700927734375,0.63189697265625,-0.1912841796875,0.0784912109375,-2697,-3448,921,-2,-1,-142
90759692,-0.74560546875,0.6348876953125,-0.18121337890625,0.09027099609375,-2520,-3531,1001,-4,-1,-135
90769676,-0.74395751953125,0.6378173828125,-0.17132568359375,0.10162353515625,-2318,-3626,1052,-6,-2,-132
90779657,-0.74200439453125,0.64080810546875,-0.16131591796875,0.11309814453125,-2097,-3696,1129,-8,-2,-134
90789640,-0.7396240234375,0.64385986328125,-0.1507568359375,0.12506103515625,-1838,-3769,1171,-9,-2,-141
90799623,-0.73681640625,0.6470947265625,-0.1392822265625,0.13775634765625,-1482,-3805,1216,-11,-3,-150
90809611,-0.7335205078125,0.650390625,-0.12664794921875,0.15142822265625,-1037,-3795,1234,-12,-5,-160
90819594,-0.72967529296875,0.65374755859375,-0.11309814453125,0.16558837890625,-541,-3769,1232,-13,-7,-166
90829577,-0.7254638671875,0.656982421875,-0.0989990234375,0.1796875,49,-3708,1224,-13,-10,-165
90839560,-0.720947265625,0.6600341796875,-0.084716796875,0.19329833984375,748,-3644,1202,-14,-13,-158
90849543,-0.7164306640625,0.66278076171875,-0.07086181640625,0.20587158203125,1514,-3549,1173,-13,-15,-146
90859524,-0.7120361328125,0.66522216796875,-0.057861328125,0.217041015625,2310,-3442,1144,-13,-17,-127
90869507,-0.70806884765625,0.667236328125,-0.0462646484375,0.22637939453125,3066,-3269,1121,-12,-18,-104
90879490,-0.7047119140625,0.6689453125,-0.03656005859375,0.23358154296875,3749,-3059,1095,-11,-19,-78
90889472,-0.70196533203125,0.67047119140625,-0.0286865234375,0.23858642578125,4352,-2808,1047,-10,-19,-52
90899454,-0.69976806640625,0.67181396484375,-0.0225830078125,0.24176025390625,4870,-2531,982,-10,-19,-31
90909435,-0.69793701171875,0.67327880859375,-0.017822265625,0.24346923828125,5352,-2276,877,-11,-20,-14
90919421,-0.6964111328125,0.67474365234375,-0.0140380859375,0.24407958984375,5803,-2067,744,-11,-19,-2
90929405,-0.6949462890625,0.67633056640625,-0.0111083984375,0.24395751953125,6280,-1956,594,-12,-19,8
90939381,-0.693603515625,0.677978515625,-0.00897216796875,0.2431640625,6721,-1970,470,-13,-18,19
90949364,-0.69256591796875,0.67962646484375,-0.0079345703125,0.24151611328125,7098,-2077,388,-14,-16,32
90959350,-0.69207763671875,0.68121337890625,-0.008544921875,0.2386474609375,7398,-2250,312,-13,-14,50
90969329,-0.69219970703125,0.6826171875,-0.01116943359375,0.2340087890625,7606,-2480,251,-13,-11,74
90979310,-0.69305419921875,0.68389892578125,-0.01629638671875,0.22735595703125,7693,-2721,196,-13,-9,101
90989295,-0.69464111328125,0.6849365234375,-0.02410888671875,0.218505859375,7634,-2939,136,-12,-5,128
90999271,-0.6968994140625,0.68560791015625,-0.0345458984375,0.20758056640625,7416,-3100,65,-11,-2,155
91009260,-0.69964599609375,0.68585205078125,-0.0474853515625,0.194580078125,7054,-3192,0,-10,2,179
91019239,-0.7027587890625,0.68548583984375,-0.06280517578125,0.1796875,6558,-3233,-60,-9,5,201
91029231,-0.70611572265625,0.68438720703125,-0.080078125,0.1632080078125,5965,-3227,-92,-7,8,218
91039214,-0.70947265625,0.68243408203125,-0.09869384765625,0.1456298828125,5312,-3187,-66,-5,11,229
91049192,-0.71282958984375,0.67950439453125,-0.11822509765625,0.1273193359375,4606,-3137,-25,-2,13,234
91059187,-0.7159423828125,0.6756591796875,-0.13800048828125,0.10894775390625,3922,-3075,3,2,14,233
91069166,-0.71881103515625,0.6710205078125,-0.15753173828125,0.0909423828125,3202,-2960,76,6,17,226
91079145,-0.721435546875,0.66552734375,-0.17657470703125,0.07366943359375,2430,-2807,146,10,18,218
91089121,-0.7237548828125,0.659423828125,-0.1951904296875,0.05712890625,1613,-2632,234,13,20,208
91099103,-0.72589111328125,0.65264892578125,-0.21319580078125,0.04107666015625,768,-2424,290,16,20,200
91109086,-0.72772216796875,0.64532470703125,-0.23089599609375,0.0252685546875,-182,-2230,356,19,19,195
91119067,-0.72930908203125,0.63720703125,-0.2490234375,0.0086669921875,-1324,-2034,429,20,18,201
91129051,-0.73040771484375,0.62799072265625,-0.26837158203125,-0.00946044921875,-2469,-1892,498,20,18,215
91139033,-0.73089599609375,0.61785888671875,-0.28857421875,-0.0289306640625,-3315,-1821,521,20,18,228
91149016,-0.73065185546875,0.60711669921875,-0.30853271484375,-0.04840087890625,-3847,-1787,521,20,17,226
91158999,-0.7301025390625,0.59637451171875,-0.32696533203125,-0.066650390625,-4351,-1704,528,22,16,210
91168987,-0.72930908203125,0.58544921875,-0.343994140625,-0.083740234375,-5400,-1419,499,24,12,192
91178963,-0.72802734375,0.5738525390625,-0.36102294921875,-0.10150146484375,-6962,-1056,367,24,8,194
91188948,-0.7257080078125,0.5609130859375,-0.37939453125,-0.1217041015625,-8426,-612,215,21,5,218
91198929,-0.721923828125,0.54644775390625,-0.39910888671875,-0.14495849609375,-9245,-224,94,14,2,249
91208911,-0.7166748046875,0.53106689453125,-0.41900634765625,-0.16986083984375,-9432,51,49,8,0,265
91218897,-0.7103271484375,0.515869140625,-0.43768310546875,-0.1944580078125,-9270,185,54,1,-1,260
91228878,-0.70361328125,0.501708984375,-0.4541015625,-0.21697998046875,-9262,306,107,-3,-1,234
91238856,-0.6968994140625,0.48883056640625,-0.46826171875,-0.2369384765625,-9706,432,143,-4,-2,203
91248838,-0.69049072265625,0.47705078125,-0.48046875,-0.25469970703125,-10275,483,201,-4,-3,180
91258821,-0.68438720703125,0.46600341796875,-0.49114990234375,-0.270751953125,-10748,564,196,-3,-5,164
91268804,-0.67828369140625,0.455322265625,-0.50091552734375,-0.285888671875,-11020,604,179,-4,-7,157
91278787,-0.67218017578125,0.44476318359375,-0.510009765625,-0.30059814453125,-10937,559,166,-4,-8,157
91288767,-0.66583251953125,0.43414306640625,-0.51861572265625,-0.31512451171875,-10601,512,191,-5,-8,159
91298758,-0.6591796875,0.42333984375,-0.52703857421875,-0.32952880859375,-10208,456,270,-5,-7,162
91308741,-0.6522216796875,0.41217041015625,-0.5352783203125,-0.34393310546875,-9899,419,403,-4,-6,166
91318717,-0.644775390625,0.40020751953125,-0.54376220703125,-0.3585205078125,-9906,562,500,-2,-5,174
91328700,-0.63623046875,0.3870849609375,-0.5528564453125,-0.3739013671875,-10298,874,573,-1,-4,189
91338687,-0.626220703125,0.37213134765625,-0.5628662109375,-0.39068603515625,-10769,1281,603,0,-3,212
91348673,-0.614501953125,0.35540771484375,-0.5736083984375,-0.40875244140625,-11118,1759,623,0,-1,234
91358654,-0.601318359375,0.33746337890625,-0.58465576171875,-0.427490234375,-11222,2189,606,-1,1,247
91368636,-0.58746337890625,0.3193359375,-0.59521484375,-0.44573974609375,-11075,2535,597,-1,3,244
91378621,-0.57391357421875,0.30224609375,-0.60467529296875,-0.4622802734375,-10826,2877,598,0,5,225
91388600,-0.5614013671875,0.28680419921875,-0.61285400390625,-0.47650146484375,-10699,3296,636,1,6,197
91398583,-0.5501708984375,0.27325439453125,-0.619873046875,-0.48834228515625,-10779,3788,685,3,7,169
91408565,-0.5401611328125,0.26129150390625,-0.62591552734375,-0.498291015625,-10948,4251,722,5,8,148
91418546,-0.53082275390625,0.25042724609375,-0.63134765625,-0.50689697265625,-11123,4660,727,5,8,136
91428530,-0.52178955078125,0.24017333984375,-0.63641357421875,-0.51483154296875,-11179,4941,700,5,9,131
91438513,-0.5128173828125,0.230224609375,-0.64117431640625,-0.5224609375,-11100,5109,665,4,9,129
91448495,-0.50384521484375,0.22039794921875,-0.6456298828125,-0.5299072265625,-10912,5228,622,3,8,128
91458479,-0.494873046875,0.21063232421875,-0.64984130859375,-0.537109375,-10663,5300,595,3,8,127
91468461,-0.4859619140625,0.2010498046875,-0.65374755859375,-0.544189453125,-10409,5340,586,2,7,125
91478440,-0.47711181640625,0.19158935546875,-0.6573486328125,-0.551025390625,-10188,5401,590,2,7,124
91488432,-0.46820068359375,0.1820068359375,-0.6607666015625,-0.5577392578125,-10020,5544,601,2,7,125
91498412,-0.4591064453125,0.17230224609375,-0.66400146484375,-0.56451416015625,-9946,5704,601,1,6,128
91508397,-0.4498291015625,0.16241455078125,-0.66705322265625,-0.5712890625,-9875,5830,575,1,6,130
91518373,-0.4403076171875,0.15240478515625,-0.669921875,-0.57806396484375,-9787,5936,548,-1,5,133
91528354,-0.4307861328125,0.1424560546875,-0.6724853515625,-0.58477783203125,-9703,6045,507,-1,5,132
91538335,-0.42138671875,0.13262939453125,-0.67474365234375,-0.59130859375,-9646,6180,477,-3,4,129
91548319,-0.412353515625,0.12335205078125,-0.67669677734375,-0.59747314453125,-9591,6306,442,-3,3,124
91558302,-0.4039306640625,0.1146240234375,-0.67822265625,-0.6031494140625,-9502,6390,442,-4,2,116
91568284,-0.39630126953125,0.10675048828125,-0.67938232421875,-0.6083984375,-9396,6428,448,-5,1,106
91578268,-0.38946533203125,0.09979248046875,-0.68017578125,-0.613037109375,-9275,6421,483,-6,1,95
91588247,-0.38360595703125,0.09381103515625,-0.6806640625,-0.61712646484375,-9145,6401,545,-6,0,84
91598238,-0.37860107421875,0.08868408203125,-0.68096923828125,-0.62066650390625,-9044,6357,634,-6,0,73
91608221,-0.37445068359375,0.08441162109375,-0.68096923828125,-0.62371826171875,-8957,6289,724,-6,-1,63
91618206,-0.37103271484375,0.08074951171875,-0.68084716796875,-0.6263427734375,-8894,6206,814,-5,-2,56
91628191,-0.3681640625,0.07763671875,-0.6806640625,-0.628662109375,-8809,6108,911,-5,-2,50
91638174,-0.36553955078125,0.0748291015625,-0.68035888671875,-0.630859375,-8675,6035,1015,-5,-2,48
91648161,-0.36273193359375,0.07208251953125,-0.6800537109375,-0.63311767578125,-8504,5961,1107,-6,0,49
91658128,-0.359375,0.06927490234375,-0.6798095703125,-0.6356201171875,-8319,5891,1171,-7,3,53
91668111,-0.3553466796875,0.06646728515625,-0.67962646484375,-0.63836669921875,-8116,5801,1216,-8,7,57
91678094,-0.35089111328125,0.06402587890625,-0.6795654296875,-0.64117431640625,-7922,5712,1260,-9,12,56
91688077,-0.34637451171875,0.06219482421875,-0.679443359375,-0.6439208984375,-7751,5655,1269,-11,15,51
91698057,-0.34234619140625,0.0615234375,-0.67938232421875,-0.64617919921875,-7619,5662,1241,-12,19,40
91708039,-0.33905029296875,0.06219482421875,-0.67926025390625,-0.64794921875,-7524,5715,1178,-13,21,26
91718023,-0.3367919921875,0.0643310546875,-0.67913818359375,-0.64910888671875,-7445,5793,1101,-13,23,10
91728006,-0.33551025390625,0.06768798828125,-0.678955078125,-0.64959716796875,-7344,5891,998,-13,24,-4
91737990,-0.33526611328125,0.072265625,-0.6787109375,-0.64947509765625,-7253,5969,892,-14,24,-18
91747966,-0.33599853515625,0.0777587890625,-0.6783447265625,-0.6488037109375,-7122,6025,789,-13,24,-31
91757950,-0.33758544921875,0.083984375,-0.677978515625,-0.64764404296875,-6982,6062,689,-12,22,-41
91767933,-0.33990478515625,0.0906982421875,-0.67755126953125,-0.64599609375,-6841,6106,573,-11,21,-50
91777915,-0.3427734375,0.09765625,-0.67706298828125,-0.64398193359375,-6699,6136,474,-10,18,-55
91787899,-0.3460693359375,0.10455322265625,-0.676513671875,-0.64166259765625,-6586,6150,383,-8,16,-58
91797883,-0.34967041015625,0.11114501953125,-0.6759033203125,-0.63922119140625,-6482,6147,316,-7,13,-59
91807866,-0.3533935546875,0.11724853515625,-0.67529296875,-0.63671875,-6361,6099,247,-5,9,-57
91817848,-0.35699462890625,0.12274169921875,-0.6748046875,-0.63421630859375,-6228,6066,160,-3,6,-53
91827830,-0.3604736328125,0.12738037109375,-0.67431640625,-0.6318359375,-6092,6052,95,-1,3,-48
91837814,-0.36370849609375,0.131103515625,-0.6739501953125,-0.62957763671875,-5986,6029,32,2,0,-42
91847795,-0.36651611328125,0.1339111328125,-0.67376708984375,-0.6275634765625,-5884,5984,-2,3,-2,-34
91857770,-0.3690185546875,0.1357421875,-0.6737060546875,-0.62579345703125,-5774,5939,-22,5,-5,-26
91867764,-0.37109375,0.1365966796875,-0.67376708984375,-0.624267578125,-5683,5881,-38,7,-8,-18
91877745,-0.37286376953125,0.13665771484375,-0.67401123046875,-0.62298583984375,-5591,5822,-56,9,-10,-11
91887721,-0.37432861328125,0.13592529296875,-0.67437744140625,-0.62188720703125,-5513,5767,-43,10,-12,-5
91897712,-0.37554931640625,0.13458251953125,-0.6748046875,-0.6209716796875,-5482,5753,-38,12,-14,0
91907688,-0.3765869140625,0.132568359375,-0.67535400390625,-0.62017822265625,-5481,5773,-27,13,-15,5
91917672,-0.37738037109375,0.13006591796875,-0.676025390625,-0.6195068359375,-5479,5818,-21,14,-16,9
91927654,-0.3780517578125,0.12713623046875,-0.67669677734375,-0.618896484375,-5491,5862,3,15,-18,12
91937638,-0.378662109375,0.1240234375,-0.67742919921875,-0.618408203125,-5498,5907,41,16,-18,13
91947620,-0.37939453125,0.120849609375,-0.67816162109375,-0.6177978515625,-5501,5963,94,16,-19,12
91957601,-0.38037109375,0.1177978515625,-0.67877197265625,-0.61712646484375,-5522,6035,162,17,-19,10
91967585,-0.381591796875,0.114990234375,-0.6793212890625,-0.6163330078125,-5538,6085,219,17,-19,7
91977568,-0.38299560546875,0.11236572265625,-0.67974853515625,-0.6153564453125,-5565,6113,280,16,-19,4
91987550,-0.38458251953125,0.11004638671875,-0.68017578125,-0.6143798828125,-5593,6122,349,16,-18,2
91997532,-0.38616943359375,0.10784912109375,-0.6805419921875,-0.61334228515625,-5584,6132,404,16,-18,1
92007515,-0.38763427734375,0.105712890625,-0.68096923828125,-0.6123046875,-5566,6137,465,16,-17,1
92017498,-0.3890380859375,0.103759765625,-0.68133544921875,-0.61138916015625,-5558,6148,531,15,-15,2
92027480,-0.3902587890625,0.101806640625,-0.6817626953125,-0.6104736328125,-5534,6152,570,14,-14,2
92037463,-0.391357421875,0.10003662109375,-0.68212890625,-0.60955810546875,-5515,6149,607,14,-12,1
92047449,-0.3924560546875,0.09844970703125,-0.68255615234375,-0.60870361328125,-5509,6172,651,13,-11,0
92057438,-0.39349365234375,0.09710693359375,-0.68292236328125,-0.6077880859375,-5499,6185,680,12,-10,-1
92067416,-0.39459228515625,0.09600830078125,-0.68328857421875,-0.60687255859375,-5482,6188,700,12,-9,-3
92079995,-0.395751953125,0.09521484375,-0.68365478515625,-0.6058349609375,-5454,6185,717,11,-8,-6
92087376,-0.39703369140625,0.09478759765625,-0.6839599609375,-0.604736328125,-5402,6190,729,11,-7,-9
92097359,-0.3984375,0.0946044921875,-0.68426513671875,-0.60345458984375,-5391,6192,726,11,-6,-12
92107342,-0.39996337890625,0.09478759765625,-0.6845703125,-0.60211181640625,-5394,6204,708,10,-5,-14
92117323,-0.401611328125,0.09515380859375,-0.68487548828125,-0.6005859375,-5389,6199,693,10,-5,-16
92127306,-0.4031982421875,0.09564208984375,-0.6851806640625,-0.59906005859375,-5391,6191,652,10,-4,-17
92137293,-0.40478515625,0.09619140625,-0.685546875,-0.59747314453125,-5417,6184,597,10,-4,-16
92147273,-0.40625,0.09661865234375,-0.6859130859375,-0.59600830078125,-5457,6173,557,10,-4,-14
92157256,-0.40753173828125,0.0968017578125,-0.68634033203125,-0.59466552734375,-5493,6167,519,10,-4,-11
92167244,-0.40869140625,0.09674072265625,-0.68670654296875,-0.5933837890625,-5529,6149,483,10,-5,-9
92177226,-0.4097900390625,0.0965576171875,-0.6871337890625,-0.59222412109375,-5554,6132,467,10,-5,-7
92187210,-0.4107666015625,0.09613037109375,-0.6875,-0.59112548828125,-5540,6115,435,10,-6,-7
92197188,-0.4117431640625,0.09564208984375,-0.68792724609375,-0.59002685546875,-5530,6127,399,10,-6,-6
92207182,-0.41278076171875,0.09515380859375,-0.6883544921875,-0.58892822265625,-5520,6123,364,10,-7,-6
92217174,-0.41375732421875,0.09454345703125,-0.688720703125,-0.587890625,-5539,6124,321,10,-7,-5
92227144,-0.4146728515625,0.09381103515625,-0.68914794921875,-0.5869140625,-5566,6121,274,10,-7,-4
92237121,-0.41552734375,0.09295654296875,-0.68951416015625,-0.58599853515625,-5579,6106,240,10,-8,-2
92247108,-0.41632080078125,0.09185791015625,-0.68988037109375,-0.585205078125,-5572,6111,206,10,-8,0
92257086,-0.41693115234375,0.09063720703125,-0.69024658203125,-0.58447265625,-5555,6142,182,10,-9,1
92267068,-0.41748046875,0.08929443359375,-0.69061279296875,-0.5838623046875,-5521,6173,166,10,-8,1
92277052,-0.41802978515625,0.08795166015625,-0.69097900390625,-0.58331298828125,-5475,6188,133,9,-9,2
92287033,-0.41851806640625,0.08673095703125,-0.6912841796875,-0.58270263671875,-5436,6212,112,9,-8,1
92297015,-0.41900634765625,0.0855712890625,-0.691650390625,-0.58209228515625,-5399,6238,100,8,-7,0
92306997,-0.41943359375,0.08453369140625,-0.69195556640625,-0.58154296875,-5378,6278,98,8,-7,0
92316988,-0.41973876953125,0.08355712890625,-0.69232177734375,-0.5810546875,-5352,6325,97,7,-5,0
92326967,-0.4200439453125,0.08270263671875,-0.69268798828125,-0.58050537109375,-5322,6343,94,7,-5,-1
92336945,-0.4202880859375,0.08197021484375,-0.69305419921875,-0.58001708984375,-5289,6343,86,6,-4,-1
92346927,-0.4205322265625,0.08148193359375,-0.693359375,-0.57952880859375,-5256,6330,75,6,-3,-3
92356909,-0.42071533203125,0.0811767578125,-0.69378662109375,-0.57891845703125,-5242,6293,76,5,-1,-3
92366898,-0.4208984375,0.08111572265625,-0.69415283203125,-0.578369140625,-5245,6263,67,5,0,-4
92376878,-0.42108154296875,0.0811767578125,-0.694580078125,-0.5777587890625,-5255,6236,88,5,1,-5
92386860,-0.4212646484375,0.08135986328125,-0.6949462890625,-0.57708740234375,-5284,6210,101,5,1,-5
92396840,-0.42132568359375,0.08148193359375,-0.69537353515625,-0.5765380859375,-5317,6205,124,5,2,-4
92406824,-0.42132568359375,0.08160400390625,-0.69586181640625,-0.575927734375,-5355,6207,133,5,2,-3
92416807,-0.4212646484375,0.0816650390625,-0.69635009765625,-0.575439453125,-5412,6201,144,5,3,-2
92426791,-0.42108154296875,0.08172607421875,-0.69683837890625,-0.57489013671875,-5484,6189,141,5,2,-2
92436768,-0.4208984375,0.0816650390625,-0.69732666015625,-0.57440185546875,-5549,6168,138,5,3,-1
92446766,-0.42071533203125,0.08154296875,-0.6978759765625,-0.573974609375,-5612,6142,133,5,2,1
92456744,-0.42047119140625,0.081298828125,-0.69842529296875,-0.57354736328125,-5658,6136,128,5,2,2
92466722,-0.420166015625,0.08099365234375,-0.698974609375,-0.5731201171875,-5693,6140,140,6,2,2
92476704,-0.419921875,0.08062744140625,-0.699462890625,-0.57275390625,-5691,6130,153,5,1,2
92486688,-0.419677734375,0.080322265625,-0.699951171875,-0.57232666015625,-5694,6105,159,6,2,2
92496669,-0.41949462890625,0.08001708984375,-0.700439453125,-0.5718994140625,-5710,6107,163,6,2,1
92506653,-0.4193115234375,0.079833984375,-0.700927734375,-0.57147216796875,-5726,6109,165,5,2,0
92516636,-0.419189453125,0.079833984375,-0.701416015625,-0.57098388671875,-5743,6118,180,5,2,-1
92526617,-0.41925048828125,0.07989501953125,-0.70184326171875,-0.5704345703125,-5756,6105,172,5,2,-3
92536599,-0.41937255859375,0.0802001953125,-0.7022705078125,-0.56982421875,-5759,6076,177,5,3,-4
92546580,-0.4195556640625,0.08056640625,-0.70257568359375,-0.56915283203125,-5732,6065,173,5,2,-6
92556561,-0.41986083984375,0.08111572265625,-0.70294189453125,-0.56842041015625,-5722,6053,167,4,2,-7
92566545,-0.420166015625,0.0816650390625,-0.7032470703125,-0.56768798828125,-5718,6050,156,4,2,-7
92576527,-0.42047119140625,0.08221435546875,-0.70355224609375,-0.5670166015625,-5729,6042,153,3,2,-7
92586511,-0.420654296875,0.082763671875,-0.703857421875,-0.56646728515625,-5739,6014,154,3,3,-6
92596494,-0.4207763671875,0.08319091796875,-0.7041015625,-0.56597900390625,-5744,5979,158,3,2,-4
92606479,-0.42083740234375,0.08355712890625,-0.70440673828125,-0.5655517578125,-5770,5949,164,3,3,-3
92616461,-0.42083740234375,0.08380126953125,-0.70465087890625,-0.565185546875,-5815,5968,148,2,2,-2
92626449,-0.4207763671875,0.08392333984375,-0.70489501953125,-0.56488037109375,-5863,6018,113,2,2,-1
92636433,-0.420654296875,0.08392333984375,-0.7052001953125,-0.56463623046875,-5909,6103,57,2,1,-1
92646415,-0.42059326171875,0.08392333984375,-0.7054443359375,-0.56439208984375,-5949,6174,-11,2,1,-1
92656397,-0.42059326171875,0.083984375,-0.70562744140625,-0.56414794921875,-5966,6204,-61,2,0,-2
92666374,-0.4207763671875,0.08416748046875,-0.70574951171875,-0.56378173828125,-5967,6174,-104,1,0,-4
92676352,-0.421142578125,0.08453369140625,-0.705810546875,-0.5633544921875,-5941,6124,-136,1,-1,-6
92686337,-0.421630859375,0.0849609375,-0.70587158203125,-0.5628662109375,-5905,6074,-149,1,-2,-7
92696314,-0.4222412109375,0.0853271484375,-0.70587158203125,-0.5623779296875,-5863,6059,-172,1,-2,-7
92706300,-0.4227294921875,0.085693359375,-0.70587158203125,-0.56195068359375,-5822,6049,-199,1,-2,-6
92716284,-0.423095703125,0.0859375,-0.7059326171875,-0.5615234375,-5781,6030,-240,1,-2,-5
92726266,-0.42340087890625,0.086181640625,-0.70599365234375,-0.56121826171875,-5740,5990,-270,0,-1,-4
92736245,-0.42352294921875,0.0863037109375,-0.70611572265625,-0.56097412109375,-5685,5942,-283,0,-1,-3
92746241,-0.423583984375,0.08636474609375,-0.7061767578125,-0.560791015625,-5629,5888,-297,0,0,-2
92756219,-0.4234619140625,0.08648681640625,-0.70635986328125,-0.5606689453125,-5566,5830,-282,0,1,-1
92766207,-0.42327880859375,0.0865478515625,-0.70648193359375,-0.5606689453125,-5527,5822,-272,0,1,0
92776191,-0.42291259765625,0.08660888671875,-0.70672607421875,-0.56060791015625,-5508,5850,-275,0,2,1
92786174,-0.42236328125,0.08660888671875,-0.70709228515625,-0.56060791015625,-5510,5894,-297,0,4,2
92796157,-0.42169189453125,0.086669921875,-0.70745849609375,-0.56060791015625,-5516,5923,-301,0,5,2
92806123,-0.42095947265625,0.0867919921875,-0.7078857421875,-0.56060791015625,-5543,5938,-307,0,5,2
92816107,-0.42022705078125,0.0870361328125,-0.70831298828125,-0.560546875,-5561,5928,-299,0,6,1
92826093,-0.4195556640625,0.0875244140625,-0.708740234375,-0.5604248046875,-5595,5912,-282,0,7,-1
92836069,-0.41900634765625,0.088134765625,-0.70916748046875,-0.5601806640625,-5618,5928,-272,0,7,-3
92846054,-0.41864013671875,0.08905029296875,-0.7095947265625,-0.559814453125,-5671,5944,-252,0,8,-6
92856036,-0.4183349609375,0.090087890625,-0.71002197265625,-0.559326171875,-5692,5981,-239,0,8,-7
92866019,-0.418212890625,0.09136962890625,-0.71038818359375,-0.55877685546875,-5740,5993,-254,0,8,-9
92876003,-0.4180908203125,0.0926513671875,-0.7108154296875,-0.55810546875,-5789,6007,-260,1,8,-10
92885992,-0.4180908203125,0.093994140625,-0.71112060546875,-0.55743408203125,-5825,5977,-250,0,7,-10
92895974,-0.41815185546875,0.09527587890625,-0.71148681640625,-0.5567626953125,-5850,5943,-237,1,7,-10
92905950,-0.4180908203125,0.09649658203125,-0.71185302734375,-0.55609130859375,-5882,5906,-227,1,7,-8
92915934,-0.41802978515625,0.0975341796875,-0.71221923828125,-0.55548095703125,-5911,5890,-221,1,6,-7
92925916,-0.41790771484375,0.098388671875,-0.71258544921875,-0.55499267578125,-5918,5877,-231,1,6,-6
92935900,-0.41778564453125,0.09912109375,-0.712890625,-0.5545654296875,-5945,5888,-238,1,5,-4
92945880,-0.41754150390625,0.09967041015625,-0.7132568359375,-0.55419921875,-5970,5911,-242,1,5,-3
92955865,-0.41729736328125,0.10009765625,-0.7135009765625,-0.553955078125,-5991,5904,-257,1,4,-2
92965847,-0.41705322265625,0.1004638671875,-0.7137451171875,-0.55377197265625,-6005,5882,-262,1,3,-2
92975831,-0.41693115234375,0.100830078125,-0.71392822265625,-0.55352783203125,-6017,5827,-265,1,3,-1
92985811,-0.4168701171875,0.10113525390625,-0.71405029296875,-0.55340576171875,-6003,5796,-255,0,2,-1
92995794,-0.41680908203125,0.101318359375,-0.71417236328125,-0.55322265625,-6032,5781,-247,1,1,-1
93005784,-0.41680908203125,0.10137939453125,-0.7142333984375,-0.55316162109375,-6059,5813,-243,1,1,0
93015768,-0.41668701171875,0.10125732421875,-0.71429443359375,-0.55316162109375,-6083,5841,-241,1,0,2
93025753,-0.4166259765625,0.10101318359375,-0.71435546875,-0.55316162109375,-6123,5870,-246,1,-1,2
93035732,-0.41656494140625,0.10064697265625,-0.7144775390625,-0.55316162109375,-6152,5880,-246,1,-1,3
93045708,-0.41650390625,0.1002197265625,-0.71453857421875,-0.55316162109375,-6145,5857,-248,2,-2,3
93055692,-0.4166259765625,0.099853515625,-0.71453857421875,-0.55316162109375,-6131,5814,-230,2,-2,2
93065674,-0.41693115234375,0.099609375,-0.71453857421875,-0.552978515625,-6115,5813,-220,2,-3,0
93075657,-0.41729736328125,0.09942626953125,-0.71453857421875,-0.552734375,-6109,5827,-226,3,-3,-2
93085638,-0.4178466796875,0.09930419921875,-0.71453857421875,-0.5523681640625,-6092,5883,-231,3,-4,-4
93095617,-0.41845703125,0.099365234375,-0.7144775390625,-0.55194091796875,-6073,5958,-246,3,-3,-6
93105597,-0.41912841796875,0.09954833984375,-0.71441650390625,-0.55145263671875,-6058,6022,-263,2,-4,-7
93115581,-0.41986083984375,0.099853515625,-0.71435546875,-0.55096435546875,-6037,6039,-272,2,-3,-8
93125564,-0.42071533203125,0.10028076171875,-0.7142333984375,-0.55035400390625,-6013,6023,-277,2,-4,-9
93135549,-0.421630859375,0.1007080078125,-0.71405029296875,-0.54986572265625,-5987,5999,-286,1,-3,-9
93145531,-0.42242431640625,0.1011962890625,-0.71392822265625,-0.54931640625,-5960,5974,-294,1,-3,-9
93155513,-0.4232177734375,0.10162353515625,-0.7137451171875,-0.54888916015625,-5938,5960,-306,1,-3,-8
93165497,-0.42388916015625,0.10205078125,-0.71356201171875,-0.5484619140625,-5927,5935,-315,0,-3,-7
93175481,-0.42449951171875,0.10235595703125,-0.71343994140625,-0.54815673828125,-5919,5921,-324,0,-3,-7
93185466,-0.42498779296875,0.10260009765625,-0.7132568359375,-0.5479736328125,-5909,5928,-351,-1,-3,-5
93195449,-0.42535400390625,0.102783203125,-0.71307373046875,-0.54779052734375,-5885,5928,-357,-1,-3,-5
93205434,-0.4256591796875,0.10296630859375,-0.712890625,-0.54779052734375,-5852,5913,-364,-2,-2,-4
93215416,-0.42596435546875,0.1031494140625,-0.71270751953125,-0.54779052734375,-5822,5881,-363,-2,-2,-4
93225399,-0.42626953125,0.10345458984375,-0.7125244140625,-0.5477294921875,-5798,5857,-363,-2,-2,-5
93235377,-0.42657470703125,0.103759765625,-0.71234130859375,-0.5477294921875,-5781,5827,-370,-2,-2,-5
93245359,-0.42681884765625,0.10406494140625,-0.712158203125,-0.54766845703125,-5772,5812,-365,-2,-1,-5
93255342,-0.427001953125,0.10443115234375,-0.71197509765625,-0.5477294921875,-5774,5785,-349,-3,-1,-4
93265330,-0.4271240234375,0.104736328125,-0.7117919921875,-0.5477294921875,-5771,5755,-347,-2,0,-4
93275307,-0.42718505859375,0.1051025390625,-0.71160888671875,-0.5478515625,-5768,5715,-326,-3,0,-3
93285293,-0.42718505859375,0.10540771484375,-0.7115478515625,-0.54791259765625,-5746,5671,-312,-3,0,-2
93295273,-0.42706298828125,0.10565185546875,-0.71142578125,-0.548095703125,-5738,5653,-296,-3,1,-1
93305258,-0.4267578125,0.1058349609375,-0.71142578125,-0.54827880859375,-5725,5639,-288,-2,2,0
93315237,-0.4263916015625,0.10601806640625,-0.71142578125,-0.54852294921875,-5716,5632,-281,-3,3,1
93325227,-0.42584228515625,0.106201171875,-0.7115478515625,-0.54876708984375,-5681,5632,-273,-2,4,1
93335209,-0.42535400390625,0.10650634765625,-0.711669921875,-0.5489501953125,-5655,5618,-274,-2,5,0
93345194,-0.4248046875,0.1070556640625,-0.71185302734375,-0.54901123046875,-5634,5616,-270,-2,6,-2
93355175,-0.42425537109375,0.10772705078125,-0.71209716796875,-0.549072265625,-5630,5602,-272,-2,7,-2
93365158,-0.4237060546875,0.10845947265625,-0.71234130859375,-0.54901123046875,-5653,5581,-263,-2,7,-3
93375129,-0.423095703125,0.1092529296875,-0.71258544921875,-0.54901123046875,-5696,5576,-263,-2,8,-3
93385111,-0.42242431640625,0.11004638671875,-0.712890625,-0.5489501953125,-5738,5568,-254,-2,8,-2
93395095,-0.4217529296875,0.11077880859375,-0.71319580078125,-0.54888916015625,-5772,5562,-244,-2,8,-1
93405076,-0.42108154296875,0.111572265625,-0.7135009765625,-0.548828125,-5811,5563,-245,-1,8,-2
93415060,-0.42041015625,0.11224365234375,-0.71392822265625,-0.5487060546875,-5865,5583,-259,-1,8,-1
93425051,-0.419677734375,0.11285400390625,-0.71435546875,-0.548583984375,-5911,5598,-282,0,8,-1
93435031,-0.4189453125,0.11346435546875,-0.71478271484375,-0.5484619140625,-5947,5624,-297,0,8,0
93445010,-0.41827392578125,0.114013671875,-0.7152099609375,-0.54827880859375,-5997,5657,-319,0,8,-1
93454995,-0.41766357421875,0.1146240234375,-0.7156982421875,-0.54803466796875,-6033,5684,-353,0,7,-1
93464980,-0.41705322265625,0.11517333984375,-0.71612548828125,-0.5477294921875,-6067,5707,-373,1,7,-2
93474958,-0.41656494140625,0.11572265625,-0.716552734375,-0.54742431640625,-6098,5731,-389,1,7,-2
93484938,-0.41607666015625,0.11627197265625,-0.717041015625,-0.547119140625,-6105,5744,-412,1,6,-2
93494929,-0.41558837890625,0.11663818359375,-0.71746826171875,-0.54681396484375,-6128,5756,-440,2,6,0
93504908,-0.41510009765625,0.11688232421875,-0.71783447265625,-0.546630859375,-6155,5779,-462,1,5,1
93514889,-0.4144287109375,0.116943359375,-0.71832275390625,-0.5465087890625,-6170,5809,-486,1,5,2
93524878,-0.413818359375,0.11700439453125,-0.71868896484375,-0.5465087890625,-6149,5814,-503,0,4,2
93534857,-0.413330078125,0.1170654296875,-0.718994140625,-0.54644775390625,-6133,5810,-517,0,4,2
93544840,-0.412841796875,0.1173095703125,-0.71917724609375,-0.5465087890625,-6111,5803,-507,-1,4,0
93554822,-0.41241455078125,0.1175537109375,-0.7193603515625,-0.5465087890625,-6088,5795,-505,-1,4,0
93564804,-0.4119873046875,0.11785888671875,-0.719482421875,-0.546630859375,-6079,5788,-498,-2,4,0
93574785,-0.41156005859375,0.1181640625,-0.7196044921875,-0.5467529296875,-6062,5797,-477,-2,4,0
93584773,-0.4110107421875,0.118408203125,-0.71966552734375,-0.54705810546875,-6056,5827,-476,-3,4,1
93594755,-0.41046142578125,0.11865234375,-0.7197265625,-0.54730224609375,-6050,5846,-488,-3,4,1
93604736,-0.40985107421875,0.118896484375,-0.7197265625,-0.54766845703125,-6040,5842,-484,-4,4,2
93614713,-0.4093017578125,0.1192626953125,-0.71978759765625,-0.5479736328125,-6028,5829,-474,-4,4,0
93624699,-0.40887451171875,0.1197509765625,-0.71978759765625,-0.54815673828125,-6022,5800,-480,-4,5,-1
93634675,-0.408447265625,0.12042236328125,-0.71978759765625,-0.54833984375,-6010,5776,-475,-4,5,-2
93644659,-0.40814208984375,0.12109375,-0.71978759765625,-0.54840087890625,-5994,5751,-481,-3,5,-3
93654642,-0.40777587890625,0.12188720703125,-0.71978759765625,-0.5484619140625,-5996,5738,-486,-3,5,-3
93664626,-0.407470703125,0.1226806640625,-0.7198486328125,-0.54852294921875,-6000,5721,-496,-3,5,-3
93674608,-0.40716552734375,0.1234130859375,-0.71990966796875,-0.54852294921875,-6003,5719,-504,-3,5,-3
93684590,-0.4068603515625,0.1241455078125,-0.719970703125,-0.5484619140625,-6030,5718,-508,-3,5,-3
93694571,-0.406494140625,0.12481689453125,-0.72003173828125,-0.5484619140625,-6049,5721,-534,-3,5,-2
93704556,-0.4061279296875,0.12548828125,-0.72015380859375,-0.5484619140625,-6071,5737,-548,-2,5,-2
93714542,-0.40582275390625,0.12603759765625,-0.72027587890625,-0.54840087890625,-6087,5713,-564,-2,4,-2
93724525,-0.405517578125,0.12664794921875,-0.72039794921875,-0.54827880859375,-6091,5704,-589,-2,4,-3
93734506,-0.40533447265625,0.127197265625,-0.72052001953125,-0.54815673828125,-6102,5697,-597,-1,4,-3
93744489,-0.4051513671875,0.1278076171875,-0.7205810546875,-0.548095703125,-6096,5685,-620,-2,3,-3
93754472,-0.40509033203125,0.12835693359375,-0.72064208984375,-0.54791259765625,-6099,5680,-629,-1,2,-4
93764454,-0.4051513671875,0.12890625,-0.72064208984375,-0.5477294921875,-6125,5673,-642,-1,2,-4
93774433,-0.4051513671875,0.12933349609375,-0.72064208984375,-0.547607421875,-6128,5675,-653,-1,1,-3
93784425,-0.4051513671875,0.12969970703125,-0.72064208984375,-0.5474853515625,-6122,5665,-648,-1,1,-2
93794411,-0.4051513671875,0.12982177734375,-0.720703125,-0.54742431640625,-6101,5655,-650,0,0,-1
93804397,-0.405029296875,0.12982177734375,-0.72076416015625,-0.54742431640625,-6094,5642,-660,-1,0,1
93814374,-0.40484619140625,0.12969970703125,-0.7208251953125,-0.5474853515625,-6080,5641,-669,0,0,2
93824356,-0.40472412109375,0.1295166015625,-0.72088623046875,-0.547607421875,-6067,5644,-652,0,-1,2
93834338,-0.404541015625,0.1292724609375,-0.720947265625,-0.54766845703125,-6048,5645,-657,0,-1,2
93844318,-0.40447998046875,0.129150390625,-0.72100830078125,-0.54766845703125,-6027,5635,-663,0,-1,0
93854303,-0.404541015625,0.12908935546875,-0.7210693359375,-0.547607421875,-6020,5625,-659,0,-1,-1
93864281,-0.40460205078125,0.12908935546875,-0.7210693359375,-0.54754638671875,-6012,5631,-653,0,-1,-1
93874263,-0.4046630859375,0.12908935546875,-0.72113037109375,-0.54742431640625,-5999,5643,-663,1,-1,-1
93884247,-0.4046630859375,0.12908935546875,-0.72119140625,-0.54730224609375,-5977,5641,-669,1,0,-1
93894236,-0.40472412109375,0.129150390625,-0.72125244140625,-0.54718017578125,-5959,5638,-673,0,0,-1
93904218,-0.40472412109375,0.12921142578125,-0.721435546875,-0.54693603515625,-5944,5630,-685,1,0,-2
93914206,-0.40472412109375,0.1292724609375,-0.7215576171875,-0.5467529296875,-5949,5629,-673,1,0,-2
93924187,-0.40472412109375,0.12933349609375,-0.7216796875,-0.54656982421875,-5944,5629,-664,1,0,-1
93934174,-0.4046630859375,0.12945556640625,-0.72186279296875,-0.54632568359375,-5949,5629,-666,1,1,-1
93944154,-0.40460205078125,0.1295166015625,-0.7220458984375,-0.546142578125,-5967,5641,-662,1,1,-1
93954126,-0.404541015625,0.129638671875,-0.72222900390625,-0.5458984375,-5999,5645,-661,2,1,-2
93964107,-0.40447998046875,0.1297607421875,-0.722412109375,-0.545654296875,-5998,5676,-673,2,1,-2
93974090,-0.40447998046875,0.1298828125,-0.72259521484375,-0.54541015625,-6019,5686,-678,1,1,-2
93984073,-0.4044189453125,0.13006591796875,-0.7227783203125,-0.54510498046875,-6037,5683,-694,1,1,-2
93994053,-0.40447998046875,0.13018798828125,-0.72296142578125,-0.54486083984375,-6050,5684,-705,1,0,-2
94004038,-0.40447998046875,0.13031005859375,-0.72314453125,-0.54461669921875,-6063,5670,-707,1,1,-2
94014020,-0.404541015625,0.13043212890625,-0.7232666015625,-0.54437255859375,-6083,5659,-708,1,0,-2
94024003,-0.40460205078125,0.1304931640625,-0.72332763671875,-0.544189453125,-6088,5647,-697,1,0,-1
94033992,-0.40472412109375,0.13055419921875,-0.72344970703125,-0.5439453125,-6073,5619,-691,1,0,-2
94043975,-0.40478515625,0.13055419921875,-0.72357177734375,-0.54376220703125,-6056,5612,-699,1,0,-2
94053952,-0.40484619140625,0.13055419921875,-0.7236328125,-0.5435791015625,-6042,5609,-702,1,-1,-1
94063931,-0.40496826171875,0.1304931640625,-0.7237548828125,-0.54339599609375,-6030,5603,-682,1,-1,-1
94073921,-0.40496826171875,0.13037109375,-0.723876953125,-0.54327392578125,-6014,5604,-676,1,0,0
94083901,-0.40484619140625,0.13018798828125,-0.7239990234375,-0.54315185546875,-5992,5597,-682,1,0,1
94093884,-0.40472412109375,0.1298828125,-0.72418212890625,-0.5430908203125,-6000,5596,-669,2,0,2
94103866,-0.404541015625,0.12957763671875,-0.724365234375,-0.5430908203125,-5996,5603,-664,2,0,2
94113850,-0.404296875,0.1292724609375,-0.72454833984375,-0.5430908203125,-5999,5621,-654,2,0,2
94123832,-0.40411376953125,0.1290283203125,-0.7247314453125,-0.54302978515625,-5999,5635,-643,1,1,2
94133813,-0.4039306640625,0.12890625,-0.7249755859375,-0.54290771484375,-6000,5638,-650,2,1,0
94143799,-0.40380859375,0.12890625,-0.72515869140625,-0.54278564453125,-5997,5634,-658,1,1,-1
94153775,-0.40374755859375,0.1290283203125,-0.725341796875,-0.54248046875,-5981,5626,-666,2,2,-2
94163765,-0.40380859375,0.12933349609375,-0.72552490234375,-0.5421142578125,-5989,5634,-651,2,2,-3
94173747,-0.40386962890625,0.129638671875,-0.7257080078125,-0.54180908203125,-5984,5644,-652,2,2,-4
94183725,-0.4039306640625,0.12994384765625,-0.72589111328125,-0.5413818359375,-5984,5652,-661,2,2,-4
94193707,-0.4039306640625,0.13031005859375,-0.72613525390625,-0.54107666015625,-6002,5660,-670,1,2,-3
94203689,-0.40380859375,0.1304931640625,-0.726318359375,-0.540771484375,-6024,5667,-688,2,2,-2
94213671,-0.4036865234375,0.130615234375,-0.7265625,-0.54052734375,-6056,5673,-705,1,2,-1
94223659,-0.40350341796875,0.130615234375,-0.726806640625,-0.5404052734375,-6088,5670,-710,2,2,0
94233639,-0.40325927734375,0.130615234375,-0.72698974609375,-0.540283203125,-6104,5650,-699,1,1,1
94243621,-0.40313720703125,0.130615234375,-0.72711181640625,-0.5401611328125,-6115,5650,-708,1,1,0
94253604,-0.40301513671875,0.130615234375,-0.727294921875,-0.5400390625,-6131,5666,-713,1,1,0
94263588,-0.4029541015625,0.13067626953125,-0.7274169921875,-0.5399169921875,-6151,5668,-718,1,1,-1
94273567,-0.4029541015625,0.1307373046875,-0.7275390625,-0.53973388671875,-6168,5702,-742,1,0,-1
94283551,-0.4029541015625,0.13079833984375,-0.7276611328125,-0.53955078125,-6201,5729,-762,1,0,-1
94293532,-0.403076171875,0.130859375,-0.7276611328125,-0.5394287109375,-6221,5736,-769,1,0,-1
94303516,-0.40313720703125,0.13092041015625,-0.72772216796875,-0.539306640625,-6220,5727,-767,0,-1,-2
94313497,-0.40338134765625,0.1309814453125,-0.7276611328125,-0.5391845703125,-6223,5718,-765,0,-1,-2
94323478,-0.403564453125,0.131103515625,-0.7276611328125,-0.5390625,-6208,5713,-771,0,-1,-2
94333461,-0.40374755859375,0.131103515625,-0.72760009765625,-0.53900146484375,-6200,5697,-772,0,-2,-2
94343449,-0.4039306640625,0.13116455078125,-0.7275390625,-0.53887939453125,-6195,5689,-772,0,-2,-1
94353433,-0.40411376953125,0.131103515625,-0.72747802734375,-0.53887939453125,-6186,5683,-778,0,-2,-1
94363416,-0.40423583984375,0.131103515625,-0.7274169921875,-0.538818359375,-6171,5664,-788,0,-2,-1
94373403,-0.40447998046875,0.131103515625,-0.72735595703125,-0.53875732421875,-6150,5640,-782,0,-2,-2
94383380,-0.40472412109375,0.1312255859375,-0.72723388671875,-0.5386962890625,-6121,5604,-783,0,-2,-3
94393361,-0.405029296875,0.13140869140625,-0.7271728515625,-0.53857421875,-6102,5577,-774,0,-2,-3
94403350,-0.40533447265625,0.131591796875,-0.72705078125,-0.53839111328125,-6072,5553,-773,0,-2,-4
94413322,-0.40570068359375,0.1318359375,-0.72698974609375,-0.53814697265625,-6051,5530,-776,0,-2,-4
94423304,-0.406005859375,0.132080078125,-0.7269287109375,-0.53790283203125,-6031,5516,-771,0,-1,-4
94433293,-0.40631103515625,0.1322021484375,-0.7269287109375,-0.5377197265625,-6022,5494,-765,0,-2,-3
94443270,-0.40655517578125,0.13232421875,-0.7269287109375,-0.53753662109375,-6001,5475,-761,1,-2,-3
94453256,-0.40679931640625,0.13232421875,-0.7269287109375,-0.53729248046875,-5994,5457,-770,1,-1,-2
94463242,-0.406982421875,0.13232421875,-0.72698974609375,-0.537109375,-5997,5463,-767,1,-1,-2
94473224,-0.4071044921875,0.13232421875,-0.72705078125,-0.536865234375,-5999,5457,-771,2,-1,-1
94483207,-0.4072265625,0.1322021484375,-0.7271728515625,-0.53662109375,-6004,5463,-778,2,-1,-1
94493188,-0.4073486328125,0.132080078125,-0.72735595703125,-0.536376953125,-6024,5482,-781,2,-1,-1
94503183,-0.40740966796875,0.13189697265625,-0.7275390625,-0.53607177734375,-6033,5495,-794,2,-1,0
94513161,-0.407470703125,0.1317138671875,-0.72772216796875,-0.53582763671875,-6046,5518,-805,3,-1,0
94523139,-0.407470703125,0.13153076171875,-0.72796630859375,-0.53558349609375,-6049,5536,-808,3,-1,0
94533114,-0.40753173828125,0.13134765625,-0.7281494140625,-0.5352783203125,-6054,5549,-808,3,-1,0
94543104,-0.4075927734375,0.1312255859375,-0.7283935546875,-0.53497314453125,-6058,5556,-814,3,0,-1
94553081,-0.40771484375,0.13116455078125,-0.72857666015625,-0.53460693359375,-6058,5559,-818,3,0,-2
94563064,-0.4078369140625,0.131103515625,-0.72882080078125,-0.53424072265625,-6069,5573,-813,3,0,-2
94573051,-0.407958984375,0.131103515625,-0.72900390625,-0.53387451171875,-6067,5608,-813,3,0,-3
94583030,-0.4080810546875,0.13116455078125,-0.72918701171875,-0.53350830078125,-6072,5630,-806,2,0,-2
94593012,-0.40814208984375,0.1312255859375,-0.7293701171875,-0.533203125,-6062,5641,-792,2,0,-3
94602996,-0.40826416015625,0.13134765625,-0.72955322265625,-0.5328369140625,-6057,5647,-786,2,0,-3
94612982,-0.40838623046875,0.1314697265625,-0.72967529296875,-0.5325927734375,-6063,5659,-782,2,0,-3
94622958,-0.408447265625,0.13165283203125,-0.72979736328125,-0.53228759765625,-6069,5663,-782,1,1,-3
94632941,-0.40850830078125,0.1318359375,-0.72991943359375,-0.53204345703125,-6067,5673,-782,1,1,-3
94642923,-0.4085693359375,0.13201904296875,-0.73004150390625,-0.53179931640625,-6078,5680,-777,1,1,-3
94652906,-0.40863037109375,0.1322021484375,-0.73004150390625,-0.53167724609375,-6081,5675,-777,0,0,-3
94662888,-0.40863037109375,0.13238525390625,-0.7301025390625,-0.531494140625,-6083,5671,-767,0,1,-3
94672872,-0.40869140625,0.13262939453125,-0.73016357421875,-0.53131103515625,-6075,5656,-761,0,1,-3
94682854,-0.40875244140625,0.1328125,-0.73016357421875,-0.53118896484375,-6064,5650,-760,0,0,-3
94692838,-0.40887451171875,0.13311767578125,-0.730224609375,-0.531005859375,-6054,5634,-759,0,1,-4
94702820,-0.408935546875,0.1334228515625,-0.730224609375,-0.5308837890625,-6036,5617,-740,0,1,-4
94712802,-0.4090576171875,0.1337890625,-0.730224609375,-0.53070068359375,-6024,5612,-741,0,1,-4
94722784,-0.40911865234375,0.13409423828125,-0.73028564453125,-0.530517578125,-6015,5611,-733,0,1,-4
94732772,-0.4091796875,0.1343994140625,-0.73028564453125,-0.5303955078125,-6007,5603,-735,0,1,-3
94742756,-0.40911865234375,0.1346435546875,-0.73028564453125,-0.53033447265625,-6003,5601,-747,-1,1,-3
94752737,-0.408935546875,0.1348876953125,-0.73040771484375,-0.5302734375,-5990,5591,-767,-1,2,-1
94762719,-0.40863037109375,0.135009765625,-0.73046875,-0.5303955078125,-5990,5584,-789,-1,2,0
94772697,-0.40826416015625,0.1351318359375,-0.73052978515625,-0.530517578125,-5992,5580,-796,-1,3,0
94782681,-0.4078369140625,0.13519287109375,-0.73065185546875,-0.53070068359375,-5998,5574,-798,-2,3,1
94792662,-0.40740966796875,0.13531494140625,-0.73077392578125,-0.53082275390625,-6010,5565,-809,-2,3,2
94802646,-0.40692138671875,0.13543701171875,-0.7308349609375,-0.53106689453125,-6030,5574,-823,-2,3,1
