subject,Joshua Spiesman
arm,left
label,3
hz,100.17433022703267
time,4.462221

timestamp_us,q0,q1,q2,q3,ax,ay,az,gx,gy,gz
140892262,-0.35845947265625,0.262939453125,-0.67987060546875,-0.58331298828125,-6856,4883,-789,-29,4,-3
140902256,-0.35711669921875,0.26470947265625,-0.67803955078125,-0.58544921875,-6831,4852,-808,-31,5,1
140912234,-0.35528564453125,0.266357421875,-0.67626953125,-0.58782958984375,-6812,4842,-832,-32,6,4
140922217,-0.35308837890625,0.267822265625,-0.67462158203125,-0.5904541015625,-6810,4873,-857,-33,7,8
140932206,-0.35040283203125,0.26910400390625,-0.67303466796875,-0.59320068359375,-6830,4907,-875,-35,9,11
140942189,-0.34747314453125,0.2705078125,-0.67144775390625,-0.5960693359375,-6853,4939,-889,-36,10,12
140952174,-0.344482421875,0.2720947265625,-0.6697998046875,-0.59893798828125,-6855,4955,-900,-37,12,10
140962153,-0.3416748046875,0.27410888671875,-0.66796875,-0.6016845703125,-6844,4967,-874,-38,13,6
140972123,-0.33917236328125,0.27667236328125,-0.66595458984375,-0.6041259765625,-6820,4965,-835,-38,13,0
140982111,-0.33709716796875,0.2799072265625,-0.66363525390625,-0.6063232421875,-6791,4952,-790,-39,14,-8
140992090,-0.3355712890625,0.28375244140625,-0.66107177734375,-0.60821533203125,-6785,4947,-736,-38,15,-15
141002073,-0.33453369140625,0.28802490234375,-0.6583251953125,-0.60980224609375,-6791,4941,-675,-38,14,-21
141012055,-0.333740234375,0.29254150390625,-0.6553955078125,-0.61114501953125,-6788,4912,-622,-37,14,-24
141022036,-0.33319091796875,0.297119140625,-0.6524658203125,-0.6124267578125,-6790,4853,-555,-36,14,-25
141032022,-0.3326416015625,0.30157470703125,-0.6495361328125,-0.6136474609375,-6797,4778,-502,-35,13,-23
141042006,-0.33203125,0.3056640625,-0.6468505859375,-0.61480712890625,-6799,4691,-451,-33,13,-20
141051994,-0.3311767578125,0.30938720703125,-0.644287109375,-0.6160888671875,-6795,4597,-402,-32,12,-16
141061978,-0.3302001953125,0.3126220703125,-0.64190673828125,-0.617431640625,-6789,4515,-364,-31,11,-12
141071954,-0.32916259765625,0.3154296875,-0.6397705078125,-0.6187744140625,-6780,4464,-327,-29,10,-9
141081936,-0.32806396484375,0.31793212890625,-0.6378173828125,-0.6201171875,-6757,4418,-301,-27,9,-7
141091919,-0.326904296875,0.320068359375,-0.63604736328125,-0.6214599609375,-6722,4347,-281,-25,8,-5
141101899,-0.3258056640625,0.32196044921875,-0.63446044921875,-0.6226806640625,-6668,4278,-278,-23,7,-3
141111881,-0.32464599609375,0.3236083984375,-0.63299560546875,-0.62396240234375,-6607,4214,-271,-22,6,-1
141121870,-0.323486328125,0.32501220703125,-0.63165283203125,-0.62518310546875,-6560,4156,-262,-20,5,0
141131848,-0.32232666015625,0.326171875,-0.63043212890625,-0.62640380859375,-6512,4101,-256,-19,4,1
141141830,-0.3211669921875,0.3271484375,-0.62933349609375,-0.6275634765625,-6478,4049,-237,-18,4,3
141151814,-0.3199462890625,0.32794189453125,-0.6282958984375,-0.6287841796875,-6458,4014,-220,-17,3,4
141161797,-0.31884765625,0.32855224609375,-0.62738037109375,-0.62994384765625,-6458,4010,-197,-16,3,5
141171775,-0.3177490234375,0.32904052734375,-0.6265869140625,-0.631103515625,-6453,4018,-169,-15,2,5
141181767,-0.31671142578125,0.3294677734375,-0.6258544921875,-0.63214111328125,-6440,4040,-141,-13,2,5
141191751,-0.31573486328125,0.32977294921875,-0.62518310546875,-0.633056640625,-6423,4100,-118,-12,2,4
141201733,-0.31494140625,0.330078125,-0.62457275390625,-0.6339111328125,-6385,4183,-93,-11,1,3
141211709,-0.31427001953125,0.33038330078125,-0.6240234375,-0.6346435546875,-6336,4264,-89,-9,1,2
141221692,-0.3135986328125,0.3306884765625,-0.62359619140625,-0.63519287109375,-6312,4338,-113,-8,1,1
141231675,-0.3128662109375,0.33087158203125,-0.623291015625,-0.6357421875,-6300,4429,-133,-7,1,3
141241657,-0.31195068359375,0.33087158203125,-0.62322998046875,-0.63629150390625,-6302,4527,-158,-6,2,6
141251641,-0.31072998046875,0.33050537109375,-0.6234130859375,-0.63690185546875,-6304,4605,-165,-6,2,10
141261623,-0.3092041015625,0.32989501953125,-0.623779296875,-0.63763427734375,-6276,4682,-159,-5,3,13
141271606,-0.30743408203125,0.3292236328125,-0.62420654296875,-0.63836669921875,-6235,4729,-135,-5,4,15
141281588,-0.3055419921875,0.3284912109375,-0.624755859375,-0.63909912109375,-6183,4782,-145,-5,5,15
141291571,-0.30352783203125,0.327880859375,-0.62530517578125,-0.63983154296875,-6098,4806,-160,-5,6,15
141301553,-0.30145263671875,0.32745361328125,-0.6258544921875,-0.6405029296875,-6019,4813,-189,-6,7,14
141311536,-0.29931640625,0.32720947265625,-0.62646484375,-0.64111328125,-5965,4825,-215,-7,8,14
141321516,-0.29705810546875,0.3270263671875,-0.626953125,-0.6417236328125,-5925,4860,-215,-7,10,14
141331498,-0.294677734375,0.326904296875,-0.62750244140625,-0.642333984375,-5919,4923,-198,-8,11,15
141341482,-0.29205322265625,0.32684326171875,-0.62811279296875,-0.64300537109375,-5948,4982,-169,-8,12,16
141351465,-0.28912353515625,0.32672119140625,-0.62872314453125,-0.64373779296875,-5966,5007,-140,-9,13,18
141361449,-0.28607177734375,0.32666015625,-0.62939453125,-0.64447021484375,-5964,4972,-113,-9,15,19
141371436,-0.28302001953125,0.3267822265625,-0.63006591796875,-0.64520263671875,-5947,4910,-68,-9,16,18
141381419,-0.28009033203125,0.32720947265625,-0.6304931640625,-0.64581298828125,-5954,4867,12,-10,17,15
141391401,-0.27752685546875,0.3280029296875,-0.6307373046875,-0.646240234375,-6000,4857,93,-10,18,10
141401378,-0.275146484375,0.32916259765625,-0.63079833984375,-0.6466064453125,-6176,4934,136,-10,19,7
141411359,-0.2728271484375,0.33056640625,-0.63079833984375,-0.64691162109375,-6522,5056,169,-11,19,6
141421350,-0.2705078125,0.33203125,-0.63067626953125,-0.64727783203125,-7002,5179,182,-12,20,9
141431328,-0.26800537109375,0.33355712890625,-0.63043212890625,-0.647705078125,-7509,5257,199,-13,20,10
141441312,-0.265869140625,0.33544921875,-0.6300048828125,-0.6480712890625,-8045,5334,255,-14,20,5
141451297,-0.2646484375,0.338134765625,-0.62890625,-0.648193359375,-8675,5438,345,-14,19,-6
141461274,-0.26513671875,0.34222412109375,-0.62689208984375,-0.64776611328125,-9375,5522,489,-14,18,-27
141471257,-0.26788330078125,0.3482666015625,-0.6236572265625,-0.6466064453125,-10218,5627,643,-14,18,-53
141481245,-0.272705078125,0.356201171875,-0.61920166015625,-0.64453125,-11183,5736,748,-14,17,-77
141491228,-0.27935791015625,0.36553955078125,-0.6136474609375,-0.64178466796875,-12112,5683,824,-14,15,-94
141501210,-0.2872314453125,0.37567138671875,-0.60723876953125,-0.6385498046875,-12889,5371,856,-15,12,-104
141511195,-0.2958984375,0.38604736328125,-0.60015869140625,-0.635009765625,-13477,4840,881,-15,8,-109
141521185,-0.3052978515625,0.39654541015625,-0.59246826171875,-0.63134765625,-13903,4213,938,-16,4,-114
141531174,-0.3153076171875,0.40704345703125,-0.58416748046875,-0.62744140625,-14210,3612,1025,-15,1,-120
141541153,-0.32611083984375,0.4176025390625,-0.5753173828125,-0.6231689453125,-14429,3060,1101,-14,-2,-127
141551118,-0.33740234375,0.42816162109375,-0.5660400390625,-0.61846923828125,-14620,2648,1165,-13,-4,-134
141561103,-0.348876953125,0.43841552734375,-0.5565185546875,-0.613525390625,-14783,2373,1164,-11,-7,-136
141571085,-0.36041259765625,0.44818115234375,-0.54681396484375,-0.60845947265625,-14922,2194,1107,-11,-10,-137
141581068,-0.3721923828125,0.45770263671875,-0.53692626953125,-0.6031494140625,-14980,2042,1051,-10,-13,-142
141591052,-0.384765625,0.46759033203125,-0.52618408203125,-0.5970458984375,-14953,1952,966,-8,-15,-159
141601034,-0.3988037109375,0.4783935546875,-0.5142822265625,-0.58966064453125,-14867,1908,852,-6,-16,-184
141611016,-0.4146728515625,0.490478515625,-0.5006103515625,-0.5804443359375,-14749,1888,760,-4,-17,-214
141620999,-0.4320068359375,0.50335693359375,-0.4853515625,-0.56964111328125,-14659,1918,662,-2,-18,-238
141630985,-0.44970703125,0.5162353515625,-0.46923828125,-0.5577392578125,-14561,1949,567,-1,-19,-247
141640965,-0.4669189453125,0.5283203125,-0.4530029296875,-0.545654296875,-14445,1985,489,0,-21,-243
141650944,-0.48291015625,0.5390625,-0.437255859375,-0.533935546875,-14297,2037,400,0,-23,-232
141660927,-0.497802734375,0.548583984375,-0.42193603515625,-0.522705078125,-14124,2086,317,1,-25,-222
141670910,-0.5118408203125,0.5572509765625,-0.4068603515625,-0.5118408203125,-13895,2112,266,0,-27,-217
141680893,-0.5255126953125,0.56549072265625,-0.3916015625,-0.500732421875,-13625,2127,215,0,-27,-219
141690878,-0.53900146484375,0.57354736328125,-0.37591552734375,-0.4891357421875,-13331,2077,176,-1,-27,-225
141700860,-0.55230712890625,0.58135986328125,-0.35980224609375,-0.47711181640625,-12971,1948,179,0,-28,-227
141710839,-0.5654296875,0.5887451171875,-0.34332275390625,-0.464599609375,-12537,1802,181,1,-28,-229
141720823,-0.57830810546875,0.595703125,-0.32659912109375,-0.45172119140625,-12098,1632,203,2,-28,-230
141730807,-0.59088134765625,0.60223388671875,-0.30975341796875,-0.4384765625,-11698,1515,236,3,-27,-232
141740787,-0.60308837890625,0.6082763671875,-0.29296875,-0.42486572265625,-11333,1399,271,4,-25,-231
141750768,-0.61474609375,0.61395263671875,-0.27630615234375,-0.41082763671875,-11047,1284,269,4,-23,-231
141760758,-0.6258544921875,0.61932373046875,-0.25982666015625,-0.3966064453125,-10744,1127,240,5,-22,-228
141770742,-0.636474609375,0.624267578125,-0.24334716796875,-0.38214111328125,-10333,931,202,5,-21,-227
141780719,-0.64678955078125,0.62884521484375,-0.2265625,-0.3673095703125,-9783,722,152,5,-22,-228
141790700,-0.65692138671875,0.63311767578125,-0.20941162109375,-0.35186767578125,-9213,513,93,6,-21,-231
141800683,-0.66668701171875,0.63702392578125,-0.1920166015625,-0.3359375,-8681,267,74,7,-20,-231
141810666,-0.6759033203125,0.64044189453125,-0.17498779296875,-0.31988525390625,-8221,-4,103,8,-18,-225
141820646,-0.68450927734375,0.643310546875,-0.1585693359375,-0.30413818359375,-7853,-252,119,8,-16,-217
141830636,-0.6923828125,0.6456298828125,-0.14300537109375,-0.28875732421875,-7605,-487,123,9,-14,-209
141840614,-0.699462890625,0.64752197265625,-0.12823486328125,-0.2740478515625,-7382,-681,122,9,-13,-198
141850595,-0.70599365234375,0.64892578125,-0.1138916015625,-0.259765625,-7100,-858,113,9,-14,-193
141860579,-0.7122802734375,0.65008544921875,-0.09942626953125,-0.2452392578125,-6749,-1074,132,9,-13,-195
141870565,-0.718505859375,0.6510009765625,-0.0843505859375,-0.2298583984375,-6325,-1290,190,10,-12,-202
141880545,-0.724853515625,0.65155029296875,-0.0684814453125,-0.213134765625,-5912,-1472,231,12,-9,-214
141890528,-0.73095703125,0.65185546875,-0.0521240234375,-0.1953125,-5544,-1616,268,12,-7,-219
141900512,-0.736572265625,0.65167236328125,-0.0360107421875,-0.17742919921875,-5180,-1712,295,12,-6,-215
141910495,-0.74151611328125,0.65118408203125,-0.02069091796875,-0.16009521484375,-4779,-1760,321,11,-4,-204
141920477,-0.74578857421875,0.65045166015625,-0.00634765625,-0.143798828125,-4356,-1728,343,9,-4,-190
141930460,-0.749267578125,0.649658203125,0.007080078125,-0.12841796875,-3929,-1618,333,7,-3,-178
141940439,-0.752197265625,0.6488037109375,0.02008056640625,-0.11346435546875,-3450,-1461,301,4,-3,-173
141950430,-0.7545166015625,0.64801025390625,0.0333251953125,-0.09832763671875,-2934,-1266,259,1,-3,-173
141960414,-0.75634765625,0.64715576171875,0.04693603515625,-0.0828857421875,-2438,-1047,225,-2,-4,-176
141970396,-0.757568359375,0.6463623046875,0.060791015625,-0.067626953125,-1959,-877,201,-5,-7,-172
141980372,-0.75811767578125,0.6456298828125,0.07427978515625,-0.053466796875,-1461,-747,204,-9,-10,-159
141990354,-0.758056640625,0.64508056640625,0.08685302734375,-0.041015625,-874,-676,230,-12,-14,-138
142000336,-0.75738525390625,0.644775390625,0.09832763671875,-0.03070068359375,-189,-690,304,-15,-18,-115
142010319,-0.7562255859375,0.64483642578125,0.10833740234375,-0.02264404296875,557,-739,353,-18,-21,-90
142020302,-0.7547607421875,0.645263671875,0.11724853515625,-0.0164794921875,1347,-763,401,-20,-24,-69
142030284,-0.75299072265625,0.6458740234375,0.1253662109375,-0.01153564453125,2194,-770,428,-21,-25,-55
142040266,-0.7509765625,0.646728515625,0.1331787109375,-0.00732421875,3073,-750,438,-23,-26,-46
142050247,-0.748779296875,0.64764404296875,0.14080810546875,-0.00360107421875,3907,-713,435,-24,-28,-39
142060237,-0.74652099609375,0.648681640625,0.14794921875,-0.00079345703125,4730,-667,444,-24,-29,-27
142070220,-0.74420166015625,0.64984130859375,0.15435791015625,0.0009765625,5589,-714,479,-23,-31,-12
142080206,-0.74212646484375,0.65093994140625,0.1597900390625,0.0015869140625,6458,-895,590,-21,-30,3
142090188,-0.74029541015625,0.6519775390625,0.16400146484375,0.00103759765625,7248,-1181,737,-17,-29,19
142100174,-0.73895263671875,0.65277099609375,0.16668701171875,-0.00091552734375,7868,-1495,876,-13,-26,37
142110156,-0.738037109375,0.6536865234375,0.16729736328125,-0.00482177734375,8284,-1818,959,-8,-23,61
142120126,-0.737548828125,0.6546630859375,0.1651611328125,-0.01123046875,8459,-2091,1001,-3,-20,92
142130110,-0.7373046875,0.656005859375,0.15985107421875,-0.02081298828125,8433,-2312,1015,1,-17,127
142140089,-0.7371826171875,0.65765380859375,0.1512451171875,-0.03369140625,8260,-2506,1011,5,-15,163
142150078,-0.737060546875,0.65936279296875,0.13970947265625,-0.04931640625,7949,-2651,1012,9,-12,192
142160061,-0.73675537109375,0.66094970703125,0.12591552734375,-0.06695556640625,7494,-2724,996,13,-10,212
142170044,-0.73626708984375,0.662109375,0.11029052734375,-0.08612060546875,6876,-2708,984,16,-7,226
142180024,-0.7354736328125,0.6627197265625,0.09332275390625,-0.1060791015625,6129,-2595,932,20,-4,233
142190008,-0.7342529296875,0.6627197265625,0.07525634765625,-0.126708984375,5276,-2425,882,23,-3,239
142199996,-0.7325439453125,0.66204833984375,0.0562744140625,-0.14801025390625,4365,-2200,790,26,-3,244
142209978,-0.73016357421875,0.66082763671875,0.03656005859375,-0.169921875,3489,-1998,694,28,-3,248
142219955,-0.72711181640625,0.65887451171875,0.01641845703125,-0.1922607421875,2667,-1811,609,29,-4,250
142229937,-0.723388671875,0.65631103515625,-0.0040283203125,-0.2144775390625,1872,-1668,567,29,-3,249
142239915,-0.71905517578125,0.653076171875,-0.0245361328125,-0.23638916015625,1029,-1452,568,30,-2,245
142249902,-0.71417236328125,0.649169921875,-0.0452880859375,-0.2579345703125,84,-1132,528,30,0,242
142259883,-0.708251953125,0.644775390625,-0.06658935546875,-0.27978515625,-1030,-754,453,29,-1,245
142269862,-0.70086669921875,0.63970947265625,-0.0889892578125,-0.30279541015625,-2271,-358,395,27,-3,258
142279850,-0.6915283203125,0.63385009765625,-0.11279296875,-0.32769775390625,-3555,-27,385,23,-6,278
142289833,-0.679931640625,0.62701416015625,-0.13812255859375,-0.354248046875,-4635,122,481,18,-6,300
142299813,-0.66668701171875,0.61932373046875,-0.16400146484375,-0.380859375,-5342,206,617,16,-2,305
142309798,-0.653076171875,0.61138916015625,-0.18878173828125,-0.4051513671875,-5758,315,709,15,5,285
142319773,-0.64013671875,0.60369873046875,-0.21124267578125,-0.42559814453125,-6098,509,733,16,11,248
142329766,-0.62847900390625,0.59661865234375,-0.231201171875,-0.44232177734375,-6563,811,706,17,15,210
142339749,-0.61737060546875,0.58978271484375,-0.2496337890625,-0.45684814453125,-7465,1287,636,17,15,190
142349725,-0.6048583984375,0.58221435546875,-0.26885986328125,-0.47216796875,-8676,1873,597,15,14,208
142359709,-0.58880615234375,0.57275390625,-0.29095458984375,-0.49053955078125,-9801,2467,562,10,13,259
142369689,-0.5684814453125,0.56109619140625,-0.31610107421875,-0.51202392578125,-10458,2916,541,5,16,309
142379674,-0.54534912109375,0.5482177734375,-0.34210205078125,-0.53387451171875,-10561,3155,517,2,22,325
142389657,-0.52252197265625,0.535888671875,-0.36639404296875,-0.55279541015625,-10260,3263,518,3,31,296
142399637,-0.50286865234375,0.52587890625,-0.386962890625,-0.56646728515625,-9838,3295,506,7,40,233
142409620,-0.488037109375,0.51922607421875,-0.40289306640625,-0.57440185546875,-9582,3301,482,11,45,157
142419602,-0.4775390625,0.5155029296875,-0.4151611328125,-0.577880859375,-9724,3430,474,15,48,100
142429586,-0.46893310546875,0.51287841796875,-0.4259033203125,-0.57940673828125,-10358,3694,416,18,48,84
142439569,-0.4591064453125,0.50921630859375,-0.43768310546875,-0.58172607421875,-11150,3965,276,18,47,109
142449552,-0.44586181640625,0.5030517578125,-0.4521484375,-0.58636474609375,-11673,4212,44,18,46,160
142459534,-0.42901611328125,0.49395751953125,-0.46917724609375,-0.59320068359375,-11805,4364,-191,17,45,205
142469517,-0.410400390625,0.48321533203125,-0.48712158203125,-0.6007080078125,-11704,4484,-333,19,46,221
142479503,-0.3919677734375,0.47210693359375,-0.50457763671875,-0.60736083984375,-11619,4676,-376,22,46,213
142489484,-0.37518310546875,0.46160888671875,-0.5205078125,-0.61260986328125,-11707,4974,-400,25,44,190
142499471,-0.3602294921875,0.4520263671875,-0.53472900390625,-0.616455078125,-12043,5408,-453,26,40,168
142509452,-0.34625244140625,0.4427490234375,-0.5477294921875,-0.61981201171875,-12497,5939,-591,24,35,160
142519431,-0.332275390625,0.4329833984375,-0.5599365234375,-0.6234130859375,-12894,6426,-769,19,28,164
142529422,-0.3179931640625,0.4224853515625,-0.5714111328125,-0.62762451171875,-13141,6806,-907,13,22,169
142539407,-0.303955078125,0.41192626953125,-0.5816650390625,-0.6322021484375,-13226,6985,-918,7,17,164
142549381,-0.29144287109375,0.402099609375,-0.59002685546875,-0.63665771484375,-13285,7011,-787,2,12,147
142559363,-0.281005859375,0.39373779296875,-0.59637451171875,-0.640625,-13384,6969,-607,-2,8,124
142569341,-0.2724609375,0.38677978515625,-0.60113525390625,-0.64410400390625,-13535,6890,-468,-4,5,105
142579322,-0.2652587890625,0.3807373046875,-0.60479736328125,-0.6473388671875,-13675,6755,-418,-7,1,95
142589307,-0.258544921875,0.37481689453125,-0.60784912109375,-0.65057373046875,-13719,6510,-387,-9,-3,94
142599287,-0.251953125,0.36871337890625,-0.610595703125,-0.65411376953125,-13629,6128,-286,-11,-6,97
142609268,-0.24566650390625,0.3623046875,-0.61297607421875,-0.65777587890625,-13404,5615,-89,-11,-9,97
142619256,-0.24017333984375,0.35614013671875,-0.6148681640625,-0.661376953125,-13098,5030,194,-10,-11,90
142629240,-0.2359619140625,0.35064697265625,-0.6162109375,-0.66461181640625,-12844,4477,515,-7,-13,79
142639221,-0.233154296875,0.34576416015625,-0.61700439453125,-0.66741943359375,-12723,3971,839,-4,-15,68
142649206,-0.2313232421875,0.34112548828125,-0.6175537109375,-0.669921875,-12707,3533,1124,-2,-18,64
142659189,-0.2298583984375,0.3363037109375,-0.6180419921875,-0.67242431640625,-12780,3185,1414,1,-21,67
142669179,-0.228271484375,0.330810546875,-0.61865234375,-0.67510986328125,-12873,2857,1711,2,-23,73
142679162,-0.2265625,0.32489013671875,-0.61932373046875,-0.677978515625,-12881,2546,2036,2,-25,76
142689138,-0.2255859375,0.3193359375,-0.61956787109375,-0.68072509765625,-12809,2268,2366,3,-26,66
142699117,-0.2261962890625,0.3150634765625,-0.61907958984375,-0.68292236328125,-12714,2033,2643,5,-26,45
142709095,-0.22894287109375,0.3126220703125,-0.61773681640625,-0.684326171875,-12667,1933,2887,6,-26,19
142719079,-0.233642578125,0.31207275390625,-0.61553955078125,-0.68499755859375,-12683,1980,3029,7,-26,-4
142729056,-0.2396240234375,0.31280517578125,-0.61273193359375,-0.68505859375,-12794,2168,3054,6,-26,-20
142739038,-0.24639892578125,0.31439208984375,-0.609619140625,-0.68475341796875,-12989,2456,2986,5,-25,-30
142749022,-0.253662109375,0.3167724609375,-0.606201171875,-0.68402099609375,-13185,2775,2856,3,-24,-40
142759005,-0.261962890625,0.320556640625,-0.60211181640625,-0.6827392578125,-13348,3118,2687,2,-22,-61
142768993,-0.272216796875,0.32647705078125,-0.59698486328125,-0.680419921875,-13476,3475,2529,1,-20,-91
142778976,-0.284912109375,0.3348388671875,-0.590576171875,-0.6767578125,-13655,3877,2391,0,-17,-127
142788953,-0.2996826171875,0.345458984375,-0.58282470703125,-0.67169189453125,-13843,4247,2254,0,-15,-156
142798939,-0.31549072265625,0.35736083984375,-0.57421875,-0.66571044921875,-14050,4583,2054,-2,-14,-172
142808919,-0.33123779296875,0.36956787109375,-0.5650634765625,-0.6591796875,-14267,4845,1825,-5,-13,-176
142818901,-0.34637451171875,0.38153076171875,-0.5555419921875,-0.652587890625,-14422,5024,1618,-9,-14,-175
142828886,-0.3612060546875,0.39349365234375,-0.54559326171875,-0.64581298828125,-14532,5163,1431,-12,-13,-180
142838866,-0.37640380859375,0.4058837890625,-0.53472900390625,-0.63848876953125,-14602,5237,1311,-14,-13,-193
142848849,-0.39239501953125,0.419189453125,-0.52276611328125,-0.63018798828125,-14652,5215,1216,-16,-13,-211
142858833,-0.4090576171875,0.43316650390625,-0.5096435546875,-0.6207275390625,-14707,5174,1115,-17,-12,-226
142868814,-0.42584228515625,0.447265625,-0.4957275390625,-0.610595703125,-14769,5113,988,-18,-13,-233
142878797,-0.44189453125,0.46087646484375,-0.48175048828125,-0.60028076171875,-14834,5017,829,-19,-14,-228
142888784,-0.4569091796875,0.4735107421875,-0.46783447265625,-0.59014892578125,-14858,4851,723,-20,-15,-220
142898769,-0.4710693359375,0.48529052734375,-0.45404052734375,-0.580078125,-14807,4630,676,-20,-15,-215
142908751,-0.48504638671875,0.49676513671875,-0.44000244140625,-0.56964111328125,-14718,4426,687,-18,-15,-220
142918732,-0.4993896484375,0.5081787109375,-0.42529296875,-0.55816650390625,-14588,4238,713,-16,-14,-232
142928708,-0.51416015625,0.519775390625,-0.4097900390625,-0.5455322265625,-14462,4081,696,-15,-14,-245
142938690,-0.52911376953125,0.53131103515625,-0.39361572265625,-0.5318603515625,-14373,3923,607,-14,-14,-254
142948673,-0.54376220703125,0.54248046875,-0.37701416015625,-0.51763916015625,-14220,3736,488,-13,-15,-256
142958656,-0.5579833984375,0.55303955078125,-0.3602294921875,-0.50311279296875,-13983,3462,365,-12,-17,-256
142968641,-0.57196044921875,0.5631103515625,-0.3428955078125,-0.48809814453125,-13710,3179,264,-11,-18,-260
142978625,-0.58563232421875,0.57269287109375,-0.3253173828125,-0.47247314453125,-13428,2880,157,-9,-18,-261
142988606,-0.598876953125,0.58154296875,-0.3077392578125,-0.45660400390625,-13135,2603,59,-7,-18,-259
142998590,-0.61138916015625,0.589599609375,-0.29052734375,-0.44073486328125,-12769,2333,-49,-5,-18,-252
143008571,-0.62322998046875,0.59686279296875,-0.2735595703125,-0.42486572265625,-12298,2053,-148,-3,-18,-248
143018559,-0.634765625,0.60357666015625,-0.2564697265625,-0.40869140625,-11758,1734,-235,0,-19,-248
143028542,-0.64642333984375,0.6097412109375,-0.23876953125,-0.3916015625,-11161,1432,-302,3,-19,-255
143038521,-0.658203125,0.6153564453125,-0.22064208984375,-0.37347412109375,-10592,1131,-362,8,-17,-262
143048505,-0.669921875,0.620361328125,-0.2021484375,-0.35430908203125,-10011,881,-400,12,-16,-266
143058487,-0.68145751953125,0.62457275390625,-0.18359375,-0.33447265625,-9406,699,-426,16,-14,-267
143068470,-0.69256591796875,0.6279296875,-0.16522216796875,-0.3143310546875,-8815,597,-431,19,-13,-264
143078452,-0.70294189453125,0.6304931640625,-0.14739990234375,-0.29437255859375,-8231,542,-450,22,-12,-256
143088432,-0.71258544921875,0.63226318359375,-0.1302490234375,-0.27484130859375,-7646,534,-468,23,-11,-246
143098422,-0.72149658203125,0.63330078125,-0.11370849609375,-0.25592041015625,-7108,581,-460,24,-11,-236
143108407,-0.7296142578125,0.6337890625,-0.0977783203125,-0.237548828125,-6652,653,-465,24,-10,-228
143118390,-0.73699951171875,0.6337890625,-0.08258056640625,-0.2198486328125,-6251,752,-454,23,-10,-217
143128365,-0.7435302734375,0.6334228515625,-0.06817626953125,-0.203125,-5845,888,-415,21,-10,-204
143138350,-0.74932861328125,0.63287353515625,-0.0543212890625,-0.1871337890625,-5387,1029,-353,18,-10,-195
143148330,-0.7545166015625,0.63214111328125,-0.04052734375,-0.171630859375,-4913,1153,-288,15,-12,-190
143158312,-0.7591552734375,0.63134765625,-0.0264892578125,-0.15618896484375,-4433,1240,-194,12,-13,-190
143168297,-0.7633056640625,0.6304931640625,-0.011962890625,-0.14056396484375,-3966,1281,-93,9,-15,-190
143178280,-0.766845703125,0.62957763671875,0.00286865234375,-0.12493896484375,-3507,1272,4,5,-16,-189
143188261,-0.769775390625,0.62860107421875,0.01788330078125,-0.1094970703125,-3001,1225,112,2,-17,-185
143198242,-0.77203369140625,0.627685546875,0.0328369140625,-0.09442138671875,-2485,1147,208,-2,-19,-179
143208232,-0.7735595703125,0.6268310546875,0.04766845703125,-0.07989501953125,-1903,1056,279,-6,-21,-171
143218216,-0.77435302734375,0.626220703125,0.06231689453125,-0.06610107421875,-1235,962,336,-11,-23,-162
143228196,-0.7744140625,0.62579345703125,0.07672119140625,-0.0528564453125,-475,808,407,-16,-24,-152
143238187,-0.7738037109375,0.6256103515625,0.0908203125,-0.0400390625,362,591,501,-20,-23,-144
143248174,-0.7725830078125,0.6256103515625,0.10479736328125,-0.02740478515625,1276,296,602,-24,-23,-139
143258153,-0.77081298828125,0.625732421875,0.1187744140625,-0.01458740234375,2238,-33,686,-28,-22,-136
143268125,-0.76849365234375,0.62591552734375,0.13262939453125,-0.00177001953125,3221,-346,768,-31,-21,-131
143278110,-0.7657470703125,0.626220703125,0.14599609375,0.0107421875,4276,-624,815,-34,-19,-122
143288090,-0.76263427734375,0.6265869140625,0.15875244140625,0.02288818359375,5392,-889,839,-35,-17,-112
143298072,-0.75933837890625,0.626953125,0.170654296875,0.0345458984375,6537,-1173,895,-35,-14,-100
143308055,-0.75604248046875,0.627197265625,0.1815185546875,0.04571533203125,7642,-1480,1021,-34,-9,-89
143318038,-0.75299072265625,0.6270751953125,0.19122314453125,0.056640625,8670,-1764,1205,-31,-4,-80
143328020,-0.7503662109375,0.62646484375,0.1998291015625,0.06719970703125,9583,-2060,1404,-27,2,-70
143337998,-0.74835205078125,0.6256103515625,0.20660400390625,0.076416015625,10265,-2291,1617,-22,7,-50
143347986,-0.7470703125,0.62493896484375,0.210693359375,0.0831298828125,10748,-2467,1797,-17,10,-17
143357961,-0.74664306640625,0.62481689453125,0.21136474609375,0.08612060546875,11054,-2662,1920,-12,14,25
143367942,-0.7470703125,0.6253662109375,0.20849609375,0.08563232421875,11168,-2842,1970,-7,18,64
143377927,-0.748291015625,0.6263427734375,0.20245361328125,0.08197021484375,11057,-2984,1975,-2,23,97
143387914,-0.75030517578125,0.62750244140625,0.19366455078125,0.07574462890625,10699,-3064,1964,3,27,124
143397893,-0.75286865234375,0.6287841796875,0.18243408203125,0.06719970703125,10137,-3052,1907,8,31,147
143407878,-0.75579833984375,0.6300048828125,0.16912841796875,0.05670166015625,9411,-2937,1825,12,34,167
143417860,-0.75885009765625,0.6312255859375,0.15411376953125,0.0443115234375,8567,-2757,1707,15,35,183
143427844,-0.76177978515625,0.63238525390625,0.13751220703125,0.03021240234375,7649,-2533,1555,17,35,199
143437826,-0.76446533203125,0.63336181640625,0.11944580078125,0.014404296875,6728,-2303,1411,18,35,213
143447808,-0.7667236328125,0.634033203125,0.10040283203125,-0.00262451171875,5833,-2088,1260,19,34,222
143457792,-0.7685546875,0.63433837890625,0.08062744140625,-0.02056884765625,4950,-1895,1129,21,34,227
143467770,-0.76983642578125,0.6341552734375,0.060302734375,-0.03924560546875,4026,-1656,1020,21,32,231
143477760,-0.77056884765625,0.6334228515625,0.03955078125,-0.05859375,3085,-1355,907,22,30,233
143487744,-0.7706298828125,0.6322021484375,0.01849365234375,-0.07861328125,2134,-1052,794,23,27,236
143497721,-0.7698974609375,0.63043212890625,-0.00274658203125,-0.0994873046875,1240,-799,711,22,23,240
143507703,-0.76824951171875,0.628173828125,-0.024169921875,-0.12109375,429,-620,668,20,20,244
143517685,-0.76568603515625,0.6253662109375,-0.04583740234375,-0.1431884765625,-336,-531,655,19,18,247
143527666,-0.76226806640625,0.6220703125,-0.067626953125,-0.16558837890625,-1064,-524,641,18,17,248
143537651,-0.7581787109375,0.6181640625,-0.089111328125,-0.1876220703125,-1857,-461,631,18,16,241
143547636,-0.75341796875,0.61358642578125,-0.1102294921875,-0.2091064453125,-2810,-294,549,19,14,233
143557616,-0.74786376953125,0.60845947265625,-0.13134765625,-0.23077392578125,-4046,15,451,18,11,233
143567599,-0.74066162109375,0.6025390625,-0.15386962890625,-0.2545166015625,-5407,406,353,15,8,255
143577582,-0.73089599609375,0.59552001953125,-0.1788330078125,-0.28131103515625,-6479,802,293,9,8,291
143587564,-0.71856689453125,0.58758544921875,-0.205322265625,-0.310302734375,-7088,1022,253,2,10,317
143597547,-0.70452880859375,0.5791015625,-0.23150634765625,-0.338623046875,-7310,1031,276,-2,14,314
143607527,-0.6905517578125,0.57086181640625,-0.2552490234375,-0.36358642578125,-7379,967,326,-2,17,279
143617517,-0.67822265625,0.5634765625,-0.2750244140625,-0.38330078125,-7590,1045,393,1,18,221
143627496,-0.66796875,0.5570068359375,-0.29150390625,-0.3983154296875,-8319,1346,416,4,18,170
143637479,-0.65838623046875,0.5509033203125,-0.30657958984375,-0.4112548828125,-9439,1814,370,5,18,153
143647461,-0.6473388671875,0.5440673828125,-0.32269287109375,-0.42529296875,-10614,2390,266,1,17,174
143657449,-0.63336181640625,0.53564453125,-0.3409423828125,-0.44244384765625,-11436,2847,158,-5,17,218
143667431,-0.6163330078125,0.52557373046875,-0.36083984375,-0.4622802734375,-11704,3027,95,-10,16,256
143677413,-0.59796142578125,0.51470947265625,-0.38037109375,-0.48260498046875,-11503,2908,74,-13,15,263
143687397,-0.5804443359375,0.5042724609375,-0.39764404296875,-0.50067138671875,-11024,2568,161,-13,15,238
143697374,-0.56561279296875,0.49530029296875,-0.41168212890625,-0.51507568359375,-10707,2319,325,-9,13,192
143707355,-0.5535888671875,0.48773193359375,-0.4229736328125,-0.526123046875,-10832,2228,485,-4,12,152
143717342,-0.543212890625,0.48065185546875,-0.43304443359375,-0.53521728515625,-11210,2220,623,1,10,136
143727321,-0.53277587890625,0.47308349609375,-0.44317626953125,-0.5440673828125,-11698,2360,707,4,9,143
143737307,-0.5211181640625,0.46405029296875,-0.454345703125,-0.5538330078125,-11982,2481,766,7,8,165
143747293,-0.50799560546875,0.45343017578125,-0.4664306640625,-0.56463623046875,-11927,2538,841,8,7,188
143757270,-0.493896484375,0.44171142578125,-0.47900390625,-0.5758056640625,-11582,2542,892,11,7,198
143767256,-0.48004150390625,0.4296875,-0.49114990234375,-0.5863037109375,-11020,2425,970,14,7,193
143777243,-0.46728515625,0.4180908203125,-0.50250244140625,-0.5953369140625,-10486,2385,1055,20,7,177
143787225,-0.45574951171875,0.40692138671875,-0.51312255859375,-0.6029052734375,-10085,2456,1123,25,8,162
143797208,-0.4449462890625,0.39599609375,-0.52349853515625,-0.60931396484375,-9800,2621,1179,30,9,156
143807187,-0.43402099609375,0.38470458984375,-0.5341796875,-0.6151123046875,-9633,2908,1172,34,10,158
143817181,-0.4222412109375,0.37249755859375,-0.54547119140625,-0.620849609375,-9541,3291,1124,38,11,169
143827165,-0.4091796875,0.35894775390625,-0.5576171875,-0.6268310546875,-9512,3775,1054,42,12,186
143837140,-0.39471435546875,0.3438720703125,-0.57049560546875,-0.63287353515625,-9511,4330,955,46,12,201
143847117,-0.379150390625,0.3275146484375,-0.583984375,-0.6387939453125,-9632,4987,834,51,13,213
143857099,-0.3626708984375,0.31005859375,-0.597900390625,-0.6441650390625,-9980,5781,696,56,13,222
143867081,-0.345458984375,0.29156494140625,-0.6119384765625,-0.6490478515625,-10576,6680,588,59,12,232
143877064,-0.32745361328125,0.27203369140625,-0.6259765625,-0.65350341796875,-11313,7567,448,62,12,243
143887051,-0.3087158203125,0.2515869140625,-0.6396484375,-0.657470703125,-11959,8362,225,63,9,252
143897030,-0.2900390625,0.23089599609375,-0.652587890625,-0.660888671875,-12398,9070,-49,61,7,250
143907012,-0.27288818359375,0.21160888671875,-0.6640625,-0.6632080078125,-12647,9637,-273,57,4,225
143916995,-0.25921630859375,0.1954345703125,-0.6734619140625,-0.6641845703125,-12803,10001,-415,53,1,181
143926983,-0.25042724609375,0.18402099609375,-0.68048095703125,-0.66363525390625,-12897,10234,-465,47,-1,120
143936955,-0.24713134765625,0.1781005859375,-0.68524169921875,-0.66162109375,-12953,10370,-412,41,-3,54
143946937,-0.24896240234375,0.17755126953125,-0.68780517578125,-0.65838623046875,-12948,10268,-256,33,-4,-6
143956915,-0.2548828125,0.18121337890625,-0.6883544921875,-0.65460205078125,-12867,9876,-32,24,-7,-51
143966898,-0.2633056640625,0.18756103515625,-0.6871337890625,-0.65069580078125,-12698,9159,293,15,-9,-76
143976881,-0.27288818359375,0.19512939453125,-0.68438720703125,-0.64739990234375,-12374,8238,802,5,-11,-85
143986863,-0.281982421875,0.20263671875,-0.6805419921875,-0.64532470703125,-12002,7203,1450,-6,-9,-77
143996842,-0.289306640625,0.209228515625,-0.67596435546875,-0.64471435546875,-11674,6164,2174,-16,-6,-57
144006823,-0.2943115234375,0.21441650390625,-0.671142578125,-0.645751953125,-11506,5251,2883,-24,-1,-31
144016811,-0.2969970703125,0.21832275390625,-0.66632080078125,-0.64825439453125,-11452,4427,3521,-31,3,-7
144026796,-0.29791259765625,0.22137451171875,-0.6614990234375,-0.6517333984375,-11539,3770,3989,-37,7,8
144036773,-0.29803466796875,0.22430419921875,-0.6566162109375,-0.65557861328125,-11702,3302,4282,-41,9,13
144046763,-0.2984619140625,0.22808837890625,-0.6513671875,-0.6593017578125,-11868,2980,4433,-44,10,2
144056747,-0.30023193359375,0.2335205078125,-0.64569091796875,-0.6622314453125,-11969,2785,4449,-44,11,-20
144066721,-0.3040771484375,0.24127197265625,-0.63934326171875,-0.663818359375,-12054,2687,4385,-43,12,-51
144076703,-0.3104248046875,0.25146484375,-0.63226318359375,-0.663818359375,-12169,2722,4264,-41,13,-85
144086688,-0.31915283203125,0.26397705078125,-0.62457275390625,-0.66217041015625,-12351,2877,4090,-38,13,-116
144096674,-0.32977294921875,0.27813720703125,-0.6162109375,-0.65899658203125,-12593,3117,3840,-36,13,-140
144106658,-0.341552734375,0.29327392578125,-0.60736083984375,-0.65460205078125,-12843,3401,3554,-34,12,-157
144119995,-0.35406494140625,0.3089599609375,-0.59808349609375,-0.6492919921875,-13119,3724,3223,-33,11,-168
144126623,-0.36688232421875,0.32470703125,-0.58837890625,-0.64324951171875,-13373,4067,2903,-33,9,-176
144136605,-0.38018798828125,0.34063720703125,-0.578125,-0.6365966796875,-13643,4420,2574,-33,6,-186
144146588,-0.393798828125,0.35650634765625,-0.56732177734375,-0.6292724609375,-13918,4759,2246,-33,4,-195
144156566,-0.40753173828125,0.3721923828125,-0.5560302734375,-0.62152099609375,-14180,5035,1923,-34,0,-199
144166553,-0.42108154296875,0.38726806640625,-0.54425048828125,-0.6136474609375,-14437,5301,1625,-35,-5,-199
144176533,-0.43402099609375,0.40142822265625,-0.53228759765625,-0.60601806640625,-14638,5547,1340,-36,-9,-195
144186517,-0.4462890625,0.4146728515625,-0.5201416015625,-0.59869384765625,-14754,5744,1130,-38,-13,-191
144196497,-0.4583740234375,0.4273681640625,-0.507568359375,-0.59136962890625,-14747,5851,978,-39,-16,-195
144206480,-0.470947265625,0.4403076171875,-0.49407958984375,-0.5833740234375,-14669,5849,858,-39,-18,-208
144216462,-0.484619140625,0.45391845703125,-0.47930908203125,-0.573974609375,-14542,5732,771,-38,-20,-230
144226449,-0.49957275390625,0.46807861328125,-0.46307373046875,-0.56298828125,-14445,5532,709,-36,-22,-250
144236434,-0.51519775390625,0.4822998046875,-0.4459228515625,-0.55059814453125,-14341,5259,642,-33,-23,-262
144246416,-0.53057861328125,0.49578857421875,-0.42852783203125,-0.53765869140625,-14222,4969,560,-29,-24,-260
144256400,-0.544921875,0.508056640625,-0.41168212890625,-0.52490234375,-14081,4685,499,-27,-25,-248
144266376,-0.55804443359375,0.5189208984375,-0.39556884765625,-0.5126953125,-13811,4348,486,-24,-25,-233
144276358,-0.57049560546875,0.52880859375,-0.3798828125,-0.5006103515625,-13408,3979,520,-21,-25,-228
144286339,-0.58294677734375,0.538330078125,-0.364013671875,-0.48773193359375,-12935,3577,554,-17,-23,-234
144296323,-0.59600830078125,0.5478515625,-0.34735107421875,-0.4732666015625,-12430,3177,572,-13,-22,-249
144306307,-0.6097412109375,0.55731201171875,-0.3297119140625,-0.45709228515625,-12010,2821,546,-8,-21,-264
144316293,-0.62353515625,0.56634521484375,-0.31158447265625,-0.4398193359375,-11697,2516,467,-4,-21,-270
144326269,-0.63677978515625,0.57440185546875,-0.293701171875,-0.42230224609375,-11405,2253,390,-1,-22,-264
144336256,-0.64892578125,0.58135986328125,-0.27655029296875,-0.40545654296875,-11028,2016,333,1,-22,-249
144346241,-0.66015625,0.5872802734375,-0.26025390625,-0.38934326171875,-10533,1811,289,3,-22,-237
144356224,-0.6708984375,0.592529296875,-0.244140625,-0.3731689453125,-9949,1605,287,6,-21,-235
144366206,-0.68170166015625,0.59722900390625,-0.2275390625,-0.35614013671875,-9294,1393,261,9,-21,-242
144376187,-0.69268798828125,0.60162353515625,-0.21002197265625,-0.337890625,-8642,1239,218,11,-22,-252
144386178,-0.70355224609375,0.60552978515625,-0.19189453125,-0.3187255859375,-8165,1129,145,14,-22,-257
144396161,-0.7137451171875,0.608642578125,-0.174072265625,-0.2998046875,-7836,1033,113,15,-23,-249
144406131,-0.72283935546875,0.61090087890625,-0.1572265625,-0.2821044921875,-7503,956,96,15,-24,-232
144416114,-0.73089599609375,0.61236572265625,-0.1416015625,-0.26605224609375,-7085,913,102,15,-25,-211
144426096,-0.73809814453125,0.61328125,-0.1268310546875,-0.25115966796875,-6626,827,128,14,-25,-198
144436078,-0.74468994140625,0.61383056640625,-0.11236572265625,-0.23675537109375,-6095,713,188,13,-25,-191
144446062,-0.7509765625,0.6141357421875,-0.09771728515625,-0.22210693359375,-5566,609,248,13,-24,-193
144456051,-0.75714111328125,0.61419677734375,-0.08258056640625,-0.2066650390625,-5074,481,305,13,-24,-198
144466029,-0.76300048828125,0.61407470703125,-0.06695556640625,-0.1905517578125,-4622,362,389,12,-23,-203
144476010,-0.76849365234375,0.6136474609375,-0.051025390625,-0.1739501953125,-4180,244,472,11,-22,-205
144485995,-0.77349853515625,0.613037109375,-0.03497314453125,-0.15716552734375,-3735,106,544,10,-22,-203
144495982,-0.77789306640625,0.61224365234375,-0.01885986328125,-0.140380859375,-3220,-33,639,8,-22,-201
144505959,-0.7818603515625,0.6112060546875,-0.00238037109375,-0.12322998046875,-2635,-202,714,6,-22,-202
144515941,-0.78533935546875,0.60986328125,0.01458740234375,-0.10565185546875,-2025,-356,806,6,-23,-205
144525924,-0.788330078125,0.608154296875,0.0321044921875,-0.0875244140625,-1374,-475,870,5,-24,-207
144535908,-0.790771484375,0.60614013671875,0.04986572265625,-0.06939697265625,-676,-520,932,4,-25,-204
144545891,-0.79248046875,0.6038818359375,0.06744384765625,-0.05194091796875,71,-498,995,1,-28,-194
144555878,-0.79351806640625,0.6015625,0.08447265625,-0.03582763671875,894,-442,1073,-1,-30,-178
144565854,-0.7939453125,0.5992431640625,0.10064697265625,-0.02130126953125,1822,-404,1193,-4,-32,-158
144575836,-0.7938232421875,0.596923828125,0.11602783203125,-0.0084228515625,2759,-416,1333,-5,-34,-139
144585817,-0.7933349609375,0.59454345703125,0.1307373046875,0.00311279296875,3388,-504,1448,-5,-38,-129
144595805,-0.792724609375,0.59173583984375,0.145751953125,0.01312255859375,3697,-516,1541,0,-50,-123
144605786,-0.79205322265625,0.58837890625,0.16143798828125,0.02020263671875,3971,-457,1572,8,-72,-106
144615765,-0.791259765625,0.58465576171875,0.1776123046875,0.02294921875,4661,-407,1441,17,-94,-74
144625759,-0.79034423828125,0.58087158203125,0.1937255859375,0.021728515625,5851,-402,1222,23,-108,-39
144635741,-0.78936767578125,0.5772705078125,0.2083740234375,0.01727294921875,7085,-509,1027,28,-108,-4
144645719,-0.7884521484375,0.57415771484375,0.22027587890625,0.0096435546875,8090,-666,904,30,-104,33
144655698,-0.78778076171875,0.57183837890625,0.2288818359375,-0.0009765625,8787,-828,830,31,-96,69
144665683,-0.7872314453125,0.57025146484375,0.2342529296875,-0.01434326171875,9179,-987,751,32,-88,101
144675665,-0.7867431640625,0.56939697265625,0.236572265625,-0.030029296875,9333,-1082,659,32,-79,129
144685647,-0.7861328125,0.5692138671875,0.23602294921875,-0.04754638671875,9317,-1160,593,32,-70,153
144695636,-0.78533935546875,0.5697021484375,0.23291015625,-0.066650390625,9214,-1244,529,31,-61,175
144705615,-0.78424072265625,0.5706787109375,0.227294921875,-0.0870361328125,9046,-1350,493,30,-51,194
144715598,-0.78277587890625,0.5721435546875,0.2193603515625,-0.10833740234375,8787,-1475,473,29,-41,210
144725580,-0.78094482421875,0.57391357421875,0.20928955078125,-0.13018798828125,8447,-1614,485,28,-31,222
144735562,-0.7786865234375,0.5758056640625,0.1973876953125,-0.152099609375,8032,-1777,487,28,-20,228
144745547,-0.77618408203125,0.5775146484375,0.18402099609375,-0.1737060546875,7541,-1918,496,29,-10,231
144755524,-0.77349853515625,0.57891845703125,0.16937255859375,-0.19464111328125,7007,-2030,499,31,-1,230
144765511,-0.7706298828125,0.5799560546875,0.15374755859375,-0.21490478515625,6446,-2092,515,34,8,227
144775491,-0.76763916015625,0.58050537109375,0.136962890625,-0.23455810546875,5820,-2052,525,37,16,227
144785473,-0.76434326171875,0.58062744140625,0.1187744140625,-0.25396728515625,5103,-1947,496,41,24,230
144795456,-0.760498046875,0.58050537109375,0.09893798828125,-0.27362060546875,4318,-1787,422,44,31,238
144805436,-0.75592041015625,0.58001708984375,0.0775146484375,-0.29364013671875,3458,-1589,354,47,36,246
144815428,-0.75042724609375,0.5789794921875,0.0545654296875,-0.31414794921875,2495,-1369,319,49,40,254
144825412,-0.74395751953125,0.5772705078125,0.03009033203125,-0.335205078125,1447,-1123,363,52,43,261
144835393,-0.73638916015625,0.57489013671875,0.004150390625,-0.3568115234375,311,-765,463,54,46,270
144845369,-0.727294921875,0.57171630859375,-0.0234375,-0.3790283203125,-872,-398,573,54,49,282
144855352,-0.716552734375,0.56781005859375,-0.05242919921875,-0.4017333984375,-2023,-48,656,54,52,292
144865333,-0.70428466796875,0.5631103515625,-0.082275390625,-0.42449951171875,-3220,246,678,55,53,296
144875317,-0.6907958984375,0.5576171875,-0.1121826171875,-0.4464111328125,-4412,465,694,55,53,291
144885300,-0.6768798828125,0.55126953125,-0.14141845703125,-0.46697998046875,-5792,796,834,56,52,279
144895282,-0.66241455078125,0.5439453125,-0.17041015625,-0.4862060546875,-7301,1309,1085,57,52,269
144905266,-0.64727783203125,0.535888671875,-0.19921875,-0.50421142578125,-8595,1905,1231,57,54,262
144915247,-0.63140869140625,0.52752685546875,-0.2274169921875,-0.52093505859375,-9440,2476,1246,55,56,255
144925239,-0.615234375,0.519287109375,-0.2542724609375,-0.53594970703125,-9906,2906,1173,51,57,243
144935220,-0.59930419921875,0.5113525390625,-0.279296875,-0.54901123046875,-10219,3215,1033,47,57,224
144945206,-0.58428955078125,0.50384521484375,-0.3021240234375,-0.5599365234375,-10740,3602,935,44,54,200
144955194,-0.5699462890625,0.49658203125,-0.32330322265625,-0.5693359375,-11626,4006,967,42,51,183
144965179,-0.5556640625,0.4892578125,-0.34332275390625,-0.5780029296875,-12460,4372,1118,38,49,177
144975160,-0.54119873046875,0.4818115234375,-0.36236572265625,-0.58624267578125,-12955,4687,1207,35,48,175
144985130,-0.52679443359375,0.474609375,-0.38031005859375,-0.59381103515625,-13024,4859,1246,31,48,167
144995114,-0.51318359375,0.46820068359375,-0.396484375,-0.6002197265625,-12760,4819,1259,27,48,152
145005096,-0.50091552734375,0.46270751953125,-0.4107666015625,-0.60528564453125,-12277,4660,1251,24,47,132
145015078,-0.489990234375,0.45819091796875,-0.4232177734375,-0.6090087890625,-11819,4482,1240,22,45,114
145025062,-0.47998046875,0.4542236328125,-0.43450927734375,-0.61199951171875,-11510,4333,1266,20,44,104
145035043,-0.46990966796875,0.4501953125,-0.44537353515625,-0.614990234375,-11363,4271,1311,19,44,107
145045027,-0.4588623046875,0.445556640625,-0.45648193359375,-0.6185302734375,-11299,4242,1364,17,43,121
145055009,-0.4464111328125,0.43994140625,-0.4681396484375,-0.62298583984375,-11162,4200,1428,15,43,140
145064996,-0.43255615234375,0.4332275390625,-0.48028564453125,-0.62823486328125,-10903,4137,1486,14,43,156
145074981,-0.41778564453125,0.42572021484375,-0.49249267578125,-0.6337890625,-10549,4034,1540,14,42,165
145084956,-0.4029541015625,0.41778564453125,-0.5045166015625,-0.63922119140625,-10218,3995,1587,15,41,166
145094940,-0.38836669921875,0.4097900390625,-0.51611328125,-0.6441650390625,-10080,4126,1620,17,40,161
145104923,-0.3741455078125,0.4017333984375,-0.52740478515625,-0.64849853515625,-10108,4339,1618,19,39,157
145114906,-0.360107421875,0.3935546875,-0.53839111328125,-0.65240478515625,-10229,4599,1590,21,39,155
145124888,-0.34613037109375,0.38525390625,-0.5491943359375,-0.6558837890625,-10341,4862,1511,22,38,155
145134870,-0.332275390625,0.3768310546875,-0.55975341796875,-0.6590576171875,-10359,5099,1403,22,37,153
145144852,-0.31884765625,0.36865234375,-0.56982421875,-0.66168212890625,-10285,5309,1279,23,36,146
145154836,-0.306396484375,0.36102294921875,-0.5792236328125,-0.66357421875,-10146,5465,1161,24,35,134
145164818,-0.29522705078125,0.354248046875,-0.58782958984375,-0.66473388671875,-10004,5652,1100,25,34,119
145174800,-0.28533935546875,0.34832763671875,-0.59564208984375,-0.66522216796875,-9944,5881,1072,27,33,105
145184784,-0.27642822265625,0.3431396484375,-0.60296630859375,-0.66510009765625,-9919,6099,1032,28,34,94
145194771,-0.2681884765625,0.33856201171875,-0.60986328125,-0.66455078125,-9892,6275,936,29,34,87
145204753,-0.26025390625,0.334228515625,-0.6165771484375,-0.6636962890625,-9851,6418,796,29,33,84
145214736,-0.25262451171875,0.33013916015625,-0.623046875,-0.66259765625,-9787,6502,621,28,33,81
145224712,-0.245361328125,0.326416015625,-0.6292724609375,-0.661376953125,-9698,6543,466,27,33,77
145234694,-0.2384033203125,0.32293701171875,-0.63507080078125,-0.6600341796875,-9595,6546,334,26,32,72
145244677,-0.23199462890625,0.3199462890625,-0.64044189453125,-0.6585693359375,-9519,6554,212,25,31,66
145254659,-0.22613525390625,0.3173828125,-0.6453857421875,-0.656982421875,-9465,6557,125,24,31,60
145264642,-0.22076416015625,0.3153076171875,-0.64996337890625,-0.65533447265625,-9411,6555,61,23,31,55
145274624,-0.21575927734375,0.3135986328125,-0.65423583984375,-0.653564453125,-9347,6530,35,22,30,50
145284608,-0.211181640625,0.312255859375,-0.65814208984375,-0.65179443359375,-9276,6487,13,22,30,46
145294590,-0.2069091796875,0.31121826171875,-0.6617431640625,-0.6500244140625,-9192,6455,-45,20,30,42
145304571,-0.2030029296875,0.31060791015625,-0.66510009765625,-0.64813232421875,-9075,6371,-123,19,30,37
145314553,-0.19964599609375,0.31048583984375,-0.66802978515625,-0.64617919921875,-8971,6241,-224,17,29,30
145324536,-0.19677734375,0.31103515625,-0.6705322265625,-0.64422607421875,-8868,6112,-354,16,28,23
145334520,-0.19464111328125,0.3121337890625,-0.67254638671875,-0.6422119140625,-8759,6001,-449,14,27,15
145344503,-0.193115234375,0.31378173828125,-0.67413330078125,-0.64019775390625,-8659,5903,-520,12,25,7
145354483,-0.192138671875,0.31585693359375,-0.67529296875,-0.63824462890625,-8558,5809,-583,11,24,2
