subject,Joshua Spiesman
arm,left
label,0
hz,100.17564410203268
time,4.751654

timestamp_us,q0,q1,q2,q3,ax,ay,az,gx,gy,gz
82881423,0.8359375,-0.47906494140625,0.26629638671875,-0.02679443359375,-3485,-6548,3124,0,-2,-2
82891407,0.83599853515625,-0.47900390625,0.26617431640625,-0.02685546875,-3491,-6535,3139,0,-2,-2
82901381,0.83612060546875,-0.47894287109375,0.26605224609375,-0.02685546875,-3499,-6521,3157,1,-2,-1
82911371,0.836181640625,-0.47882080078125,0.2659912109375,-0.02679443359375,-3494,-6504,3175,1,-2,0
82921350,0.8363037109375,-0.4786376953125,0.26593017578125,-0.026611328125,-3496,-6505,3196,0,-2,1
82931331,0.83642578125,-0.478515625,0.26593017578125,-0.02630615234375,-3511,-6504,3212,0,-2,1
82941314,0.83648681640625,-0.4783935546875,0.26593017578125,-0.02606201171875,-3507,-6516,3220,0,-2,1
82951296,0.8365478515625,-0.478271484375,0.26593017578125,-0.02581787109375,-3501,-6515,3215,0,-2,1
82961279,0.83660888671875,-0.4781494140625,0.26593017578125,-0.02557373046875,-3501,-6508,3216,0,-2,1
82971259,0.83673095703125,-0.47808837890625,0.265869140625,-0.025390625,-3480,-6497,3221,0,-2,0
82981241,0.8367919921875,-0.47802734375,0.2657470703125,-0.02520751953125,-3475,-6491,3231,-1,-2,0
82991235,0.83685302734375,-0.4779052734375,0.26568603515625,-0.0250244140625,-3481,-6492,3251,0,-2,1
83001213,0.8369140625,-0.47784423828125,0.26568603515625,-0.02471923828125,-3480,-6493,3249,0,-2,2
83011195,0.83697509765625,-0.47772216796875,0.2657470703125,-0.0242919921875,-3510,-6508,3257,-1,-2,2
83021183,0.8370361328125,-0.47760009765625,0.2657470703125,-0.02386474609375,-3514,-6517,3264,-1,-2,3
83031167,0.83709716796875,-0.4775390625,0.26580810546875,-0.0233154296875,-3539,-6533,3263,-1,-3,3
83041144,0.837158203125,-0.47747802734375,0.26580810546875,-0.02276611328125,-3546,-6560,3232,-1,-3,3
83051121,0.83721923828125,-0.47747802734375,0.2657470703125,-0.02227783203125,-3552,-6572,3226,-1,-4,2
83061109,0.8372802734375,-0.4774169921875,0.26556396484375,-0.02178955078125,-3543,-6589,3208,0,-4,2
83071091,0.83740234375,-0.4774169921875,0.2652587890625,-0.02142333984375,-3535,-6580,3198,0,-5,0
83081071,0.8375244140625,-0.4774169921875,0.264892578125,-0.02117919921875,-3520,-6559,3195,-1,-5,-1
83091052,0.837646484375,-0.4774169921875,0.26446533203125,-0.02093505859375,-3504,-6538,3202,0,-5,-1
83101036,0.83782958984375,-0.4774169921875,0.26397705078125,-0.020751953125,-3479,-6511,3216,0,-5,-1
83111021,0.83795166015625,-0.4774169921875,0.26348876953125,-0.0205078125,-3473,-6485,3217,0,-5,-1
83120997,0.838134765625,-0.47747802734375,0.26300048828125,-0.02020263671875,-3445,-6471,3218,-1,-5,-1
83130987,0.8382568359375,-0.4775390625,0.26251220703125,-0.0198974609375,-3416,-6459,3226,-1,-5,0
83140961,0.83831787109375,-0.47760009765625,0.26202392578125,-0.01959228515625,-3388,-6436,3245,-2,-5,0
83150944,0.83843994140625,-0.47772216796875,0.26153564453125,-0.01922607421875,-3369,-6430,3260,-2,-5,0
83160929,0.8385009765625,-0.4779052734375,0.26104736328125,-0.0189208984375,-3350,-6436,3276,-2,-5,-1
83170911,0.8385009765625,-0.47808837890625,0.2606201171875,-0.01861572265625,-3348,-6470,3280,-3,-5,0
83180892,0.8385009765625,-0.47833251953125,0.26019287109375,-0.01824951171875,-3367,-6511,3270,-3,-5,0
83190878,0.8385009765625,-0.47857666015625,0.2598876953125,-0.017822265625,-3372,-6563,3261,-3,-5,1
83200857,0.8385009765625,-0.47882080078125,0.259521484375,-0.017333984375,-3379,-6592,3259,-3,-5,1
83210839,0.8385009765625,-0.47900390625,0.25921630859375,-0.01690673828125,-3370,-6634,3267,-2,-5,1
83220823,0.8385009765625,-0.4791259765625,0.25885009765625,-0.01641845703125,-3384,-6691,3276,-2,-5,2
83230805,0.83856201171875,-0.47918701171875,0.258544921875,-0.01593017578125,-3408,-6776,3286,-1,-5,2
83240794,0.83868408203125,-0.47918701171875,0.25830078125,-0.01544189453125,-3449,-6868,3296,0,-5,2
83250768,0.83880615234375,-0.47918701171875,0.25799560546875,-0.01495361328125,-3474,-6933,3287,1,-5,2
83260760,0.8389892578125,-0.47906494140625,0.2576904296875,-0.01446533203125,-3497,-6969,3280,1,-5,2
83270739,0.8392333984375,-0.47882080078125,0.25726318359375,-0.01416015625,-3506,-6960,3289,2,-5,0
83280715,0.83953857421875,-0.47857666015625,0.2567138671875,-0.0140380859375,-3506,-6928,3295,3,-6,-1
83290696,0.83990478515625,-0.478271484375,0.25604248046875,-0.01409912109375,-3512,-6878,3305,4,-6,-4
83300678,0.84033203125,-0.47796630859375,0.2552490234375,-0.0142822265625,-3505,-6839,3300,5,-6,-4
83310660,0.8408203125,-0.47760009765625,0.25439453125,-0.0145263671875,-3497,-6790,3316,5,-6,-5
83320644,0.84130859375,-0.4771728515625,0.25360107421875,-0.0146484375,-3484,-6730,3329,5,-7,-4
83330626,0.841796875,-0.47662353515625,0.25286865234375,-0.01470947265625,-3477,-6677,3360,5,-7,-3
83340607,0.84234619140625,-0.47607421875,0.2520751953125,-0.01458740234375,-3470,-6634,3385,5,-7,-2
83350597,0.8428955078125,-0.47552490234375,0.25140380859375,-0.01434326171875,-3466,-6584,3412,5,-7,0
83360575,0.84344482421875,-0.47491455078125,0.250732421875,-0.01397705078125,-3446,-6513,3428,5,-8,0
83370557,0.84393310546875,-0.47430419921875,0.25006103515625,-0.01361083984375,-3415,-6450,3450,4,-8,0
83380543,0.844482421875,-0.47381591796875,0.24932861328125,-0.0133056640625,-3386,-6400,3469,4,-8,-1
83390520,0.844970703125,-0.47332763671875,0.24859619140625,-0.0130615234375,-3356,-6322,3484,3,-7,-1
83400503,0.84539794921875,-0.47296142578125,0.247802734375,-0.01287841796875,-3331,-6257,3488,3,-7,-2
83410487,0.84576416015625,-0.47265625,0.2470703125,-0.0126953125,-3310,-6209,3493,2,-7,-2
83420467,0.84613037109375,-0.472412109375,0.246337890625,-0.012451171875,-3281,-6176,3493,1,-7,-1
83430458,0.846435546875,-0.47216796875,0.24578857421875,-0.01214599609375,-3280,-6171,3465,1,-6,0
83440433,0.8466796875,-0.4720458984375,0.24530029296875,-0.01165771484375,-3269,-6170,3454,0,-6,1
83450426,0.84686279296875,-0.471923828125,0.244873046875,-0.01104736328125,-3262,-6173,3428,0,-6,2
83460408,0.84698486328125,-0.47186279296875,0.2445068359375,-0.01043701171875,-3247,-6156,3413,-1,-6,2
83470389,0.84710693359375,-0.471923828125,0.24420166015625,-0.009765625,-3242,-6154,3385,-2,-6,2
83480366,0.84710693359375,-0.47198486328125,0.24383544921875,-0.00921630859375,-3219,-6155,3360,-2,-5,1
83490351,0.84710693359375,-0.47222900390625,0.24346923828125,-0.00872802734375,-3203,-6156,3340,-3,-5,1
83500328,0.84710693359375,-0.47247314453125,0.24310302734375,-0.00823974609375,-3184,-6154,3332,-4,-5,1
83510309,0.8470458984375,-0.47283935546875,0.24267578125,-0.0078125,-3161,-6171,3328,-4,-5,0
83520296,0.84686279296875,-0.4732666015625,0.2423095703125,-0.00738525390625,-3170,-6212,3321,-5,-4,0
83530278,0.8466796875,-0.4737548828125,0.24200439453125,-0.00689697265625,-3162,-6250,3322,-5,-4,1
83540261,0.84649658203125,-0.47430419921875,0.24163818359375,-0.00640869140625,-3147,-6304,3332,-6,-4,1
83550240,0.84625244140625,-0.47491455078125,0.24139404296875,-0.00592041015625,-3149,-6353,3339,-6,-4,1
83560232,0.845947265625,-0.4755859375,0.2410888671875,-0.0054931640625,-3153,-6416,3334,-6,-4,1
83570212,0.84564208984375,-0.4761962890625,0.24078369140625,-0.005126953125,-3154,-6476,3332,-6,-3,0
83580194,0.84539794921875,-0.47686767578125,0.2406005859375,-0.0047607421875,-3162,-6530,3345,-6,-3,0
83590189,0.84515380859375,-0.4774169921875,0.2403564453125,-0.00445556640625,-3185,-6601,3346,-5,-3,0
83600174,0.8448486328125,-0.47802734375,0.2401123046875,-0.0042724609375,-3197,-6667,3350,-5,-3,-1
83610153,0.8446044921875,-0.478515625,0.2398681640625,-0.004150390625,-3223,-6722,3359,-4,-2,-1
83620119,0.84442138671875,-0.47906494140625,0.23968505859375,-0.00408935546875,-3235,-6772,3363,-4,-2,-2
83630100,0.84423828125,-0.4794921875,0.23944091796875,-0.004150390625,-3241,-6790,3388,-3,-2,-2
83640084,0.8441162109375,-0.4798583984375,0.2391357421875,-0.0042724609375,-3234,-6806,3393,-2,-2,-3
83650065,0.843994140625,-0.4801025390625,0.2388916015625,-0.0045166015625,-3221,-6798,3409,-2,-1,-3
83660051,0.84393310546875,-0.4803466796875,0.23870849609375,-0.00469970703125,-3204,-6799,3418,-2,-1,-2
83670037,0.8438720703125,-0.48052978515625,0.238525390625,-0.00494384765625,-3186,-6791,3432,-1,0,-3
83680017,0.84381103515625,-0.48065185546875,0.23846435546875,-0.00518798828125,-3177,-6791,3443,-1,0,-2
83690002,0.84381103515625,-0.480712890625,0.23834228515625,-0.00543212890625,-3167,-6792,3450,0,0,-2
83699989,0.84381103515625,-0.48077392578125,0.2384033203125,-0.005615234375,-3149,-6781,3469,0,1,-1
83709966,0.84381103515625,-0.480712890625,0.23846435546875,-0.00592041015625,-3135,-6777,3476,1,2,-1
83719947,0.84381103515625,-0.48065185546875,0.23858642578125,-0.00616455078125,-3126,-6782,3497,1,2,-1
83729931,0.8438720703125,-0.48046875,0.23870849609375,-0.00653076171875,-3096,-6786,3513,2,2,-1
83739914,0.84393310546875,-0.48028564453125,0.23883056640625,-0.0069580078125,-3075,-6791,3520,2,2,-1
83749895,0.84405517578125,-0.47998046875,0.23907470703125,-0.00732421875,-3071,-6795,3534,3,3,-1
83759878,0.84417724609375,-0.4796142578125,0.2392578125,-0.00775146484375,-3054,-6801,3537,3,3,-1
83769856,0.84429931640625,-0.47930908203125,0.239501953125,-0.00830078125,-3045,-6805,3527,4,3,-2
83779839,0.84442138671875,-0.4788818359375,0.23974609375,-0.0089111328125,-3030,-6792,3521,4,4,-2
83789822,0.8446044921875,-0.478515625,0.239990234375,-0.00958251953125,-3011,-6780,3518,4,4,-2
83799803,0.8447265625,-0.47808837890625,0.240234375,-0.01031494140625,-2983,-6746,3509,5,5,-3
83809787,0.84490966796875,-0.4776611328125,0.24053955078125,-0.01116943359375,-2968,-6725,3505,5,5,-3
83819766,0.84503173828125,-0.47723388671875,0.2408447265625,-0.0120849609375,-2969,-6702,3490,5,6,-4
83829758,0.84515380859375,-0.47674560546875,0.24127197265625,-0.01312255859375,-2956,-6696,3473,6,6,-4
83839741,0.84527587890625,-0.47625732421875,0.24169921875,-0.01416015625,-2968,-6698,3469,6,7,-4
83849717,0.84539794921875,-0.4757080078125,0.2423095703125,-0.01519775390625,-2978,-6688,3461,6,8,-3
83859700,0.84552001953125,-0.47509765625,0.24310302734375,-0.01611328125,-3000,-6682,3448,7,9,-2
83869682,0.8455810546875,-0.47442626953125,0.24395751953125,-0.01708984375,-3017,-6672,3440,7,9,-2
83879665,0.845703125,-0.4737548828125,0.24493408203125,-0.0179443359375,-3041,-6658,3431,7,10,-1
83889646,0.84576416015625,-0.4730224609375,0.2459716796875,-0.01885986328125,-3055,-6631,3438,7,10,-1
83899629,0.84588623046875,-0.4722900390625,0.24700927734375,-0.01983642578125,-3079,-6602,3441,7,11,-2
83909611,0.845947265625,-0.47161865234375,0.248046875,-0.02081298828125,-3104,-6584,3428,7,11,-2
83919593,0.84600830078125,-0.47088623046875,0.2491455078125,-0.02191162109375,-3125,-6581,3438,7,11,-2
83929575,0.84600830078125,-0.47015380859375,0.25018310546875,-0.0230712890625,-3160,-6580,3437,7,11,-3
83939559,0.8460693359375,-0.46942138671875,0.2513427734375,-0.024169921875,-3218,-6585,3436,7,11,-2
83949542,0.84613037109375,-0.46868896484375,0.25250244140625,-0.0252685546875,-3247,-6583,3432,7,12,-2
83959524,0.84613037109375,-0.4678955078125,0.25372314453125,-0.0262451171875,-3302,-6577,3443,7,11,-1
83969506,0.84625244140625,-0.467041015625,0.2548828125,-0.0272216796875,-3341,-6536,3459,8,11,-2
83979489,0.8463134765625,-0.46624755859375,0.25604248046875,-0.02825927734375,-3378,-6509,3462,8,11,-3
83989472,0.846435546875,-0.46539306640625,0.257080078125,-0.0294189453125,-3402,-6474,3472,8,11,-3
83999452,0.84649658203125,-0.464599609375,0.258056640625,-0.03057861328125,-3426,-6449,3478,8,11,-4
84009433,0.84661865234375,-0.4638671875,0.259033203125,-0.03179931640625,-3454,-6441,3483,7,10,-5
84019425,0.8466796875,-0.4630126953125,0.25994873046875,-0.032958984375,-3485,-6444,3488,8,10,-4
84029406,0.8468017578125,-0.46221923828125,0.26092529296875,-0.03399658203125,-3508,-6455,3484,8,10,-3
84039390,0.846923828125,-0.46142578125,0.26190185546875,-0.034912109375,-3530,-6468,3497,7,9,-2
84049367,0.8470458984375,-0.4605712890625,0.2628173828125,-0.03582763671875,-3545,-6463,3514,8,9,-2
84059350,0.84716796875,-0.459716796875,0.26373291015625,-0.0367431640625,-3570,-6451,3531,8,8,-3
84071995,0.84735107421875,-0.4588623046875,0.2645263671875,-0.0377197265625,-3591,-6441,3541,8,8,-4
84079314,0.8475341796875,-0.4580078125,0.2652587890625,-0.03875732421875,-3622,-6433,3571,7,8,-4
84089296,0.8477783203125,-0.45709228515625,0.26593017578125,-0.039794921875,-3638,-6405,3594,8,7,-4
84099278,0.8480224609375,-0.45623779296875,0.26654052734375,-0.040771484375,-3653,-6386,3609,8,7,-4
84109262,0.8482666015625,-0.45538330078125,0.26708984375,-0.0416259765625,-3662,-6365,3614,8,6,-4
84119241,0.8485107421875,-0.45452880859375,0.267578125,-0.04248046875,-3682,-6362,3626,8,5,-4
84129232,0.8487548828125,-0.4537353515625,0.26800537109375,-0.04327392578125,-3687,-6360,3626,7,4,-4
84139215,0.84906005859375,-0.452880859375,0.268310546875,-0.04412841796875,-3684,-6359,3645,8,4,-4
84149195,0.849365234375,-0.4521484375,0.2685546875,-0.044921875,-3674,-6361,3662,7,3,-5
84159185,0.84967041015625,-0.45135498046875,0.26873779296875,-0.04583740234375,-3658,-6368,3677,8,3,-5
84169174,0.8499755859375,-0.45062255859375,0.26885986328125,-0.04669189453125,-3657,-6397,3680,8,3,-5
84179144,0.85028076171875,-0.4498291015625,0.26898193359375,-0.0474853515625,-3646,-6436,3668,8,2,-4
84189122,0.85064697265625,-0.448974609375,0.2691650390625,-0.04815673828125,-3624,-6477,3663,9,2,-2
84199105,0.85107421875,-0.44805908203125,0.26934814453125,-0.04864501953125,-3591,-6504,3650,9,2,-1
84209090,0.85150146484375,-0.44708251953125,0.26953125,-0.049072265625,-3557,-6512,3654,9,2,0
84219070,0.8519287109375,-0.44598388671875,0.26983642578125,-0.0494384765625,-3547,-6509,3665,10,2,0
84229053,0.8524169921875,-0.44488525390625,0.27001953125,-0.0498046875,-3533,-6524,3693,10,1,0
84239037,0.85296630859375,-0.4437255859375,0.27020263671875,-0.05029296875,-3515,-6523,3723,11,2,-1
84249016,0.85345458984375,-0.44256591796875,0.27032470703125,-0.0509033203125,-3517,-6556,3733,12,2,-2
84259000,0.85406494140625,-0.44134521484375,0.27044677734375,-0.0516357421875,-3539,-6584,3749,12,1,-2
84268990,0.85467529296875,-0.44000244140625,0.2705078125,-0.0523681640625,-3571,-6617,3758,13,1,-3
84278966,0.8553466796875,-0.43865966796875,0.2705078125,-0.05316162109375,-3604,-6637,3773,14,1,-3
84288948,0.8560791015625,-0.4371337890625,0.2703857421875,-0.05401611328125,-3641,-6658,3817,16,0,-4
84298932,0.85687255859375,-0.435546875,0.27020263671875,-0.05499267578125,-3672,-6646,3861,16,0,-5
84308916,0.8577880859375,-0.43389892578125,0.26983642578125,-0.05615234375,-3690,-6589,3905,17,-1,-7
84318896,0.85870361328125,-0.43218994140625,0.269287109375,-0.05755615234375,-3686,-6540,3931,19,-1,-9
84328878,0.8597412109375,-0.430419921875,0.26849365234375,-0.05914306640625,-3634,-6486,3963,19,-2,-11
84338859,0.86077880859375,-0.4285888671875,0.267578125,-0.0609130859375,-3599,-6441,4026,21,-2,-13
84348841,0.8619384765625,-0.4267578125,0.2664794921875,-0.0628662109375,-3549,-6399,4087,21,-3,-14
84358824,0.863037109375,-0.42486572265625,0.2652587890625,-0.06512451171875,-3537,-6367,4132,22,-3,-17
84368807,0.86419677734375,-0.4229736328125,0.26397705078125,-0.06768798828125,-3539,-6345,4170,23,-3,-20
84378788,0.86529541015625,-0.42108154296875,0.26251220703125,-0.0704345703125,-3553,-6305,4197,23,-3,-22
84388768,0.86639404296875,-0.419189453125,0.2611083984375,-0.07342529296875,-3570,-6273,4203,24,-2,-23
84398759,0.8675537109375,-0.417236328125,0.25970458984375,-0.0762939453125,-3549,-6223,4204,24,-3,-22
84408744,0.86865234375,-0.415283203125,0.25830078125,-0.07904052734375,-3510,-6174,4169,24,-3,-20
84418718,0.8697509765625,-0.41326904296875,0.25701904296875,-0.08154296875,-3469,-6121,4139,24,-3,-18
84428700,0.87091064453125,-0.41119384765625,0.255859375,-0.08367919921875,-3400,-6056,4098,24,-3,-15
84438686,0.87200927734375,-0.40899658203125,0.2548828125,-0.08551025390625,-3347,-5998,4072,24,-3,-11
84448668,0.8731689453125,-0.40673828125,0.25408935546875,-0.0869140625,-3287,-5924,4044,23,-3,-8
84458648,0.874267578125,-0.40447998046875,0.25341796875,-0.088134765625,-3220,-5842,4027,23,-3,-6
84468636,0.8753662109375,-0.4022216796875,0.2529296875,-0.08905029296875,-3168,-5750,4003,22,-2,-4
84478615,0.87640380859375,-0.4000244140625,0.252685546875,-0.08984375,-3111,-5677,3966,21,-1,-2
84488606,0.8773193359375,-0.39788818359375,0.2525634765625,-0.0904541015625,-3061,-5611,3939,20,0,0
84498583,0.87811279296875,-0.3958740234375,0.252685546875,-0.0909423828125,-3022,-5558,3898,18,1,1
84508565,0.87884521484375,-0.39398193359375,0.2530517578125,-0.09136962890625,-2989,-5506,3859,16,3,2
84518548,0.87945556640625,-0.39215087890625,0.25360107421875,-0.09173583984375,-2954,-5438,3831,15,4,2
84528531,0.87994384765625,-0.39056396484375,0.25433349609375,-0.09210205078125,-2922,-5362,3794,13,6,3
84538513,0.8802490234375,-0.38916015625,0.2552490234375,-0.09246826171875,-2873,-5278,3786,11,8,3
84548495,0.88037109375,-0.38800048828125,0.25640869140625,-0.0928955078125,-2840,-5190,3761,8,10,2
84558476,0.88031005859375,-0.3870849609375,0.2576904296875,-0.093505859375,-2812,-5115,3762,6,11,1
84568460,0.880126953125,-0.38641357421875,0.2591552734375,-0.0941162109375,-2793,-5058,3769,3,14,0
84578449,0.87969970703125,-0.3861083984375,0.2608642578125,-0.0948486328125,-2779,-5020,3769,0,15,-1
84588426,0.8790283203125,-0.38604736328125,0.2628173828125,-0.09564208984375,-2780,-4991,3770,-2,17,-1
84598414,0.87823486328125,-0.38616943359375,0.26507568359375,-0.096435546875,-2808,-4989,3763,-5,20,0
84608391,0.877197265625,-0.3865966796875,0.267578125,-0.09716796875,-2815,-5025,3768,-7,22,1
84618367,0.8759765625,-0.38720703125,0.27044677734375,-0.09771728515625,-2854,-5060,3759,-10,24,3
84628350,0.8746337890625,-0.38787841796875,0.27362060546875,-0.0980224609375,-2900,-5093,3757,-12,25,5
84638332,0.8731689453125,-0.38873291015625,0.27703857421875,-0.09814453125,-2951,-5146,3739,-13,27,6
84648314,0.87158203125,-0.38970947265625,0.28070068359375,-0.09814453125,-3018,-5195,3732,-15,28,7
84658300,0.869873046875,-0.39080810546875,0.28460693359375,-0.09814453125,-3081,-5272,3716,-17,30,8
84668282,0.86798095703125,-0.39202880859375,0.28857421875,-0.09808349609375,-3147,-5359,3684,-18,31,8
84678264,0.865966796875,-0.393310546875,0.292724609375,-0.09808349609375,-3207,-5443,3662,-19,32,8
84688247,0.8638916015625,-0.39483642578125,0.296875,-0.09820556640625,-3273,-5543,3631,-20,33,6
84698236,0.86163330078125,-0.39642333984375,0.30108642578125,-0.09844970703125,-3324,-5624,3583,-21,34,6
84708220,0.85931396484375,-0.39813232421875,0.30535888671875,-0.09881591796875,-3380,-5706,3538,-21,34,4
84718206,0.85693359375,-0.39990234375,0.30963134765625,-0.099365234375,-3420,-5779,3497,-21,35,3
84728189,0.85443115234375,-0.4017333984375,0.3138427734375,-0.0999755859375,-3459,-5849,3480,-22,35,2
84738174,0.85186767578125,-0.40362548828125,0.31805419921875,-0.1007080078125,-3504,-5907,3456,-23,36,2
84748155,0.8492431640625,-0.4056396484375,0.3223876953125,-0.10137939453125,-3549,-5979,3405,-23,37,2
84758125,0.8465576171875,-0.4075927734375,0.3267822265625,-0.10211181640625,-3576,-6046,3359,-24,37,2
84768108,0.84381103515625,-0.4095458984375,0.33123779296875,-0.10272216796875,-3609,-6088,3306,-24,38,3
84778091,0.84100341796875,-0.41143798828125,0.33575439453125,-0.10321044921875,-3637,-6133,3240,-24,38,5
84788074,0.83819580078125,-0.41326904296875,0.3404541015625,-0.10345458984375,-3658,-6157,3191,-24,39,7
84798055,0.8353271484375,-0.41497802734375,0.34521484375,-0.10357666015625,-3660,-6153,3162,-25,39,9
84808037,0.83251953125,-0.41668701171875,0.35015869140625,-0.1033935546875,-3680,-6160,3126,-25,39,12
84818021,0.82958984375,-0.418212890625,0.355224609375,-0.10308837890625,-3724,-6206,3104,-26,40,13
84828006,0.82666015625,-0.41973876953125,0.3603515625,-0.1025390625,-3774,-6250,3052,-26,40,15
84837993,0.82373046875,-0.42120361328125,0.36566162109375,-0.10186767578125,-3817,-6262,2991,-26,41,16
84847975,0.8206787109375,-0.42266845703125,0.37091064453125,-0.10125732421875,-3854,-6249,2927,-27,41,16
84857950,0.8175048828125,-0.4241943359375,0.37615966796875,-0.10076904296875,-3889,-6227,2865,-27,41,14
84867934,0.8143310546875,-0.42584228515625,0.38128662109375,-0.1004638671875,-3935,-6196,2806,-28,41,12
84877915,0.81097412109375,-0.42767333984375,0.38641357421875,-0.100341796875,-3969,-6183,2727,-28,42,10
84887902,0.80743408203125,-0.4296875,0.3914794921875,-0.1004638671875,-4032,-6173,2663,-30,43,7
84897885,0.8038330078125,-0.43182373046875,0.39642333984375,-0.1007080078125,-4080,-6168,2601,-31,43,5
84907867,0.80010986328125,-0.4342041015625,0.40130615234375,-0.10113525390625,-4128,-6168,2540,-32,44,4
84917848,0.79620361328125,-0.4366455078125,0.40625,-0.10162353515625,-4177,-6170,2469,-33,44,3
84927831,0.79217529296875,-0.43927001953125,0.4111328125,-0.10211181640625,-4213,-6178,2386,-35,45,2
84937813,0.78802490234375,-0.4420166015625,0.416015625,-0.1026611328125,-4248,-6205,2305,-36,45,1
84947795,0.78375244140625,-0.44488525390625,0.42083740234375,-0.103271484375,-4306,-6256,2215,-37,45,0
84957784,0.77935791015625,-0.44781494140625,0.4256591796875,-0.1038818359375,-4369,-6300,2111,-37,45,-1
84967765,0.77490234375,-0.450927734375,0.430419921875,-0.10467529296875,-4418,-6365,2013,-38,46,-2
84977749,0.77032470703125,-0.4541015625,0.43499755859375,-0.10552978515625,-4469,-6412,1914,-38,45,-4
84987723,0.76568603515625,-0.4573974609375,0.439453125,-0.1064453125,-4511,-6453,1802,-38,45,-5
84997706,0.76104736328125,-0.460693359375,0.44378662109375,-0.10748291015625,-4559,-6494,1682,-39,44,-7
85007688,0.75634765625,-0.464111328125,0.447998046875,-0.10870361328125,-4591,-6543,1572,-38,44,-8
85017670,0.75164794921875,-0.46746826171875,0.45208740234375,-0.10986328125,-4632,-6600,1478,-38,43,-9
85027654,0.7469482421875,-0.4708251953125,0.4560546875,-0.111083984375,-4663,-6645,1367,-37,43,-9
85037637,0.7423095703125,-0.47412109375,0.46002197265625,-0.1121826171875,-4685,-6690,1257,-37,42,-8
85047619,0.7376708984375,-0.47723388671875,0.46392822265625,-0.1131591796875,-4701,-6727,1149,-37,41,-7
85057602,0.733154296875,-0.480224609375,0.46783447265625,-0.11395263671875,-4718,-6779,1025,-36,40,-4
85067585,0.72869873046875,-0.48297119140625,0.4718017578125,-0.114501953125,-4737,-6828,911,-35,39,-2
85077573,0.72430419921875,-0.48553466796875,0.47576904296875,-0.1148681640625,-4764,-6875,819,-35,39,1
85087552,0.72003173828125,-0.4879150390625,0.4798583984375,-0.114990234375,-4807,-6909,718,-34,38,2
85097533,0.7158203125,-0.49017333984375,0.48382568359375,-0.11505126953125,-4835,-6958,629,-34,37,3
85107515,0.711669921875,-0.49237060546875,0.48773193359375,-0.11505126953125,-4872,-7007,527,-33,37,3
85117497,0.70758056640625,-0.49444580078125,0.49151611328125,-0.1151123046875,-4900,-7027,436,-32,35,3
85127479,0.70361328125,-0.49639892578125,0.4951171875,-0.11517333984375,-4942,-7075,334,-30,35,2
85137463,0.69976806640625,-0.49835205078125,0.49859619140625,-0.1153564453125,-4992,-7115,242,-29,34,1
85147449,0.696044921875,-0.500244140625,0.50189208984375,-0.1156005859375,-5046,-7122,156,-28,32,0
85157433,0.69244384765625,-0.50213623046875,0.50482177734375,-0.11602783203125,-5081,-7154,78,-27,31,-2
85167414,0.68902587890625,-0.5040283203125,0.507568359375,-0.1165771484375,-5130,-7171,-20,-25,29,-4
85177396,0.68572998046875,-0.505859375,0.50994873046875,-0.11724853515625,-5149,-7163,-89,-24,27,-6
85187373,0.68255615234375,-0.5078125,0.5120849609375,-0.1181640625,-5138,-7147,-156,-22,26,-9
85197353,0.6795654296875,-0.50982666015625,0.5137939453125,-0.1192626953125,-5128,-7127,-199,-21,24,-11
85207337,0.6767578125,-0.51177978515625,0.51531982421875,-0.120361328125,-5136,-7102,-222,-20,22,-12
85217321,0.67413330078125,-0.51373291015625,0.5166015625,-0.12152099609375,-5116,-7073,-246,-19,21,-13
85227303,0.671630859375,-0.51556396484375,0.5177001953125,-0.12261962890625,-5104,-7031,-250,-18,19,-13
85237284,0.6693115234375,-0.517333984375,0.51873779296875,-0.1236572265625,-5098,-7001,-279,-17,18,-12
85247268,0.66717529296875,-0.51898193359375,0.5196533203125,-0.12451171875,-5106,-6972,-295,-17,16,-11
85257247,0.6651611328125,-0.52044677734375,0.52056884765625,-0.12518310546875,-5103,-6940,-340,-16,15,-10
85267237,0.663330078125,-0.52178955078125,0.521484375,-0.12567138671875,-5091,-6932,-373,-15,13,-7
85277221,0.66168212890625,-0.52294921875,0.52239990234375,-0.12591552734375,-5084,-6926,-418,-14,12,-5
85287206,0.66015625,-0.5238037109375,0.52337646484375,-0.125732421875,-5065,-6918,-455,-14,10,-1
85297195,0.658935546875,-0.52447509765625,0.5244140625,-0.12530517578125,-5053,-6901,-475,-13,8,2
85307176,0.65777587890625,-0.52496337890625,0.52545166015625,-0.1246337890625,-5051,-6882,-499,-13,7,4
85317159,0.6568603515625,-0.52532958984375,0.52655029296875,-0.1236572265625,-5055,-6858,-526,-12,5,6
85327129,0.656005859375,-0.5255126953125,0.52764892578125,-0.12255859375,-5061,-6848,-564,-11,4,7
85337111,0.65533447265625,-0.52569580078125,0.52862548828125,-0.12139892578125,-5064,-6845,-591,-11,3,7
85347095,0.6546630859375,-0.52587890625,0.52947998046875,-0.12030029296875,-5078,-6845,-614,-11,2,6
85357077,0.65411376953125,-0.526123046875,0.5301513671875,-0.1192626953125,-5066,-6837,-631,-10,1,5
85367056,0.65362548828125,-0.52642822265625,0.53070068359375,-0.11822509765625,-5056,-6827,-659,-10,0,4
85377038,0.6531982421875,-0.52679443359375,0.53106689453125,-0.11737060546875,-5044,-6804,-678,-9,0,2
85387023,0.65283203125,-0.52728271484375,0.53118896484375,-0.11663818359375,-5034,-6803,-720,-9,-1,0
85397005,0.6524658203125,-0.52783203125,0.53125,-0.1160888671875,-5029,-6804,-733,-8,-1,-1
85406988,0.6522216796875,-0.52838134765625,0.53106689453125,-0.1156005859375,-5037,-6791,-763,-7,-2,-3
85416965,0.65191650390625,-0.529052734375,0.53082275390625,-0.1151123046875,-5019,-6803,-804,-7,-3,-3
85426947,0.6517333984375,-0.5296630859375,0.530517578125,-0.11468505859375,-4992,-6804,-840,-7,-4,-3
85436929,0.651611328125,-0.53033447265625,0.53021240234375,-0.11431884765625,-4975,-6808,-869,-6,-4,-3
85446911,0.6514892578125,-0.53094482421875,0.52978515625,-0.11383056640625,-4949,-6811,-892,-6,-5,-3
85456894,0.65142822265625,-0.531494140625,0.5294189453125,-0.11334228515625,-4910,-6807,-923,-6,-5,-2
85466878,0.6513671875,-0.531982421875,0.529052734375,-0.11273193359375,-4871,-6798,-933,-5,-5,-1
85476865,0.65142822265625,-0.53240966796875,0.52874755859375,-0.112060546875,-4832,-6783,-949,-6,-6,0
85486845,0.6514892578125,-0.53277587890625,0.5284423828125,-0.111328125,-4796,-6773,-951,-5,-6,1
85496827,0.651611328125,-0.53314208984375,0.52813720703125,-0.11053466796875,-4756,-6755,-964,-5,-6,1
85506809,0.6517333984375,-0.533447265625,0.52783203125,-0.1097412109375,-4716,-6730,-975,-5,-7,1
85516790,0.65191650390625,-0.53375244140625,0.5274658203125,-0.1090087890625,-4683,-6724,-977,-4,-7,1
85526771,0.652099609375,-0.53399658203125,0.527099609375,-0.1082763671875,-4663,-6718,-968,-5,-7,1
85536763,0.65228271484375,-0.53436279296875,0.52667236328125,-0.10760498046875,-4642,-6704,-982,-4,-7,0
85546746,0.65240478515625,-0.5347900390625,0.52618408203125,-0.1070556640625,-4621,-6682,-998,-4,-7,-1
85556718,0.652587890625,-0.53521728515625,0.525634765625,-0.10662841796875,-4600,-6679,-1022,-4,-6,-2
85566702,0.6527099609375,-0.53564453125,0.52508544921875,-0.10626220703125,-4595,-6684,-1047,-3,-6,-3
85576687,0.65289306640625,-0.53607177734375,0.5245361328125,-0.10589599609375,-4580,-6697,-1063,-3,-7,-2
85586667,0.653076171875,-0.5364990234375,0.52392578125,-0.1055908203125,-4561,-6697,-1066,-2,-6,-2
85596650,0.65325927734375,-0.53680419921875,0.5234375,-0.10516357421875,-4542,-6701,-1063,-2,-6,-1
85606636,0.653564453125,-0.5369873046875,0.52301025390625,-0.104736328125,-4532,-6717,-1056,-2,-6,1
85616615,0.65386962890625,-0.53704833984375,0.52264404296875,-0.10418701171875,-4523,-6727,-1051,-2,-6,2
85626597,0.6541748046875,-0.53704833984375,0.52239990234375,-0.103515625,-4511,-6728,-1036,-2,-6,3
85636579,0.65447998046875,-0.5369873046875,0.52215576171875,-0.10284423828125,-4501,-6726,-1016,-1,-6,4
85646563,0.65484619140625,-0.536865234375,0.52191162109375,-0.10223388671875,-4492,-6717,-996,-1,-6,3
85656544,0.65521240234375,-0.53680419921875,0.521728515625,-0.10162353515625,-4486,-6690,-982,-1,-6,3
85666527,0.65557861328125,-0.5367431640625,0.52142333984375,-0.10107421875,-4488,-6660,-973,-1,-6,2
85676510,0.6558837890625,-0.5367431640625,0.52105712890625,-0.10064697265625,-4497,-6647,-968,-1,-6,1
85686500,0.65625,-0.536865234375,0.52056884765625,-0.100341796875,-4511,-6652,-961,0,-6,-1
85696481,0.6566162109375,-0.5369873046875,0.52001953125,-0.1002197265625,-4546,-6660,-954,0,-6,-2
85706458,0.656982421875,-0.53717041015625,0.51934814453125,-0.10015869140625,-4565,-6645,-949,0,-6,-4
85716436,0.65728759765625,-0.53753662109375,0.5185546875,-0.10028076171875,-4576,-6648,-931,0,-6,-6
85726428,0.6575927734375,-0.5379638671875,0.5177001953125,-0.10052490234375,-4603,-6645,-937,0,-6,-7
85736411,0.657958984375,-0.53839111328125,0.51678466796875,-0.100830078125,-4626,-6642,-935,1,-6,-8
85746392,0.6583251953125,-0.538818359375,0.51580810546875,-0.10113525390625,-4654,-6669,-935,1,-6,-8
85756368,0.65869140625,-0.53924560546875,0.51483154296875,-0.10137939453125,-4659,-6686,-933,1,-7,-7
85766350,0.65911865234375,-0.53955078125,0.51397705078125,-0.10150146484375,-4678,-6685,-933,1,-7,-6
85776334,0.6595458984375,-0.53973388671875,0.51318359375,-0.10150146484375,-4710,-6693,-936,1,-7,-4
85786316,0.66009521484375,-0.539794921875,0.512451171875,-0.10125732421875,-4753,-6684,-923,2,-8,-3
85796297,0.66070556640625,-0.53973388671875,0.51177978515625,-0.1009521484375,-4807,-6678,-913,2,-9,-2
85806282,0.66143798828125,-0.53961181640625,0.5111083984375,-0.1004638671875,-4876,-6682,-907,2,-9,-1
85816269,0.662109375,-0.53936767578125,0.510498046875,-0.09991455078125,-4925,-6673,-898,2,-9,0
85826246,0.66290283203125,-0.53912353515625,0.5098876953125,-0.0992431640625,-4961,-6656,-874,2,-10,1
85836237,0.6636962890625,-0.53887939453125,0.50927734375,-0.0985107421875,-4987,-6623,-855,2,-10,1
85846220,0.66455078125,-0.53863525390625,0.508544921875,-0.09771728515625,-5016,-6572,-809,2,-11,0
85856206,0.66546630859375,-0.53839111328125,0.5078125,-0.096923828125,-5045,-6543,-799,2,-11,1
85866189,0.66632080078125,-0.53814697265625,0.507080078125,-0.09613037109375,-5073,-6525,-783,2,-12,1
85876174,0.667236328125,-0.53790283203125,0.50628662109375,-0.09521484375,-5093,-6499,-758,2,-12,1
85886155,0.66815185546875,-0.53765869140625,0.50555419921875,-0.09423828125,-5120,-6483,-754,2,-13,1
85896125,0.66912841796875,-0.537353515625,0.5047607421875,-0.09326171875,-5119,-6457,-743,2,-13,1
85906108,0.67010498046875,-0.53704833984375,0.50390625,-0.09222412109375,-5112,-6449,-728,2,-13,2
85916090,0.671142578125,-0.5367431640625,0.50311279296875,-0.0911865234375,-5093,-6476,-724,2,-14,3
85926073,0.6722412109375,-0.53631591796875,0.5023193359375,-0.09002685546875,-5071,-6512,-718,3,-14,4
85936054,0.67340087890625,-0.5357666015625,0.5015869140625,-0.0888671875,-5028,-6538,-702,3,-14,6
85946038,0.674560546875,-0.53509521484375,0.50091552734375,-0.0875244140625,-4983,-6573,-691,4,-14,7
85956020,0.67584228515625,-0.53424072265625,0.5003662109375,-0.086181640625,-4925,-6620,-676,5,-14,9
85966001,0.6771240234375,-0.53326416015625,0.4998779296875,-0.08477783203125,-4866,-6664,-650,5,-14,11
85975992,0.678466796875,-0.5321044921875,0.49951171875,-0.08331298828125,-4820,-6719,-622,7,-13,13
85985967,0.679931640625,-0.53070068359375,0.49932861328125,-0.081787109375,-4771,-6766,-593,7,-13,16
85995950,0.681396484375,-0.52911376953125,0.499267578125,-0.080078125,-4755,-6817,-565,8,-13,18
86005933,0.682861328125,-0.52740478515625,0.49932861328125,-0.07843017578125,-4745,-6860,-556,9,-13,19
86015916,0.68438720703125,-0.52557373046875,0.49951171875,-0.07672119140625,-4756,-6900,-533,9,-12,19
86025898,0.68585205078125,-0.52374267578125,0.49957275390625,-0.0751953125,-4749,-6915,-501,10,-11,19
86035880,0.68731689453125,-0.52197265625,0.4996337890625,-0.07391357421875,-4735,-6903,-472,11,-10,16
86045862,0.688720703125,-0.52032470703125,0.49957275390625,-0.07293701171875,-4714,-6862,-448,11,-10,13
86055847,0.6900634765625,-0.518798828125,0.4993896484375,-0.07232666015625,-4694,-6824,-415,11,-9,10
86065827,0.6912841796875,-0.51751708984375,0.4990234375,-0.0721435546875,-4667,-6766,-384,11,-7,6
86075811,0.6923828125,-0.5164794921875,0.49859619140625,-0.072265625,-4643,-6704,-361,11,-6,3
86085793,0.693359375,-0.515625,0.49810791015625,-0.07275390625,-4623,-6613,-340,11,-4,0
86095772,0.69415283203125,-0.51495361328125,0.49749755859375,-0.073486328125,-4580,-6526,-309,10,-4,-3
86105762,0.69482421875,-0.5145263671875,0.49688720703125,-0.07452392578125,-4536,-6436,-292,9,-2,-6
86115749,0.6953125,-0.51422119140625,0.496337890625,-0.07574462890625,-4501,-6356,-271,9,0,-7
86125722,0.6956787109375,-0.5140380859375,0.495849609375,-0.0770263671875,-4471,-6291,-265,7,1,-8
86135704,0.69586181640625,-0.51385498046875,0.49560546875,-0.07830810546875,-4466,-6228,-275,7,3,-7
86145686,0.6959228515625,-0.513671875,0.4954833984375,-0.0794677734375,-4454,-6195,-268,6,4,-6
86155670,0.69580078125,-0.5135498046875,0.49560546875,-0.08056640625,-4461,-6165,-282,5,5,-5
86165652,0.69561767578125,-0.5133056640625,0.4959716796875,-0.08148193359375,-4482,-6145,-279,4,6,-2
86175641,0.6953125,-0.512939453125,0.49664306640625,-0.08209228515625,-4517,-6150,-291,3,7,1
86185619,0.6949462890625,-0.51251220703125,0.49755859375,-0.08258056640625,-4556,-6157,-297,2,8,3
86195602,0.6944580078125,-0.51202392578125,0.49859619140625,-0.0828857421875,-4602,-6169,-315,1,9,5
86205583,0.6939697265625,-0.511474609375,0.4998779296875,-0.0830078125,-4661,-6181,-320,1,10,6
86215567,0.693359375,-0.51092529296875,0.501220703125,-0.0831298828125,-4712,-6181,-331,0,10,6
86225549,0.69268798828125,-0.510498046875,0.50262451171875,-0.0833740234375,-4768,-6178,-362,0,11,5
86235532,0.69195556640625,-0.5101318359375,0.50390625,-0.08367919921875,-4816,-6187,-380,-1,11,3
86245513,0.691162109375,-0.50994873046875,0.50518798828125,-0.0841064453125,-4868,-6195,-405,-1,11,2
86255494,0.6903076171875,-0.50982666015625,0.50634765625,-0.08465576171875,-4910,-6206,-437,-1,12,0
86265478,0.689453125,-0.509765625,0.5074462890625,-0.0853271484375,-4959,-6230,-455,-1,12,-1
86275457,0.6885986328125,-0.509765625,0.50848388671875,-0.08612060546875,-4997,-6277,-470,-1,12,-2
86285437,0.687744140625,-0.509765625,0.50946044921875,-0.08685302734375,-5040,-6323,-476,-1,11,-1
86295432,0.68695068359375,-0.5096435546875,0.510498046875,-0.0875244140625,-5083,-6369,-486,0,11,-1
86305418,0.68621826171875,-0.509521484375,0.51153564453125,-0.08819580078125,-5109,-6402,-490,0,11,0
86315398,0.685546875,-0.50933837890625,0.51251220703125,-0.0888671875,-5152,-6435,-477,0,11,0
86325373,0.6849365234375,-0.509033203125,0.5135498046875,-0.08941650390625,-5164,-6462,-485,1,10,1
86335355,0.68438720703125,-0.5086669921875,0.5145263671875,-0.0899658203125,-5203,-6494,-487,1,10,2
86345339,0.68389892578125,-0.5081787109375,0.5155029296875,-0.0904541015625,-5228,-6524,-494,2,9,2
86355322,0.68353271484375,-0.50762939453125,0.51654052734375,-0.09088134765625,-5247,-6545,-511,3,9,3
86365304,0.6832275390625,-0.5069580078125,0.5174560546875,-0.09124755859375,-5245,-6559,-501,3,8,4
86375286,0.68310546875,-0.50616455078125,0.5184326171875,-0.091552734375,-5235,-6555,-494,4,7,5
86385270,0.6829833984375,-0.50531005859375,0.519287109375,-0.09185791015625,-5235,-6550,-491,5,6,5
86395256,0.6829833984375,-0.50445556640625,0.5201416015625,-0.09210205078125,-5230,-6561,-487,5,6,5
86405239,0.68304443359375,-0.50347900390625,0.52093505859375,-0.0924072265625,-5236,-6554,-465,6,5,5
86415221,0.68316650390625,-0.50244140625,0.52166748046875,-0.0926513671875,-5245,-6550,-447,6,5,5
86425206,0.683349609375,-0.50140380859375,0.52239990234375,-0.09295654296875,-5244,-6539,-433,7,5,5
86435194,0.68359375,-0.5003662109375,0.52301025390625,-0.09326171875,-5241,-6514,-418,7,4,5
86445177,0.68389892578125,-0.49932861328125,0.52362060546875,-0.09356689453125,-5235,-6494,-414,7,4,4
86455158,0.6842041015625,-0.498291015625,0.52410888671875,-0.09393310546875,-5225,-6465,-395,8,3,4
86465129,0.68450927734375,-0.49725341796875,0.524658203125,-0.09429931640625,-5215,-6448,-393,8,3,4
86475111,0.68487548828125,-0.49615478515625,0.525146484375,-0.0946044921875,-5222,-6425,-385,8,3,4
86485094,0.68524169921875,-0.49505615234375,0.525634765625,-0.0948486328125,-5228,-6402,-365,8,3,5
86495076,0.6856689453125,-0.493896484375,0.52618408203125,-0.0950927734375,-5220,-6364,-365,8,3,5
86505059,0.68603515625,-0.49273681640625,0.5267333984375,-0.09527587890625,-5217,-6325,-375,8,3,6
86515043,0.6864013671875,-0.4915771484375,0.52728271484375,-0.09539794921875,-5217,-6300,-371,8,2,5
86525025,0.686767578125,-0.490478515625,0.52783203125,-0.0955810546875,-5205,-6254,-368,7,3,5
86535007,0.68707275390625,-0.489501953125,0.5283203125,-0.09576416015625,-5184,-6223,-375,7,2,5
86544995,0.6873779296875,-0.488525390625,0.52880859375,-0.095947265625,-5170,-6178,-377,7,3,4
86554976,0.68756103515625,-0.48760986328125,0.52935791015625,-0.09619140625,-5180,-6140,-381,7,3,4
86564955,0.68780517578125,-0.48675537109375,0.52978515625,-0.096435546875,-5177,-6121,-375,6,3,3
86574937,0.68792724609375,-0.4859619140625,0.5302734375,-0.0966796875,-5171,-6100,-385,5,3,3
86584919,0.68804931640625,-0.4852294921875,0.53076171875,-0.09686279296875,-5181,-6077,-389,5,3,3
86594902,0.68817138671875,-0.4844970703125,0.53125,-0.09710693359375,-5190,-6055,-383,5,3,3
86604883,0.688232421875,-0.48382568359375,0.53173828125,-0.0972900390625,-5187,-6021,-373,4,3,2
86614865,0.688232421875,-0.4832763671875,0.53228759765625,-0.097412109375,-5179,-5986,-375,3,3,2
86624849,0.68817138671875,-0.482666015625,0.5328369140625,-0.0975341796875,-5175,-5965,-370,3,3,3
86634830,0.6881103515625,-0.48211669921875,0.53338623046875,-0.09759521484375,-5165,-5964,-372,2,3,3
86644814,0.68804931640625,-0.4815673828125,0.53399658203125,-0.0975341796875,-5172,-5973,-373,2,4,4
86654795,0.68792724609375,-0.48101806640625,0.53466796875,-0.09747314453125,-5175,-5977,-367,1,4,5
86664774,0.687744140625,-0.48046875,0.535400390625,-0.0972900390625,-5185,-5984,-370,1,4,5
86674768,0.6876220703125,-0.4798583984375,0.5361328125,-0.0970458984375,-5212,-6007,-377,1,3,6
86684749,0.68743896484375,-0.47930908203125,0.53692626953125,-0.09674072265625,-5218,-6032,-400,1,3,6
86694725,0.68731689453125,-0.47882080078125,0.53759765625,-0.096435546875,-5223,-6041,-390,0,3,6
86704707,0.68707275390625,-0.4783935546875,0.53826904296875,-0.09625244140625,-5229,-6042,-389,0,3,4
86714694,0.6868896484375,-0.47802734375,0.53887939453125,-0.09613037109375,-5250,-6059,-382,0,3,3
86724678,0.6866455078125,-0.477783203125,0.53936767578125,-0.09613037109375,-5248,-6086,-382,0,3,2
86734665,0.6864013671875,-0.4776611328125,0.539794921875,-0.09619140625,-5256,-6104,-372,0,3,1
86744644,0.68621826171875,-0.4775390625,0.5401611328125,-0.09625244140625,-5281,-6097,-367,-1,3,0
86754623,0.68597412109375,-0.4775390625,0.5404052734375,-0.096435546875,-5295,-6111,-370,-1,3,-1
86764602,0.68572998046875,-0.47760009765625,0.5406494140625,-0.09661865234375,-5304,-6130,-364,-1,3,-1
86774585,0.68548583984375,-0.4776611328125,0.54083251953125,-0.09686279296875,-5307,-6146,-357,-1,2,-2
86784567,0.685302734375,-0.47772216796875,0.541015625,-0.0970458984375,-5309,-6139,-361,-1,2,-2
86794549,0.68511962890625,-0.47772216796875,0.54119873046875,-0.09710693359375,-5323,-6131,-356,-1,2,-1
86804542,0.68499755859375,-0.477783203125,0.54132080078125,-0.09716796875,-5333,-6131,-349,-2,1,0
86814517,0.684814453125,-0.47784423828125,0.54150390625,-0.09710693359375,-5353,-6127,-351,-2,1,0
86824501,0.6846923828125,-0.4779052734375,0.5416259765625,-0.0970458984375,-5355,-6119,-339,-2,1,-1
86834479,0.68463134765625,-0.47796630859375,0.54168701171875,-0.09698486328125,-5365,-6111,-335,-2,0,-1
86844466,0.6845703125,-0.47802734375,0.541748046875,-0.0968017578125,-5383,-6113,-327,-2,0,0
86854449,0.68450927734375,-0.47808837890625,0.541748046875,-0.09661865234375,-5414,-6127,-330,-2,-1,0
86864432,0.68450927734375,-0.4781494140625,0.54180908203125,-0.0963134765625,-5415,-6127,-330,-2,-2,0
86874416,0.68450927734375,-0.4781494140625,0.54180908203125,-0.095947265625,-5429,-6116,-318,-2,-2,1
86884399,0.6845703125,-0.47821044921875,0.541748046875,-0.0955810546875,-5439,-6129,-322,-2,-3,0
86894375,0.68463134765625,-0.47833251953125,0.5416259765625,-0.09521484375,-5434,-6129,-313,-2,-3,0
86904357,0.68475341796875,-0.47845458984375,0.54144287109375,-0.0948486328125,-5427,-6121,-315,-3,-3,0
86914339,0.68487548828125,-0.4786376953125,0.54119873046875,-0.09454345703125,-5437,-6131,-317,-3,-4,-1
86924321,0.6849365234375,-0.47894287109375,0.5408935546875,-0.09423828125,-5433,-6133,-319,-3,-4,-2
86934302,0.68511962890625,-0.4791259765625,0.54052734375,-0.09393310546875,-5424,-6133,-324,-2,-4,-2
86944285,0.68524169921875,-0.47943115234375,0.54022216796875,-0.09356689453125,-5411,-6123,-327,-3,-5,-1
86954268,0.68536376953125,-0.47967529296875,0.53985595703125,-0.09320068359375,-5405,-6119,-341,-3,-5,-1
86964256,0.68548583984375,-0.47991943359375,0.53955078125,-0.0927734375,-5385,-6126,-352,-3,-5,0
86974240,0.68560791015625,-0.48016357421875,0.53924560546875,-0.09234619140625,-5361,-6131,-354,-3,-5,0
86984224,0.685791015625,-0.4803466796875,0.5389404296875,-0.09185791015625,-5346,-6129,-364,-3,-5,0
86994206,0.68597412109375,-0.4805908203125,0.53863525390625,-0.0914306640625,-5326,-6135,-361,-3,-5,0
87004194,0.68609619140625,-0.4808349609375,0.53826904296875,-0.0909423828125,-5314,-6132,-356,-3,-5,0
87014177,0.68621826171875,-0.4810791015625,0.5379638671875,-0.09051513671875,-5302,-6142,-354,-3,-5,0
87024159,0.6864013671875,-0.4813232421875,0.53759765625,-0.090087890625,-5281,-6145,-341,-3,-5,0
87034129,0.6865234375,-0.4815673828125,0.53729248046875,-0.0897216796875,-5276,-6144,-345,-3,-5,0
87044112,0.6866455078125,-0.4818115234375,0.5369873046875,-0.08929443359375,-5269,-6154,-354,-3,-4,0
87054095,0.68670654296875,-0.4820556640625,0.5367431640625,-0.08892822265625,-5259,-6165,-368,-3,-4,0
87064078,0.686767578125,-0.4822998046875,0.5364990234375,-0.088623046875,-5243,-6171,-391,-2,-4,0
87074062,0.68682861328125,-0.4825439453125,0.53619384765625,-0.08831787109375,-5227,-6172,-402,-2,-4,-1
87084040,0.6868896484375,-0.48284912109375,0.53594970703125,-0.0880126953125,-5215,-6157,-412,-2,-4,-1
87094023,0.68695068359375,-0.48309326171875,0.53570556640625,-0.08782958984375,-5223,-6148,-412,-2,-3,-2
87104006,0.68695068359375,-0.4833984375,0.535400390625,-0.087646484375,-5218,-6144,-402,-2,-3,-2
87113994,0.68695068359375,-0.48370361328125,0.53515625,-0.08758544921875,-5210,-6151,-401,-2,-3,-2
87123976,0.68695068359375,-0.4840087890625,0.534912109375,-0.0875244140625,-5217,-6159,-390,-2,-2,-2
87133952,0.6868896484375,-0.48431396484375,0.53466796875,-0.08746337890625,-5225,-6179,-388,-2,-2,-2
87143935,0.6868896484375,-0.48455810546875,0.5345458984375,-0.08740234375,-5240,-6193,-394,-2,-2,-2
87153916,0.686767578125,-0.48480224609375,0.534423828125,-0.08734130859375,-5255,-6202,-403,-2,-1,-1
87163908,0.68670654296875,-0.4849853515625,0.53436279296875,-0.08721923828125,-5253,-6215,-407,-2,-1,0
87173885,0.6866455078125,-0.48504638671875,0.534423828125,-0.08709716796875,-5255,-6212,-406,-2,-1,0
87183867,0.68658447265625,-0.485107421875,0.53448486328125,-0.0869140625,-5258,-6216,-397,-2,-1,1
87193850,0.6865234375,-0.48516845703125,0.5345458984375,-0.08673095703125,-5266,-6194,-391,-2,-1,1
87203838,0.6864013671875,-0.4852294921875,0.53466796875,-0.0865478515625,-5259,-6185,-386,-2,0,1
87213817,0.68634033203125,-0.48529052734375,0.5347900390625,-0.08636474609375,-5271,-6179,-388,-2,0,0
87223799,0.68621826171875,-0.4853515625,0.53485107421875,-0.08624267578125,-5274,-6165,-390,-2,0,0
87233784,0.68609619140625,-0.48541259765625,0.53497314453125,-0.086181640625,-5297,-6156,-387,-2,0,0
87243770,0.68597412109375,-0.4854736328125,0.5350341796875,-0.086181640625,-5295,-6139,-387,-1,0,-1
87253751,0.685791015625,-0.485595703125,0.53509521484375,-0.086181640625,-5294,-6143,-406,-1,1,-1
87263732,0.6856689453125,-0.48577880859375,0.53515625,-0.0863037109375,-5285,-6144,-415,-2,1,-2
87273710,0.68548583984375,-0.4859619140625,0.53515625,-0.08642578125,-5292,-6164,-424,-1,1,-2
87283690,0.685302734375,-0.48614501953125,0.53521728515625,-0.08660888671875,-5293,-6158,-423,-1,1,-2
87293674,0.6851806640625,-0.48626708984375,0.5352783203125,-0.0867919921875,-5288,-6150,-430,-1,1,-2
87303656,0.68499755859375,-0.4864501953125,0.5352783203125,-0.08697509765625,-5271,-6155,-441,-1,1,-2
87313639,0.684814453125,-0.486572265625,0.53533935546875,-0.08721923828125,-5269,-6161,-437,-1,1,-2
87323627,0.6846923828125,-0.4866943359375,0.535400390625,-0.08740234375,-5265,-6164,-452,0,1,-2
87333618,0.6845703125,-0.4866943359375,0.53558349609375,-0.0875244140625,-5277,-6162,-466,0,1,0
87343591,0.6844482421875,-0.48663330078125,0.5357666015625,-0.0875244140625,-5290,-6164,-481,0,1,0
87353572,0.684326171875,-0.486572265625,0.5360107421875,-0.0875244140625,-5294,-6160,-483,0,1,1
87363555,0.6842041015625,-0.48638916015625,0.5362548828125,-0.0875244140625,-5310,-6169,-495,0,1,1
87373536,0.68414306640625,-0.48626708984375,0.5364990234375,-0.08746337890625,-5314,-6165,-506,0,1,1
87383520,0.68408203125,-0.48602294921875,0.5367431640625,-0.08746337890625,-5334,-6170,-501,1,1,1
87393503,0.68402099609375,-0.48583984375,0.5369873046875,-0.0875244140625,-5356,-6180,-496,1,1,1
87403485,0.6839599609375,-0.48565673828125,0.5372314453125,-0.0875244140625,-5350,-6181,-491,1,1,1
87413468,0.6839599609375,-0.4854736328125,0.53741455078125,-0.08758544921875,-5354,-6165,-483,1,1,0
87423450,0.68389892578125,-0.4853515625,0.53753662109375,-0.08770751953125,-5353,-6162,-484,1,1,0
87433437,0.6839599609375,-0.48516845703125,0.53765869140625,-0.08782958984375,-5343,-6138,-474,1,1,0
87443427,0.68389892578125,-0.48504638671875,0.53778076171875,-0.0880126953125,-5333,-6144,-469,1,1,0
87453411,0.68389892578125,-0.48486328125,0.53790283203125,-0.088134765625,-5351,-6137,-465,1,1,0
87463380,0.68389892578125,-0.4847412109375,0.53802490234375,-0.0882568359375,-5352,-6118,-447,1,0,0
87473364,0.6839599609375,-0.484619140625,0.53802490234375,-0.08831787109375,-5345,-6135,-446,1,0,0
87483350,0.68402099609375,-0.4844970703125,0.5380859375,-0.08843994140625,-5333,-6154,-444,1,0,0
87493328,0.68402099609375,-0.484375,0.53814697265625,-0.0885009765625,-5326,-6147,-431,1,0,0
87503310,0.68414306640625,-0.48419189453125,0.5382080078125,-0.08856201171875,-5324,-6134,-411,0,0,0
87513295,0.68414306640625,-0.484130859375,0.5382080078125,-0.08856201171875,-5342,-6135,-405,0,-1,0
87523281,0.6842041015625,-0.4840087890625,0.5382080078125,-0.08856201171875,-5349,-6122,-387,0,-1,-1
87533256,0.68426513671875,-0.48394775390625,0.53814697265625,-0.08856201171875,-5350,-6108,-391,0,-1,-1
87543243,0.684326171875,-0.48394775390625,0.53814697265625,-0.0885009765625,-5357,-6109,-391,0,-1,0
87553227,0.68438720703125,-0.48394775390625,0.53814697265625,-0.0885009765625,-5358,-6102,-396,-1,-1,-1
87563207,0.68438720703125,-0.48394775390625,0.5380859375,-0.08837890625,-5352,-6086,-405,-1,-1,-1
87573188,0.6844482421875,-0.4840087890625,0.53802490234375,-0.08831787109375,-5355,-6089,-408,-1,-2,-1
87583177,0.6844482421875,-0.48406982421875,0.53790283203125,-0.0882568359375,-5355,-6086,-400,-1,-1,-1
87593158,0.68450927734375,-0.484130859375,0.537841796875,-0.088134765625,-5366,-6093,-400,-2,-2,-1
87603129,0.68450927734375,-0.4842529296875,0.5377197265625,-0.08795166015625,-5367,-6089,-403,-2,-2,-1
87613113,0.68450927734375,-0.48443603515625,0.53759765625,-0.0877685546875,-5356,-6088,-408,-2,-2,-1
87623099,0.68450927734375,-0.48455810546875,0.53753662109375,-0.0875244140625,-5352,-6085,-424,-2,-2,0
87633077,0.68450927734375,-0.48468017578125,0.5374755859375,-0.0872802734375,-5343,-6082,-414,-2,-2,0
