subject,Joshua Spiesman
arm,right
label,0
hz,100.17440927816403
time,5.85978

timestamp_us,q0,q1,q2,q3,ax,ay,az,gx,gy,gz
93374139,0.666015625,-0.57879638671875,-0.42327880859375,0.20550537109375,2522,-7621,-163,-3,2,-4
93384117,0.66607666015625,-0.57891845703125,-0.42333984375,0.2049560546875,2540,-7670,-184,-3,2,-3
93394099,0.66607666015625,-0.5791015625,-0.4232177734375,0.20458984375,2542,-7688,-199,-3,2,-1
93404086,0.66607666015625,-0.579345703125,-0.42303466796875,0.20440673828125,2543,-7690,-189,-2,2,0
93414065,0.666015625,-0.57965087890625,-0.4227294921875,0.204345703125,2551,-7690,-186,-2,2,1
93424049,0.66607666015625,-0.57989501953125,-0.42236328125,0.2042236328125,2568,-7700,-192,-2,2,1
93434034,0.66607666015625,-0.58013916015625,-0.42218017578125,0.2039794921875,2582,-7709,-223,-2,2,-1
93444011,0.66619873046875,-0.58026123046875,-0.4219970703125,0.20361328125,2587,-7698,-232,-1,3,-2
93453995,0.66632080078125,-0.580322265625,-0.42181396484375,0.2032470703125,2580,-7676,-238,-2,3,-2
93463983,0.66644287109375,-0.58050537109375,-0.421630859375,0.20281982421875,2580,-7662,-260,-2,3,-2
93473960,0.66650390625,-0.58062744140625,-0.4215087890625,0.202392578125,2580,-7652,-277,-2,3,-2
93483942,0.6666259765625,-0.580810546875,-0.42132568359375,0.2020263671875,2572,-7663,-298,-2,3,-2
93493925,0.6666259765625,-0.5810546875,-0.421142578125,0.20159912109375,2555,-7649,-312,-2,3,-2
93503907,0.6666259765625,-0.581298828125,-0.42095947265625,0.20123291015625,2537,-7655,-320,-2,3,-1
93513891,0.6666259765625,-0.58154296875,-0.4207763671875,0.200927734375,2520,-7664,-335,-2,2,-1
93523874,0.66656494140625,-0.58184814453125,-0.4205322265625,0.20068359375,2510,-7684,-324,-2,2,-1
93533861,0.66656494140625,-0.58209228515625,-0.42034912109375,0.200439453125,2509,-7706,-319,-2,2,0
93543839,0.66644287109375,-0.58233642578125,-0.420166015625,0.2003173828125,2495,-7721,-313,-2,1,0
93553823,0.6663818359375,-0.5826416015625,-0.41998291015625,0.20025634765625,2477,-7730,-290,-2,1,0
93563806,0.66632080078125,-0.58282470703125,-0.4197998046875,0.20025634765625,2485,-7751,-272,-2,1,0
93573788,0.66632080078125,-0.58294677734375,-0.41961669921875,0.2003173828125,2482,-7754,-259,-1,0,0
93583767,0.666259765625,-0.58306884765625,-0.4195556640625,0.2003173828125,2500,-7761,-263,-1,0,0
93593766,0.66632080078125,-0.58306884765625,-0.4195556640625,0.2003173828125,2527,-7781,-259,0,-1,-1
93603742,0.66632080078125,-0.5830078125,-0.4195556640625,0.2003173828125,2550,-7782,-252,0,-1,-1
93613726,0.6663818359375,-0.5828857421875,-0.4195556640625,0.20037841796875,2571,-7790,-258,0,-1,-1
93623704,0.66644287109375,-0.58282470703125,-0.41949462890625,0.20050048828125,2586,-7782,-246,1,-1,0
93633686,0.66644287109375,-0.58282470703125,-0.41943359375,0.20068359375,2588,-7787,-236,0,-1,1
93643669,0.66650390625,-0.582763671875,-0.4193115234375,0.200927734375,2591,-7783,-229,1,-1,1
93653649,0.66656494140625,-0.58270263671875,-0.419189453125,0.20111083984375,2598,-7771,-221,1,-1,1
93663630,0.66656494140625,-0.5826416015625,-0.41912841796875,0.20135498046875,2585,-7774,-242,1,-1,1
93673614,0.6666259765625,-0.58258056640625,-0.41900634765625,0.20159912109375,2590,-7785,-250,1,-1,0
93683599,0.66668701171875,-0.58245849609375,-0.41900634765625,0.2017822265625,2597,-7788,-255,1,-1,-1
93693577,0.66680908203125,-0.582275390625,-0.41900634765625,0.201904296875,2586,-7798,-283,2,-1,-1
93703560,0.6668701171875,-0.58209228515625,-0.4190673828125,0.20208740234375,2583,-7787,-291,2,-1,-1
93713541,0.66705322265625,-0.58184814453125,-0.41912841796875,0.20220947265625,2587,-7763,-291,2,-1,-1
93723526,0.6671142578125,-0.58160400390625,-0.419189453125,0.20245361328125,2570,-7734,-276,2,-2,-1
93733508,0.66729736328125,-0.581298828125,-0.41925048828125,0.20263671875,2563,-7700,-266,2,-2,-1
93743494,0.6673583984375,-0.5810546875,-0.41925048828125,0.202880859375,2571,-7670,-255,2,-2,0
93753474,0.66748046875,-0.580810546875,-0.41937255859375,0.203125,2582,-7649,-255,2,-2,-1
93763456,0.66754150390625,-0.58056640625,-0.41943359375,0.203369140625,2583,-7627,-244,2,-2,-1
93773446,0.66766357421875,-0.580322265625,-0.4195556640625,0.20361328125,2584,-7609,-229,2,-2,0
93783426,0.66766357421875,-0.58013916015625,-0.41961669921875,0.20379638671875,2586,-7587,-214,1,-2,0
93793413,0.667724609375,-0.5799560546875,-0.41973876953125,0.2039794921875,2585,-7562,-214,1,-2,-1
93803392,0.66778564453125,-0.57977294921875,-0.419921875,0.20404052734375,2588,-7553,-203,1,-2,-2
93813369,0.6678466796875,-0.57958984375,-0.4200439453125,0.2041015625,2582,-7538,-192,0,-2,-2
93823351,0.6678466796875,-0.57940673828125,-0.42022705078125,0.20416259765625,2573,-7532,-185,0,-2,-1
93833333,0.6678466796875,-0.57928466796875,-0.42041015625,0.2042236328125,2567,-7546,-167,0,-2,-2
93843314,0.66778564453125,-0.5791015625,-0.420654296875,0.20428466796875,2567,-7564,-164,0,-3,-2
93853299,0.667724609375,-0.5789794921875,-0.4208984375,0.204345703125,2562,-7603,-157,0,-3,-2
93863287,0.667724609375,-0.57879638671875,-0.42120361328125,0.204345703125,2559,-7648,-161,0,-3,-3
93873264,0.6676025390625,-0.57861328125,-0.42156982421875,0.20440673828125,2552,-7696,-173,0,-4,-3
93883249,0.66754150390625,-0.578369140625,-0.42193603515625,0.20452880859375,2553,-7732,-159,0,-4,-3
93893235,0.66748046875,-0.578125,-0.42236328125,0.2047119140625,2554,-7785,-152,0,-5,-3
93903219,0.6673583984375,-0.57781982421875,-0.4227294921875,0.20501708984375,2545,-7812,-152,1,-5,-2
93913200,0.66729736328125,-0.57757568359375,-0.42303466796875,0.20538330078125,2543,-7831,-146,2,-5,-1
93923184,0.66717529296875,-0.5772705078125,-0.42333984375,0.2059326171875,2522,-7853,-127,2,-6,-1
93933167,0.66717529296875,-0.57684326171875,-0.4237060546875,0.20654296875,2500,-7880,-99,3,-6,-2
93943151,0.6671142578125,-0.5762939453125,-0.4241943359375,0.2071533203125,2467,-7905,-70,3,-7,-3
93953121,0.66717529296875,-0.57562255859375,-0.42474365234375,0.207763671875,2458,-7944,-38,4,-8,-4
93963104,0.667236328125,-0.57476806640625,-0.4254150390625,0.20843505859375,2448,-7982,3,4,-9,-5
93973086,0.6673583984375,-0.5738525390625,-0.4261474609375,0.20904541015625,2471,-8011,33,5,-9,-5
93983070,0.66754150390625,-0.57281494140625,-0.4268798828125,0.2098388671875,2486,-8027,55,6,-10,-4
93993053,0.66766357421875,-0.57183837890625,-0.42755126953125,0.2108154296875,2497,-8030,76,7,-11,-3
94003035,0.6678466796875,-0.57073974609375,-0.42816162109375,0.21197509765625,2523,-8020,98,8,-11,-2
94013024,0.66796875,-0.5697021484375,-0.42864990234375,0.2132568359375,2554,-8009,108,9,-11,0
94023002,0.668212890625,-0.568603515625,-0.42913818359375,0.2147216796875,2581,-8006,111,10,-11,1
94032988,0.66845703125,-0.5673828125,-0.4295654296875,0.21612548828125,2577,-7999,87,11,-11,0
94042972,0.66876220703125,-0.5660400390625,-0.43017578125,0.21746826171875,2557,-7987,72,12,-12,-3
94052950,0.669189453125,-0.56451416015625,-0.43096923828125,0.21868896484375,2524,-7972,62,13,-12,-6
94062932,0.669677734375,-0.562744140625,-0.43194580078125,0.2197265625,2475,-7932,66,13,-13,-8
94072915,0.670166015625,-0.56085205078125,-0.43316650390625,0.22064208984375,2442,-7871,92,13,-14,-11
94082898,0.67071533203125,-0.558837890625,-0.43450927734375,0.22161865234375,2403,-7836,109,13,-15,-11
94092880,0.67108154296875,-0.5567626953125,-0.43597412109375,0.22265625,2392,-7793,116,13,-16,-11
94102865,0.67144775390625,-0.5548095703125,-0.4373779296875,0.22381591796875,2397,-7762,127,13,-17,-9
94112845,0.671630859375,-0.5528564453125,-0.43878173828125,0.2252197265625,2408,-7736,129,13,-18,-7
94122828,0.67169189453125,-0.55108642578125,-0.4400634765625,0.2269287109375,2419,-7719,125,13,-19,-4
94132811,0.67169189453125,-0.54931640625,-0.4412841796875,0.22882080078125,2404,-7721,113,14,-19,-3
94142797,0.671630859375,-0.54754638671875,-0.44256591796875,0.23089599609375,2360,-7725,105,14,-21,-4
94152781,0.6715087890625,-0.54559326171875,-0.44403076171875,0.23284912109375,2298,-7739,100,15,-22,-6
94162761,0.6715087890625,-0.54339599609375,-0.44573974609375,0.2347412109375,2229,-7743,104,15,-23,-9
94172751,0.67144775390625,-0.541015625,-0.44775390625,0.236572265625,2192,-7743,110,15,-25,-12
94182733,0.67138671875,-0.5384521484375,-0.449951171875,0.2384033203125,2174,-7763,93,16,-26,-12
94192710,0.67120361328125,-0.535888671875,-0.45220947265625,0.240478515625,2175,-7781,84,16,-28,-11
94202695,0.6708984375,-0.5333251953125,-0.45440673828125,0.2427978515625,2193,-7810,50,17,-29,-8
94212678,0.67047119140625,-0.53076171875,-0.45660400390625,0.24542236328125,2235,-7847,23,18,-31,-6
94222661,0.669921875,-0.5283203125,-0.4586181640625,0.24847412109375,2249,-7859,0,19,-33,-3
94232641,0.6693115234375,-0.52581787109375,-0.46063232421875,0.25189208984375,2258,-7849,9,20,-34,-1
94242629,0.6685791015625,-0.523193359375,-0.46258544921875,0.2554931640625,2254,-7810,14,21,-36,1
94252608,0.667724609375,-0.52056884765625,-0.46466064453125,0.25927734375,2273,-7775,24,21,-37,1
94262591,0.66693115234375,-0.51776123046875,-0.46685791015625,0.2630615234375,2290,-7731,36,22,-38,0
94272575,0.66607666015625,-0.5147705078125,-0.46917724609375,0.26690673828125,2290,-7701,50,23,-39,-1
94282555,0.66522216796875,-0.5115966796875,-0.4716796875,0.2706298828125,2303,-7645,57,23,-40,-3
94292536,0.66436767578125,-0.50823974609375,-0.47442626953125,0.27435302734375,2319,-7584,64,23,-42,-5
94302521,0.66339111328125,-0.5047607421875,-0.477294921875,0.278076171875,2329,-7525,68,23,-43,-5
94312505,0.662353515625,-0.50115966796875,-0.4803466796875,0.28179931640625,2358,-7467,85,23,-45,-6
94322489,0.6611328125,-0.49761962890625,-0.48345947265625,0.28564453125,2389,-7414,93,22,-47,-5
94332471,0.6597900390625,-0.49395751953125,-0.48663330078125,0.28955078125,2443,-7390,116,22,-48,-4
94342453,0.6583251953125,-0.4903564453125,-0.4898681640625,0.29364013671875,2523,-7392,122,22,-49,-3
94352431,0.65667724609375,-0.4866943359375,-0.4931640625,0.29779052734375,2595,-7405,109,22,-50,-2
94362420,0.65496826171875,-0.4830322265625,-0.4964599609375,0.302001953125,2660,-7409,111,22,-51,-2
94372407,0.65325927734375,-0.479248046875,-0.4998779296875,0.30615234375,2709,-7426,117,22,-52,-3
94382389,0.6514892578125,-0.475341796875,-0.50335693359375,0.3101806640625,2758,-7417,113,22,-52,-5
94392367,0.6497802734375,-0.47125244140625,-0.50701904296875,0.3140869140625,2815,-7423,106,22,-52,-7
94402349,0.6480712890625,-0.467041015625,-0.51068115234375,0.31787109375,2893,-7445,101,23,-53,-8
94412332,0.64642333984375,-0.46270751953125,-0.51446533203125,0.32159423828125,2985,-7466,95,23,-53,-8
94422314,0.64459228515625,-0.4583740234375,-0.51812744140625,0.32537841796875,3088,-7492,94,23,-53,-7
94432296,0.642822265625,-0.4541015625,-0.521728515625,0.3292236328125,3175,-7484,111,23,-53,-5
94442279,0.64093017578125,-0.44989013671875,-0.52520751953125,0.33319091796875,3241,-7476,111,23,-53,-3
94452259,0.63897705078125,-0.4456787109375,-0.5284423828125,0.33734130859375,3294,-7466,119,24,-52,-2
94462240,0.63702392578125,-0.44158935546875,-0.5316162109375,0.3414306640625,3337,-7450,133,24,-52,-1
94472230,0.63507080078125,-0.4373779296875,-0.5347900390625,0.34552001953125,3363,-7430,141,24,-51,-2
94482213,0.63323974609375,-0.43316650390625,-0.537841796875,0.34942626953125,3372,-7397,159,24,-51,-3
94492199,0.6314697265625,-0.42877197265625,-0.541015625,0.35321044921875,3383,-7383,196,24,-50,-5
94502187,0.62982177734375,-0.42425537109375,-0.5440673828125,0.3568115234375,3388,-7369,262,24,-50,-7
94512170,0.62823486328125,-0.41961669921875,-0.54718017578125,0.36029052734375,3404,-7359,326,24,-49,-8
94522151,0.6265869140625,-0.4150390625,-0.5501708984375,0.3638916015625,3420,-7339,386,24,-50,-6
94532122,0.624755859375,-0.41058349609375,-0.55303955078125,0.36767578125,3425,-7319,430,24,-50,-3
94542102,0.62274169921875,-0.40625,-0.55584716796875,0.3717041015625,3418,-7327,437,24,-51,-2
94552085,0.6207275390625,-0.40185546875,-0.55865478515625,0.375732421875,3437,-7354,446,25,-51,-2
94562071,0.61859130859375,-0.3973388671875,-0.5615234375,0.37969970703125,3499,-7394,435,25,-52,-3
94572052,0.61651611328125,-0.39263916015625,-0.564453125,0.383544921875,3575,-7399,393,26,-52,-4
94582036,0.6143798828125,-0.38787841796875,-0.56744384765625,0.38739013671875,3645,-7415,307,26,-52,-4
94592018,0.6121826171875,-0.383056640625,-0.5704345703125,0.3912353515625,3686,-7396,223,27,-53,-3
94601999,0.60980224609375,-0.37835693359375,-0.5733642578125,0.395263671875,3707,-7373,89,27,-53,-1
94611989,0.60711669921875,-0.3739013671875,-0.57623291015625,0.3994140625,3692,-7335,-62,27,-54,2
94621971,0.6041259765625,-0.36968994140625,-0.5789794921875,0.40386962890625,3636,-7282,-208,27,-54,5
94631948,0.6009521484375,-0.3656005859375,-0.5816650390625,0.40850830078125,3541,-7232,-364,27,-55,7
94641931,0.59747314453125,-0.36163330078125,-0.5843505859375,0.41326904296875,3434,-7209,-508,27,-56,8
94651913,0.59393310546875,-0.3575439453125,-0.58709716796875,0.4180908203125,3330,-7168,-648,28,-57,7
94661896,0.5902099609375,-0.353271484375,-0.5899658203125,0.42279052734375,3255,-7120,-784,28,-59,6
94671876,0.58648681640625,-0.348876953125,-0.59295654296875,0.42742919921875,3228,-7050,-899,28,-60,5
94681860,0.582763671875,-0.34429931640625,-0.5960693359375,0.431884765625,3207,-6977,-983,27,-60,3
94691845,0.57904052734375,-0.33953857421875,-0.59930419921875,0.4361572265625,3201,-6900,-1023,27,-60,2
94701828,0.575439453125,-0.334716796875,-0.60260009765625,0.44012451171875,3212,-6811,-1044,25,-60,-2
94711807,0.57208251953125,-0.32965087890625,-0.60601806640625,0.443603515625,3233,-6743,-1045,24,-59,-6
94721788,0.5689697265625,-0.3243408203125,-0.609619140625,0.44659423828125,3272,-6711,-1053,22,-58,-11
94731778,0.56610107421875,-0.31884765625,-0.6134033203125,0.4490966796875,3326,-6681,-1059,21,-56,-15
94741762,0.56341552734375,-0.31329345703125,-0.6171875,0.45111083984375,3384,-6666,-1029,19,-55,-18
94751745,0.5609130859375,-0.307861328125,-0.620849609375,0.45294189453125,3431,-6612,-986,17,-52,-17
94761727,0.558349609375,-0.30279541015625,-0.6243896484375,0.45465087890625,3469,-6575,-938,16,-50,-15
94771703,0.55572509765625,-0.298095703125,-0.62774658203125,0.456298828125,3500,-6534,-847,13,-49,-12
94781687,0.55303955078125,-0.29388427734375,-0.630859375,0.4580078125,3549,-6525,-778,12,-47,-9
94791669,0.55023193359375,-0.29010009765625,-0.63385009765625,0.459716796875,3609,-6553,-709,10,-45,-6
94801650,0.54736328125,-0.2867431640625,-0.63665771484375,0.4613037109375,3672,-6583,-649,8,-43,-4
94811630,0.54443359375,-0.28387451171875,-0.63934326171875,0.462890625,3715,-6636,-616,5,-41,-1
94821618,0.5413818359375,-0.28143310546875,-0.64190673828125,0.46435546875,3759,-6678,-602,3,-39,1
94831598,0.53839111328125,-0.279296875,-0.6444091796875,0.4656982421875,3785,-6734,-583,2,-37,2
94841578,0.53546142578125,-0.27740478515625,-0.64678955078125,0.46685791015625,3803,-6778,-562,0,-35,2
94851560,0.53265380859375,-0.2757568359375,-0.649169921875,0.4677734375,3827,-6815,-543,-2,-33,2
94861542,0.530029296875,-0.2742919921875,-0.6514892578125,0.46844482421875,3848,-6866,-525,-4,-30,1
94871522,0.527587890625,-0.27294921875,-0.6536865234375,0.46881103515625,3868,-6904,-514,-5,-28,0
94881504,0.525390625,-0.271728515625,-0.6558837890625,0.468994140625,3877,-6940,-519,-7,-25,-1
94891486,0.52349853515625,-0.2706298828125,-0.657958984375,0.46881103515625,3880,-6976,-512,-7,-22,-3
94901468,0.5218505859375,-0.2696533203125,-0.65997314453125,0.4683837890625,3869,-7005,-492,-9,-20,-4
94911452,0.5205078125,-0.268798828125,-0.66180419921875,0.4677734375,3850,-7034,-451,-10,-17,-6
94921431,0.519287109375,-0.26800537109375,-0.66357421875,0.467041015625,3830,-7059,-411,-10,-15,-6
94931423,0.51837158203125,-0.26739501953125,-0.66522216796875,0.466064453125,3824,-7111,-370,-11,-12,-7
94941406,0.5177001953125,-0.266845703125,-0.666748046875,0.46502685546875,3816,-7170,-316,-11,-10,-8
94951391,0.51708984375,-0.26641845703125,-0.6680908203125,0.46392822265625,3828,-7206,-264,-12,-8,-8
94961367,0.51666259765625,-0.26617431640625,-0.66937255859375,0.4627685546875,3859,-7238,-232,-12,-7,-7
94971351,0.51629638671875,-0.26617431640625,-0.67047119140625,0.46160888671875,3876,-7270,-218,-12,-5,-5
94981331,0.51593017578125,-0.266357421875,-0.67138671875,0.46051025390625,3881,-7277,-202,-13,-3,-3
94991314,0.515625,-0.266845703125,-0.67218017578125,0.45941162109375,3883,-7319,-194,-13,-1,-3
95001299,0.5155029296875,-0.2674560546875,-0.67291259765625,0.45819091796875,3869,-7346,-178,-14,1,-3
95011280,0.5155029296875,-0.26812744140625,-0.67352294921875,0.45684814453125,3838,-7369,-155,-14,2,-4
95021264,0.51568603515625,-0.26873779296875,-0.674072265625,0.4554443359375,3799,-7380,-130,-14,3,-6
95031249,0.51605224609375,-0.26934814453125,-0.6746826171875,0.45379638671875,3774,-7392,-95,-15,4,-7
95041233,0.5166015625,-0.2698974609375,-0.6751708984375,0.45208740234375,3760,-7418,-56,-15,5,-8
95051217,0.51727294921875,-0.27044677734375,-0.67572021484375,0.45025634765625,3765,-7459,-19,-15,6,-10
95061199,0.51800537109375,-0.27093505859375,-0.67620849609375,0.44830322265625,3784,-7505,1,-15,7,-10
95071186,0.51885986328125,-0.2713623046875,-0.67669677734375,0.44635009765625,3805,-7544,4,-16,7,-11
95081170,0.51971435546875,-0.27178955078125,-0.67730712890625,0.44415283203125,3825,-7593,-18,-16,8,-12
95091152,0.52081298828125,-0.27215576171875,-0.67779541015625,0.44189453125,3828,-7644,-10,-16,9,-15
95101122,0.52197265625,-0.2724609375,-0.6783447265625,0.43951416015625,3854,-7679,-24,-17,9,-16
95111107,0.523193359375,-0.27276611328125,-0.678955078125,0.43695068359375,3866,-7705,-48,-17,10,-16
95121088,0.5244140625,-0.27313232421875,-0.67950439453125,0.43438720703125,3885,-7725,-71,-18,10,-16
95131069,0.5255126953125,-0.273681640625,-0.67999267578125,0.431884765625,3884,-7717,-92,-18,11,-14
95141053,0.52655029296875,-0.2745361328125,-0.68035888671875,0.42950439453125,3874,-7697,-114,-18,11,-11
95151034,0.52740478515625,-0.275634765625,-0.6806640625,0.42724609375,3864,-7660,-139,-19,12,-8
95161018,0.5281982421875,-0.27703857421875,-0.68084716796875,0.42510986328125,3835,-7610,-170,-19,12,-5
95171001,0.52880859375,-0.2786865234375,-0.680908203125,0.42315673828125,3825,-7555,-186,-19,12,-2
95180990,0.52923583984375,-0.2806396484375,-0.680908203125,0.42132568359375,3789,-7490,-198,-20,13,1
95190971,0.529541015625,-0.28289794921875,-0.6807861328125,0.41961669921875,3757,-7442,-208,-20,13,3
95200949,0.52978515625,-0.2852783203125,-0.68060302734375,0.41796875,3726,-7397,-214,-21,13,4
95210929,0.52996826171875,-0.2877197265625,-0.68048095703125,0.41632080078125,3695,-7342,-232,-21,13,4
95220913,0.5301513671875,-0.29010009765625,-0.68035888671875,0.41461181640625,3661,-7310,-230,-22,13,3
95230895,0.53045654296875,-0.2923583984375,-0.6802978515625,0.41265869140625,3639,-7298,-237,-22,13,1
95240880,0.53094482421875,-0.29437255859375,-0.680419921875,0.41046142578125,3633,-7300,-251,-23,13,-3
95250858,0.53155517578125,-0.29608154296875,-0.68072509765625,0.407958984375,3649,-7307,-272,-23,13,-7
95260842,0.5323486328125,-0.2974853515625,-0.68109130859375,0.4052734375,3676,-7353,-314,-23,13,-11
95270825,0.53326416015625,-0.298583984375,-0.681640625,0.40228271484375,3710,-7373,-357,-23,13,-14
95280812,0.53436279296875,-0.29949951171875,-0.6822509765625,0.39910888671875,3742,-7385,-394,-23,13,-16
95290795,0.53546142578125,-0.30029296875,-0.68292236328125,0.3958740234375,3815,-7405,-436,-23,13,-17
95300778,0.53662109375,-0.30108642578125,-0.68353271484375,0.39263916015625,3899,-7437,-489,-23,13,-16
95310766,0.53778076171875,-0.30181884765625,-0.68414306640625,0.389404296875,4002,-7507,-554,-22,13,-16
95320748,0.5390625,-0.30255126953125,-0.6846923828125,0.38616943359375,4116,-7581,-600,-22,14,-17
95330731,0.54034423828125,-0.30316162109375,-0.68524169921875,0.38287353515625,4219,-7651,-672,-21,14,-18
95340706,0.54180908203125,-0.3035888671875,-0.685791015625,0.37945556640625,4317,-7690,-718,-20,15,-20
95350689,0.54339599609375,-0.30389404296875,-0.68634033203125,0.37591552734375,4398,-7719,-752,-20,15,-21
95360673,0.54510498046875,-0.30419921875,-0.68682861328125,0.37237548828125,4462,-7682,-775,-20,16,-21
95370655,0.54669189453125,-0.3046875,-0.68719482421875,0.368896484375,4519,-7611,-784,-20,17,-19
95380638,0.54833984375,-0.30548095703125,-0.68731689453125,0.36553955078125,4571,-7527,-780,-20,18,-15
95390620,0.54974365234375,-0.30670166015625,-0.687255859375,0.36248779296875,4606,-7421,-781,-21,19,-10
95400604,0.551025390625,-0.3084716796875,-0.6868896484375,0.3597412109375,4632,-7303,-790,-21,20,-4
95410591,0.5521240234375,-0.310791015625,-0.686279296875,0.35723876953125,4633,-7163,-772,-21,21,2
95420568,0.55303955078125,-0.3135986328125,-0.68536376953125,0.35504150390625,4639,-7038,-787,-22,22,7
95430550,0.553955078125,-0.31683349609375,-0.6842041015625,0.35302734375,4632,-6908,-807,-21,24,11
95440536,0.55474853515625,-0.3203125,-0.68292236328125,0.35107421875,4615,-6800,-837,-22,25,13
95450515,0.5556640625,-0.3238525390625,-0.6815185546875,0.34912109375,4598,-6718,-856,-22,26,13
95460502,0.55670166015625,-0.32745361328125,-0.67999267578125,0.3470458984375,4573,-6676,-878,-22,27,12
95470484,0.55792236328125,-0.330810546875,-0.67852783203125,0.34478759765625,4559,-6633,-918,-22,29,9
95480465,0.55938720703125,-0.33404541015625,-0.67706298828125,0.34222412109375,4554,-6624,-948,-22,30,6
95490448,0.56097412109375,-0.3370361328125,-0.6756591796875,0.33941650390625,4549,-6634,-1000,-21,31,3
95500428,0.56280517578125,-0.33984375,-0.67431640625,0.33636474609375,4542,-6641,-1044,-21,32,0
95510420,0.56475830078125,-0.3424072265625,-0.6729736328125,0.3331298828125,4535,-6665,-1076,-21,33,-2
95520400,0.5667724609375,-0.34478759765625,-0.671630859375,0.329833984375,4520,-6680,-1119,-20,33,-4
95530383,0.56890869140625,-0.34716796875,-0.6702880859375,0.326416015625,4489,-6702,-1155,-20,34,-5
95540358,0.57110595703125,-0.3494873046875,-0.66888427734375,0.322998046875,4454,-6743,-1185,-19,35,-6
95550344,0.5733642578125,-0.35162353515625,-0.66741943359375,0.319580078125,4427,-6789,-1221,-19,35,-7
95560325,0.57568359375,-0.353759765625,-0.666015625,0.31610107421875,4397,-6823,-1233,-18,35,-8
95570307,0.57806396484375,-0.35565185546875,-0.66455078125,0.31256103515625,4373,-6858,-1234,-18,35,-10
95580291,0.58050537109375,-0.357421875,-0.66314697265625,0.30908203125,4353,-6860,-1233,-17,34,-11
95590273,0.5828857421875,-0.359130859375,-0.6617431640625,0.3056640625,4345,-6833,-1207,-16,34,-10
95600254,0.585205078125,-0.36090087890625,-0.66021728515625,0.30242919921875,4314,-6784,-1195,-16,33,-8
95610235,0.5872802734375,-0.36285400390625,-0.6585693359375,0.299560546875,4294,-6729,-1174,-15,32,-4
95620233,0.5892333984375,-0.36505126953125,-0.65673828125,0.29705810546875,4280,-6666,-1154,-14,32,1
95630210,0.5909423828125,-0.3675537109375,-0.65472412109375,0.294921875,4260,-6609,-1140,-14,31,5
95640199,0.592529296875,-0.37030029296875,-0.652587890625,0.293212890625,4245,-6587,-1122,-12,31,9
95650182,0.593994140625,-0.37310791015625,-0.65032958984375,0.2916259765625,4239,-6563,-1110,-12,30,10
95660167,0.59539794921875,-0.37591552734375,-0.64801025390625,0.29022216796875,4245,-6554,-1102,-11,29,11
95670147,0.5968017578125,-0.37860107421875,-0.64581298828125,0.28887939453125,4258,-6566,-1108,-11,29,10
95680119,0.59814453125,-0.381103515625,-0.6436767578125,0.2874755859375,4269,-6591,-1111,-10,28,9
95690110,0.59954833984375,-0.38348388671875,-0.6416015625,0.28607177734375,4288,-6589,-1103,-10,27,8
95700090,0.60089111328125,-0.38568115234375,-0.6396484375,0.28466796875,4298,-6572,-1094,-9,26,7
95710072,0.602294921875,-0.3878173828125,-0.63763427734375,0.2833251953125,4313,-6553,-1066,-9,26,7
95720053,0.60357666015625,-0.389892578125,-0.63568115234375,0.2821044921875,4312,-6533,-1023,-8,24,8
95730035,0.60479736328125,-0.39190673828125,-0.6337890625,0.281005859375,4301,-6523,-1011,-8,23,8
95740017,0.60601806640625,-0.39373779296875,-0.63201904296875,0.27984619140625,4295,-6541,-980,-7,23,6
95750001,0.60723876953125,-0.3953857421875,-0.63037109375,0.278564453125,4295,-6560,-973,-7,22,3
95759990,0.60845947265625,-0.396728515625,-0.62896728515625,0.27716064453125,4304,-6586,-976,-7,21,0
95769972,0.6097412109375,-0.3978271484375,-0.627685546875,0.27557373046875,4315,-6589,-971,-7,20,-2
95779948,0.6109619140625,-0.3988037109375,-0.6265869140625,0.2740478515625,4310,-6577,-959,-6,19,-2
95789936,0.612060546875,-0.39990234375,-0.62542724609375,0.27264404296875,4316,-6551,-945,-6,18,0
95799914,0.61297607421875,-0.40118408203125,-0.6241455078125,0.2716064453125,4309,-6528,-927,-6,17,4
95809896,0.61376953125,-0.40264892578125,-0.62274169921875,0.2708740234375,4288,-6499,-880,-6,16,8
95819879,0.6143798828125,-0.404296875,-0.6212158203125,0.2705078125,4260,-6480,-850,-5,15,10
95829862,0.6148681640625,-0.4061279296875,-0.61968994140625,0.270263671875,4234,-6448,-827,-5,14,12
95839844,0.615234375,-0.4078369140625,-0.61822509765625,0.27008056640625,4200,-6419,-810,-6,13,11
95849826,0.6156005859375,-0.40948486328125,-0.61688232421875,0.2698974609375,4169,-6411,-788,-6,12,10
95859809,0.61590576171875,-0.41094970703125,-0.61572265625,0.26959228515625,4150,-6399,-771,-6,11,8
95869793,0.6162109375,-0.4122314453125,-0.61474609375,0.2691650390625,4133,-6389,-762,-6,10,6
95879778,0.61639404296875,-0.41351318359375,-0.6138916015625,0.26873779296875,4114,-6364,-748,-6,9,6
95889763,0.6165771484375,-0.4146728515625,-0.61309814453125,0.268310546875,4077,-6350,-735,-7,8,6
95899746,0.61651611328125,-0.41595458984375,-0.6124267578125,0.26800537109375,4040,-6325,-710,-7,6,7
95909729,0.6163330078125,-0.41729736328125,-0.61175537109375,0.267822265625,3986,-6308,-704,-8,5,8
95919707,0.615966796875,-0.41876220703125,-0.6112060546875,0.267822265625,3945,-6295,-705,-8,3,10
95929687,0.61541748046875,-0.42022705078125,-0.61065673828125,0.2679443359375,3906,-6298,-709,-8,2,10
95939667,0.61468505859375,-0.42169189453125,-0.61029052734375,0.2681884765625,3880,-6344,-727,-9,0,11
95949649,0.61376953125,-0.42315673828125,-0.61004638671875,0.2684326171875,3870,-6399,-769,-9,-2,10
95959629,0.61279296875,-0.42437744140625,-0.61004638671875,0.2686767578125,3874,-6479,-822,-9,-4,8
95969611,0.61175537109375,-0.42547607421875,-0.6102294921875,0.2689208984375,3878,-6558,-863,-9,-5,6
95979595,0.6107177734375,-0.42626953125,-0.6107177734375,0.26898193359375,3896,-6623,-882,-9,-7,3
95989577,0.609619140625,-0.4268798828125,-0.61138916015625,0.2689208984375,3924,-6713,-900,-9,-8,1
95999560,0.6085205078125,-0.4271240234375,-0.61236572265625,0.26873779296875,3970,-6806,-932,-8,-10,-3
96009540,0.6075439453125,-0.427001953125,-0.6136474609375,0.2684326171875,4048,-6888,-961,-8,-11,-6
96019522,0.6065673828125,-0.42657470703125,-0.6151123046875,0.2679443359375,4134,-6966,-1004,-7,-12,-9
96029504,0.6055908203125,-0.4259033203125,-0.61676025390625,0.26739501953125,4208,-7012,-1033,-6,-13,-10
96039488,0.60467529296875,-0.42510986328125,-0.618408203125,0.26690673828125,4266,-7055,-1059,-5,-14,-11
96049470,0.60369873046875,-0.42431640625,-0.62005615234375,0.2666015625,4292,-7036,-1081,-5,-14,-9
96059454,0.6026611328125,-0.42364501953125,-0.6214599609375,0.26666259765625,4296,-6994,-1098,-3,-15,-5
96069433,0.60150146484375,-0.4232177734375,-0.6226806640625,0.26715087890625,4309,-6947,-1100,-2,-15,-1
96081989,0.6002197265625,-0.42303466796875,-0.62371826171875,0.2679443359375,4326,-6901,-1105,-1,-15,3
96089404,0.59893798828125,-0.42303466796875,-0.62445068359375,0.26904296875,4353,-6854,-1103,-1,-15,7
96099389,0.59759521484375,-0.42315673828125,-0.62506103515625,0.27032470703125,4385,-6798,-1120,0,-14,9
96109363,0.59637451171875,-0.42333984375,-0.6256103515625,0.271728515625,4397,-6756,-1124,1,-14,10
96119347,0.59515380859375,-0.42340087890625,-0.62603759765625,0.27301025390625,4418,-6734,-1133,1,-13,8
96129329,0.5941162109375,-0.42340087890625,-0.6265869140625,0.274169921875,4416,-6701,-1155,1,-12,6
96139313,0.59326171875,-0.423095703125,-0.627197265625,0.27508544921875,4420,-6698,-1160,2,-12,3
96149299,0.59259033203125,-0.4224853515625,-0.6279296875,0.2757568359375,4413,-6714,-1158,2,-11,-1
96159275,0.59210205078125,-0.421630859375,-0.62884521484375,0.27606201171875,4396,-6742,-1169,2,-11,-5
96169258,0.591796875,-0.42047119140625,-0.62982177734375,0.276123046875,4385,-6771,-1176,2,-10,-9
96179236,0.5916748046875,-0.41912841796875,-0.6309814453125,0.27593994140625,4347,-6780,-1183,2,-9,-13
96189228,0.59161376953125,-0.41748046875,-0.63226318359375,0.2755126953125,4309,-6798,-1183,2,-9,-15
96199214,0.5916748046875,-0.415771484375,-0.63360595703125,0.2750244140625,4293,-6809,-1176,2,-9,-17
96209199,0.59173583984375,-0.4139404296875,-0.635009765625,0.2744140625,4282,-6821,-1173,2,-9,-18
96219184,0.59173583984375,-0.41217041015625,-0.6363525390625,0.27386474609375,4278,-6840,-1176,2,-9,-17
96229167,0.59173583984375,-0.4105224609375,-0.63763427734375,0.2734375,4311,-6865,-1186,2,-9,-15
96239148,0.59161376953125,-0.4090576171875,-0.6387939453125,0.273193359375,4343,-6891,-1195,2,-9,-12
96249119,0.59136962890625,-0.4078369140625,-0.6397705078125,0.27325439453125,4386,-6922,-1197,3,-10,-8
96259103,0.5909423828125,-0.406982421875,-0.6405029296875,0.273681640625,4430,-6958,-1195,3,-10,-4
96269091,0.59039306640625,-0.40643310546875,-0.64105224609375,0.2744140625,4485,-6976,-1211,3,-10,1
96279069,0.58966064453125,-0.40618896484375,-0.6414794921875,0.275390625,4555,-6991,-1231,3,-10,5
96289052,0.58892822265625,-0.40618896484375,-0.64166259765625,0.276611328125,4627,-7012,-1259,3,-10,8
96299033,0.58807373046875,-0.4063720703125,-0.6417236328125,0.2779541015625,4708,-7002,-1289,3,-9,11
96309016,0.58721923828125,-0.40679931640625,-0.6416015625,0.27935791015625,4770,-6986,-1320,3,-8,13
96319000,0.58636474609375,-0.40728759765625,-0.64141845703125,0.2808837890625,4798,-6952,-1352,3,-7,14
96328988,0.58563232421875,-0.40789794921875,-0.64105224609375,0.28228759765625,4809,-6932,-1384,3,-6,14
96338968,0.5849609375,-0.40850830078125,-0.64068603515625,0.28363037109375,4790,-6893,-1403,3,-5,13
96348947,0.58441162109375,-0.4090576171875,-0.64031982421875,0.28485107421875,4740,-6896,-1407,3,-4,11
96358928,0.58404541015625,-0.409423828125,-0.63995361328125,0.28582763671875,4680,-6864,-1418,3,-3,9
96368912,0.583740234375,-0.40966796875,-0.63970947265625,0.28662109375,4616,-6854,-1428,3,-2,7
96378894,0.5836181640625,-0.4097900390625,-0.63946533203125,0.2872314453125,4552,-6843,-1445,3,-1,5
96388879,0.5836181640625,-0.40985107421875,-0.6392822265625,0.2877197265625,4490,-6842,-1431,3,-1,3
96398871,0.583740234375,-0.40972900390625,-0.63909912109375,0.28802490234375,4432,-6851,-1423,3,0,1
96408850,0.58392333984375,-0.40948486328125,-0.63897705078125,0.2882080078125,4364,-6852,-1412,3,1,-1
96418828,0.58428955078125,-0.4091796875,-0.63885498046875,0.2882080078125,4297,-6849,-1387,3,2,-3
96428811,0.584716796875,-0.4088134765625,-0.63873291015625,0.2882080078125,4228,-6856,-1382,3,2,-4
96438790,0.58514404296875,-0.40838623046875,-0.63861083984375,0.28802490234375,4168,-6856,-1378,3,2,-5
96448778,0.58563232421875,-0.407958984375,-0.6385498046875,0.287841796875,4110,-6865,-1383,3,2,-5
96458762,0.58612060546875,-0.4075927734375,-0.638427734375,0.2877197265625,4051,-6867,-1378,3,3,-5
96468745,0.5865478515625,-0.40728759765625,-0.6383056640625,0.28759765625,4002,-6871,-1387,3,3,-4
96478730,0.5869140625,-0.40704345703125,-0.63812255859375,0.2874755859375,3963,-6871,-1385,2,2,-3
96488707,0.58721923828125,-0.40692138671875,-0.63787841796875,0.28753662109375,3941,-6889,-1386,2,2,-2
96498696,0.58740234375,-0.406982421875,-0.63763427734375,0.28765869140625,3945,-6923,-1396,2,2,0
96508675,0.58746337890625,-0.40716552734375,-0.6373291015625,0.28790283203125,3947,-6993,-1401,1,2,1
96518656,0.5875244140625,-0.407470703125,-0.63702392578125,0.2880859375,3964,-7047,-1400,1,2,2
96528638,0.5875244140625,-0.4078369140625,-0.63665771484375,0.288330078125,3976,-7075,-1416,0,2,3
96538621,0.5875244140625,-0.408203125,-0.6363525390625,0.28857421875,3980,-7098,-1420,0,2,3
96548604,0.58746337890625,-0.40863037109375,-0.635986328125,0.288818359375,3999,-7097,-1414,0,2,4
96558583,0.58734130859375,-0.4091796875,-0.6356201171875,0.2890625,4040,-7064,-1408,-1,2,5
96568564,0.5872802734375,-0.40985107421875,-0.63519287109375,0.289306640625,4076,-7014,-1400,-1,2,7
96578547,0.58709716796875,-0.4107666015625,-0.6346435546875,0.28961181640625,4118,-6977,-1401,-2,3,9
96588529,0.58685302734375,-0.411865234375,-0.63397216796875,0.28997802734375,4177,-6932,-1403,-3,3,11
96598512,0.5865478515625,-0.41314697265625,-0.63323974609375,0.29034423828125,4210,-6873,-1401,-3,4,13
96608494,0.58624267578125,-0.4146728515625,-0.63232421875,0.29071044921875,4244,-6845,-1393,-4,5,14
96618476,0.58599853515625,-0.416259765625,-0.63140869140625,0.29095458984375,4262,-6801,-1382,-5,6,14
96628461,0.5858154296875,-0.41790771484375,-0.63043212890625,0.29107666015625,4276,-6768,-1366,-5,7,13
96638443,0.5858154296875,-0.41949462890625,-0.62945556640625,0.29095458984375,4333,-6750,-1351,-6,9,12
96648431,0.5859375,-0.42108154296875,-0.62847900390625,0.29052734375,4436,-6729,-1341,-7,10,11
96658415,0.586181640625,-0.4227294921875,-0.62744140625,0.28985595703125,4524,-6707,-1358,-8,13,11
96668395,0.5865478515625,-0.42449951171875,-0.6263427734375,0.28887939453125,4595,-6686,-1358,-9,15,11
96678371,0.5870361328125,-0.426513671875,-0.625,0.2877197265625,4643,-6661,-1386,-11,18,11
96688354,0.587646484375,-0.4287109375,-0.62359619140625,0.286376953125,4656,-6649,-1415,-12,20,11
96698337,0.58843994140625,-0.43109130859375,-0.6219482421875,0.2847900390625,4658,-6652,-1441,-13,23,11
96708319,0.58935546875,-0.43359375,-0.62017822265625,0.28289794921875,4646,-6678,-1463,-14,26,10
96718303,0.5904541015625,-0.43621826171875,-0.61822509765625,0.28082275390625,4643,-6712,-1493,-14,29,10
96728287,0.59173583984375,-0.43896484375,-0.61614990234375,0.2784423828125,4657,-6735,-1473,-16,32,9
96738268,0.59307861328125,-0.44189453125,-0.6138916015625,0.2760009765625,4665,-6738,-1472,-16,34,11
96748252,0.594482421875,-0.4451904296875,-0.611328125,0.27337646484375,4666,-6724,-1471,-18,37,13
96758230,0.595947265625,-0.44873046875,-0.6085205078125,0.2706298828125,4635,-6699,-1487,-19,39,15
96768225,0.59735107421875,-0.45263671875,-0.60546875,0.267822265625,4587,-6685,-1513,-21,42,16
96778209,0.59881591796875,-0.45672607421875,-0.602294921875,0.26483154296875,4499,-6687,-1534,-21,44,16
96788199,0.600341796875,-0.4609375,-0.59893798828125,0.26165771484375,4392,-6689,-1539,-23,46,15
96798187,0.60186767578125,-0.4652099609375,-0.59552001953125,0.25823974609375,4279,-6707,-1559,-23,47,14
96808168,0.603515625,-0.4693603515625,-0.5921630859375,0.25469970703125,4148,-6746,-1564,-24,48,11
96818156,0.60516357421875,-0.473388671875,-0.5888671875,0.2508544921875,4021,-6796,-1569,-24,48,8
96828132,0.60693359375,-0.4771728515625,-0.585693359375,0.24676513671875,3928,-6880,-1552,-24,48,5
96838108,0.6087646484375,-0.48065185546875,-0.582763671875,0.24249267578125,3869,-6980,-1539,-24,47,1
96848091,0.61053466796875,-0.48394775390625,-0.5799560546875,0.23809814453125,3805,-7039,-1546,-23,46,-1
96858069,0.61224365234375,-0.48699951171875,-0.57733154296875,0.23382568359375,3744,-7110,-1564,-23,44,-1
96868055,0.6138916015625,-0.49005126953125,-0.57464599609375,0.22979736328125,3666,-7160,-1581,-22,43,0
96878034,0.6153564453125,-0.4930419921875,-0.57196044921875,0.22607421875,3570,-7238,-1591,-20,41,1
96888017,0.61663818359375,-0.49591064453125,-0.56939697265625,0.22271728515625,3474,-7300,-1597,-19,38,1
96897999,0.617919921875,-0.49859619140625,-0.56689453125,0.21966552734375,3382,-7351,-1589,-17,36,1
96907988,0.61907958984375,-0.5009765625,-0.56463623046875,0.21685791015625,3294,-7393,-1569,-15,33,0
96917972,0.62017822265625,-0.50299072265625,-0.56256103515625,0.2142333984375,3209,-7421,-1529,-13,30,-2
96927946,0.62127685546875,-0.50457763671875,-0.56085205078125,0.2117919921875,3147,-7456,-1488,-11,27,-5
96937929,0.62237548828125,-0.50579833984375,-0.55938720703125,0.20953369140625,3108,-7455,-1421,-9,24,-7
96947910,0.6234130859375,-0.50665283203125,-0.55828857421875,0.20733642578125,3092,-7464,-1336,-8,20,-9
96957893,0.62445068359375,-0.507080078125,-0.55743408203125,0.2054443359375,3092,-7473,-1258,-6,17,-11
96967876,0.62548828125,-0.5072021484375,-0.55682373046875,0.2037353515625,3084,-7469,-1171,-4,14,-12
96977859,0.6263427734375,-0.507080078125,-0.55645751953125,0.2022705078125,3078,-7464,-1090,-3,10,-13
96987836,0.627197265625,-0.506591796875,-0.55645751953125,0.20098876953125,3079,-7467,-1007,-1,7,-15
96997823,0.62799072265625,-0.50567626953125,-0.5567626953125,0.19989013671875,3085,-7461,-931,1,4,-18
97007797,0.62872314453125,-0.50439453125,-0.55743408203125,0.1988525390625,3101,-7452,-863,2,0,-21
97017781,0.62945556640625,-0.502685546875,-0.55859375,0.19781494140625,3106,-7454,-817,4,-3,-24
97027767,0.6300048828125,-0.50054931640625,-0.5601806640625,0.1968994140625,3118,-7490,-780,5,-6,-28
97037750,0.6304931640625,-0.498046875,-0.5621337890625,0.19610595703125,3129,-7539,-762,6,-10,-30
97047732,0.630859375,-0.4952392578125,-0.56439208984375,0.19549560546875,3140,-7576,-762,8,-14,-31
97057710,0.6309814453125,-0.49237060546875,-0.56683349609375,0.19537353515625,3144,-7581,-742,10,-17,-29
97067692,0.630859375,-0.489501953125,-0.56927490234375,0.19580078125,3173,-7548,-735,11,-21,-25
97077674,0.63043212890625,-0.48675537109375,-0.57171630859375,0.19696044921875,3204,-7516,-736,13,-25,-19
97087658,0.62969970703125,-0.48419189453125,-0.5740966796875,0.1988525390625,3241,-7482,-738,14,-29,-14
97097641,0.628662109375,-0.48162841796875,-0.576416015625,0.2012939453125,3310,-7470,-754,15,-32,-11
97107621,0.62738037109375,-0.4791259765625,-0.57891845703125,0.20416259765625,3389,-7448,-801,16,-36,-9
97117606,0.6259765625,-0.4764404296875,-0.58160400390625,0.20721435546875,3447,-7434,-852,17,-38,-9
97127588,0.62445068359375,-0.4735107421875,-0.58453369140625,0.21026611328125,3494,-7420,-900,19,-40,-12
97137569,0.6229248046875,-0.47015380859375,-0.58770751953125,0.21331787109375,3544,-7388,-939,19,-42,-15
97147553,0.62139892578125,-0.4664306640625,-0.59124755859375,0.21624755859375,3594,-7353,-983,21,-44,-19
97157536,0.619873046875,-0.46234130859375,-0.594970703125,0.21905517578125,3663,-7324,-1012,22,-45,-21
97167519,0.61846923828125,-0.45782470703125,-0.5989990234375,0.22161865234375,3753,-7298,-1042,23,-46,-25
97177502,0.6170654296875,-0.45294189453125,-0.6031494140625,0.22412109375,3851,-7288,-1079,24,-47,-28
97187484,0.61578369140625,-0.44781494140625,-0.60748291015625,0.2265625,3966,-7292,-1136,25,-47,-30
97197466,0.614501953125,-0.4423828125,-0.61181640625,0.22882080078125,4099,-7290,-1213,26,-47,-31
97207452,0.61322021484375,-0.4368896484375,-0.61614990234375,0.2310791015625,4210,-7284,-1271,27,-47,-31
97217432,0.612060546875,-0.43133544921875,-0.62042236328125,0.23333740234375,4290,-7256,-1331,28,-46,-32
97227424,0.61083984375,-0.42578125,-0.62451171875,0.2357177734375,4366,-7226,-1363,29,-45,-29
97237409,0.609619140625,-0.42034912109375,-0.62835693359375,0.23828125,4448,-7168,-1380,29,-45,-27
97247391,0.60845947265625,-0.41510009765625,-0.6319580078125,0.240966796875,4518,-7115,-1380,29,-44,-24
97257367,0.60723876953125,-0.41009521484375,-0.63531494140625,0.243896484375,4602,-7043,-1365,30,-42,-21
97267351,0.6060791015625,-0.40533447265625,-0.6383056640625,0.24688720703125,4670,-6970,-1343,29,-41,-18
97277333,0.6048583984375,-0.40081787109375,-0.64111328125,0.24993896484375,4719,-6887,-1323,29,-40,-15
97287315,0.60369873046875,-0.396484375,-0.6436767578125,0.253173828125,4757,-6773,-1297,28,-38,-12
97297297,0.60247802734375,-0.39251708984375,-0.64593505859375,0.25640869140625,4772,-6646,-1259,28,-36,-9
97307287,0.60137939453125,-0.38873291015625,-0.64794921875,0.2596435546875,4797,-6545,-1197,27,-35,-7
97317265,0.6002197265625,-0.38525390625,-0.6497802734375,0.26287841796875,4823,-6445,-1160,26,-33,-5
97327249,0.59918212890625,-0.3819580078125,-0.6513671875,0.26611328125,4846,-6370,-1129,26,-31,-3
97337237,0.59820556640625,-0.37884521484375,-0.65283203125,0.2691650390625,4869,-6296,-1101,25,-29,-3
97347219,0.59735107421875,-0.37579345703125,-0.6541748046875,0.27203369140625,4880,-6210,-1067,24,-27,-3
97357201,0.5966796875,-0.37286376953125,-0.65533447265625,0.27471923828125,4894,-6124,-1030,23,-25,-3
97367181,0.5960693359375,-0.3701171875,-0.65643310546875,0.27728271484375,4910,-6065,-1001,22,-23,-3
97377172,0.5955810546875,-0.36737060546875,-0.65740966796875,0.279541015625,4931,-6016,-982,21,-21,-4
97387155,0.59521484375,-0.36474609375,-0.6583251953125,0.2816162109375,4976,-6014,-967,20,-19,-5
97397131,0.5950927734375,-0.362060546875,-0.65911865234375,0.283447265625,5016,-6037,-939,19,-17,-6
97407108,0.59515380859375,-0.359375,-0.659912109375,0.284912109375,5052,-6052,-918,18,-15,-8
97417091,0.59539794921875,-0.35675048828125,-0.66058349609375,0.2861328125,5084,-6082,-917,18,-13,-9
97427072,0.59576416015625,-0.35418701171875,-0.6611328125,0.2872314453125,5111,-6094,-899,17,-10,-9
97437055,0.59619140625,-0.35186767578125,-0.66156005859375,0.28826904296875,5146,-6088,-893,16,-8,-7
97447044,0.59674072265625,-0.34991455078125,-0.66168212890625,0.289306640625,5163,-6091,-861,16,-6,-4
97457019,0.5972900390625,-0.3482666015625,-0.6614990234375,0.29046630859375,5181,-6116,-851,15,-4,-2
97467002,0.59796142578125,-0.34698486328125,-0.66107177734375,0.2916259765625,5207,-6144,-844,15,-2,1
97476989,0.5986328125,-0.34600830078125,-0.66046142578125,0.2928466796875,5219,-6171,-842,14,1,3
97486974,0.59930419921875,-0.3453369140625,-0.6595458984375,0.294189453125,5194,-6156,-837,14,3,6
97496949,0.60009765625,-0.34503173828125,-0.65838623046875,0.2955322265625,5179,-6154,-824,13,5,9
97506934,0.60089111328125,-0.34503173828125,-0.65704345703125,0.2969970703125,5136,-6137,-816,13,7,11
97516914,0.60174560546875,-0.34527587890625,-0.65545654296875,0.2984619140625,5113,-6128,-804,12,9,13
97526898,0.6026611328125,-0.34576416015625,-0.6536865234375,0.29998779296875,5079,-6118,-781,12,10,14
97536881,0.6036376953125,-0.34637451171875,-0.6517333984375,0.30145263671875,5051,-6121,-766,12,12,15
97546864,0.60479736328125,-0.3470458984375,-0.64971923828125,0.30279541015625,5006,-6108,-742,11,14,15
97556847,0.60595703125,-0.34783935546875,-0.6475830078125,0.30401611328125,4949,-6092,-721,11,15,15
97566827,0.6072998046875,-0.34869384765625,-0.6453857421875,0.30511474609375,4896,-6073,-707,10,17,14
97576810,0.608642578125,-0.34967041015625,-0.64312744140625,0.30615234375,4843,-6101,-723,10,18,14
97586794,0.61004638671875,-0.3507080078125,-0.64080810546875,0.30694580078125,4798,-6181,-748,9,19,13
97596778,0.611572265625,-0.3516845703125,-0.63848876953125,0.3076171875,4765,-6269,-776,9,21,11
97606764,0.6131591796875,-0.35272216796875,-0.63616943359375,0.30810546875,4757,-6370,-787,8,22,10
97616748,0.6148681640625,-0.353759765625,-0.6337890625,0.30841064453125,4755,-6454,-781,8,23,10
97626729,0.6165771484375,-0.35491943359375,-0.63128662109375,0.30877685546875,4773,-6509,-754,7,24,11
97636707,0.61822509765625,-0.35638427734375,-0.628662109375,0.30926513671875,4747,-6532,-707,7,24,15
97646689,0.6197509765625,-0.35821533203125,-0.625732421875,0.3099365234375,4710,-6541,-662,6,26,19
97656670,0.62115478515625,-0.3604736328125,-0.62255859375,0.3109130859375,4665,-6551,-631,6,26,24
97666654,0.62237548828125,-0.363037109375,-0.6192626953125,0.31207275390625,4617,-6577,-591,5,27,26
97676637,0.62353515625,-0.3658447265625,-0.61578369140625,0.3133544921875,4552,-6598,-533,4,27,29
97686618,0.6246337890625,-0.368896484375,-0.6121826171875,0.314697265625,4489,-6632,-483,4,28,30
97696601,0.62567138671875,-0.3720703125,-0.6085205078125,0.31597900390625,4451,-6705,-439,3,28,31
97706584,0.62664794921875,-0.375244140625,-0.60491943359375,0.31719970703125,4461,-6854,-436,2,28,30
97716567,0.62762451171875,-0.37835693359375,-0.6014404296875,0.31817626953125,4504,-7061,-467,2,28,27
97726549,0.6287841796875,-0.381103515625,-0.5982666015625,0.318603515625,4562,-7284,-503,1,28,21
97736536,0.630126953125,-0.3834228515625,-0.59539794921875,0.31854248046875,4555,-7474,-544,0,29,14
97746513,0.6317138671875,-0.38531494140625,-0.59283447265625,0.31781005859375,4492,-7560,-557,0,29,7
97756496,0.6334228515625,-0.386962890625,-0.59051513671875,0.31671142578125,4401,-7537,-548,-1,29,3
97766478,0.6351318359375,-0.388671875,-0.5882568359375,0.31549072265625,4283,-7448,-539,-2,28,4
97776462,0.63653564453125,-0.39056396484375,-0.5859375,0.3145751953125,4165,-7347,-506,-3,27,8
97786445,0.63763427734375,-0.39300537109375,-0.5833740234375,0.3140869140625,4059,-7227,-463,-4,26,15
97796425,0.6383056640625,-0.39593505859375,-0.58050537109375,0.3143310546875,3936,-7131,-430,-4,25,23
97806417,0.63848876953125,-0.39947509765625,-0.577392578125,0.315185546875,3825,-7060,-391,-5,23,31
97816399,0.63824462890625,-0.40338134765625,-0.5740966796875,0.31671142578125,3697,-7002,-363,-5,21,37
97826383,0.63775634765625,-0.40740966796875,-0.57080078125,0.31854248046875,3595,-6960,-341,-4,19,40
97836361,0.63702392578125,-0.411376953125,-0.567626953125,0.32049560546875,3498,-6933,-318,-5,17,39
97846344,0.6363525390625,-0.4150390625,-0.564697265625,0.3223876953125,3397,-6940,-294,-4,15,36
97856324,0.63568115234375,-0.41827392578125,-0.56219482421875,0.32391357421875,3301,-6940,-288,-5,13,30
97866308,0.63507080078125,-0.4210205078125,-0.5601806640625,0.32501220703125,3234,-6963,-303,-5,11,23
97876291,0.6346435546875,-0.4232177734375,-0.55865478515625,0.32562255859375,3188,-7007,-320,-5,9,16
97886274,0.6343994140625,-0.42486572265625,-0.55767822265625,0.32568359375,3161,-7060,-301,-5,8,8
97896257,0.6343994140625,-0.42596435546875,-0.55712890625,0.3251953125,3195,-7111,-286,-6,7,2
97906234,0.63446044921875,-0.42669677734375,-0.5570068359375,0.32427978515625,3269,-7152,-270,-7,6,-3
97916223,0.6346435546875,-0.42724609375,-0.55706787109375,0.3231201171875,3353,-7177,-250,-7,6,-5
97926204,0.634765625,-0.42779541015625,-0.5572509765625,0.32183837890625,3435,-7190,-257,-8,5,-5
97936185,0.634765625,-0.428466796875,-0.557373046875,0.32061767578125,3475,-7229,-266,-9,6,-3
97946175,0.6346435546875,-0.42950439453125,-0.557373046875,0.3194580078125,3496,-7283,-263,-10,6,-1
97956167,0.6343994140625,-0.43084716796875,-0.55718994140625,0.31854248046875,3519,-7328,-269,-11,7,3
97966139,0.63397216796875,-0.4326171875,-0.556640625,0.3179931640625,3530,-7329,-243,-11,7,9
97976117,0.6331787109375,-0.43487548828125,-0.55572509765625,0.31793212890625,3520,-7305,-226,-12,7,17
97986100,0.6322021484375,-0.43768310546875,-0.55438232421875,0.31842041015625,3496,-7288,-194,-12,8,24
97996082,0.63104248046875,-0.44091796875,-0.55267333984375,0.31927490234375,3456,-7257,-164,-13,9,30
98006064,0.62969970703125,-0.4444580078125,-0.55072021484375,0.32037353515625,3412,-7252,-116,-13,9,32
98016044,0.62847900390625,-0.447998046875,-0.54864501953125,0.32147216796875,3358,-7270,-50,-14,10,32
98026027,0.6273193359375,-0.45135498046875,-0.54669189453125,0.32232666015625,3292,-7305,18,-14,10,28
98036011,0.6263427734375,-0.45452880859375,-0.544921875,0.32275390625,3217,-7364,74,-14,10,23
98045994,0.62554931640625,-0.457275390625,-0.54351806640625,0.32275390625,3177,-7412,107,-15,11,17
98055984,0.625,-0.45977783203125,-0.5423583984375,0.322265625,3158,-7480,110,-16,11,13
98065958,0.62457275390625,-0.4620361328125,-0.54144287109375,0.3214111328125,3167,-7532,63,-16,12,8
98075942,0.62432861328125,-0.46405029296875,-0.54071044921875,0.3201904296875,3177,-7586,8,-16,12,5
98085924,0.6241455078125,-0.466064453125,-0.5400390625,0.3187255859375,3171,-7619,-66,-16,13,3
98095906,0.62408447265625,-0.46795654296875,-0.53948974609375,0.31707763671875,3163,-7645,-130,-16,14,2
98105886,0.62408447265625,-0.46978759765625,-0.53887939453125,0.3153076171875,3154,-7687,-199,-16,14,1
98115871,0.6240234375,-0.47174072265625,-0.53826904296875,0.31353759765625,3127,-7701,-272,-15,15,1
98125854,0.6240234375,-0.47369384765625,-0.53753662109375,0.3118896484375,3116,-7694,-340,-15,15,3
98135837,0.62396240234375,-0.47589111328125,-0.53656005859375,0.3104248046875,3091,-7674,-379,-15,16,6
98145819,0.623779296875,-0.47833251953125,-0.5352783203125,0.30926513671875,3066,-7620,-415,-15,17,11
98155802,0.62347412109375,-0.48101806640625,-0.53369140625,0.308349609375,3025,-7597,-465,-14,17,14
98165785,0.6231689453125,-0.48388671875,-0.53192138671875,0.30755615234375,2970,-7572,-525,-14,18,16
98175764,0.6229248046875,-0.4866943359375,-0.53009033203125,0.3067626953125,2933,-7563,-598,-13,19,15
98185756,0.622802734375,-0.4893798828125,-0.52838134765625,0.3056640625,2907,-7554,-686,-13,20,11
98195738,0.6229248046875,-0.4918212890625,-0.52685546875,0.30413818359375,2913,-7565,-784,-13,21,7
98205714,0.62322998046875,-0.4940185546875,-0.52557373046875,0.30224609375,2907,-7557,-890,-12,22,3
98215698,0.62359619140625,-0.49609375,-0.5242919921875,0.30010986328125,2885,-7531,-982,-12,23,1
98225680,0.6241455078125,-0.49822998046875,-0.52294921875,0.2979736328125,2842,-7509,-1023,-12,24,2
98235663,0.6246337890625,-0.50042724609375,-0.5213623046875,0.29608154296875,2810,-7510,-1060,-11,24,5
98245645,0.62506103515625,-0.50274658203125,-0.51947021484375,0.29443359375,2761,-7533,-1073,-10,24,8
98255629,0.62542724609375,-0.50518798828125,-0.5174560546875,0.29302978515625,2716,-7577,-1046,-10,24,10
98265611,0.62579345703125,-0.50762939453125,-0.5152587890625,0.29180908203125,2703,-7591,-1034,-9,24,11
98275593,0.626220703125,-0.510009765625,-0.51300048828125,0.290771484375,2656,-7611,-999,-8,24,12
98285575,0.626708984375,-0.51226806640625,-0.5107421875,0.289794921875,2590,-7634,-943,-7,23,11
98295560,0.62725830078125,-0.5142822265625,-0.508544921875,0.28887939453125,2494,-7637,-870,-5,22,9
98305542,0.6279296875,-0.5159912109375,-0.50653076171875,0.2879638671875,2370,-7638,-776,-4,20,5
98315523,0.628662109375,-0.517333984375,-0.5047607421875,0.28704833984375,2256,-7622,-667,-3,18,2
98325509,0.62945556640625,-0.5181884765625,-0.50341796875,0.28607177734375,2183,-7630,-542,-2,15,-2
98335488,0.63031005859375,-0.51873779296875,-0.50238037109375,0.28509521484375,2144,-7677,-432,-2,12,-5
98345470,0.63104248046875,-0.5189208984375,-0.5018310546875,0.28411865234375,2166,-7749,-361,-2,9,-7
98355452,0.6317138671875,-0.51873779296875,-0.501708984375,0.28314208984375,2211,-7850,-316,-1,6,-10
98365433,0.63232421875,-0.518310546875,-0.501953125,0.28216552734375,2285,-7990,-271,-1,3,-13
98375424,0.63287353515625,-0.517578125,-0.50250244140625,0.28131103515625,2329,-8099,-229,0,0,-14
98385407,0.63336181640625,-0.51666259765625,-0.503173828125,0.2806396484375,2332,-8157,-154,1,-2,-14
98395385,0.6336669921875,-0.5157470703125,-0.50384521484375,0.28033447265625,2325,-8163,-61,2,-5,-12
98405362,0.63385009765625,-0.51483154296875,-0.50439453125,0.28057861328125,2333,-8132,42,3,-7,-7
98415351,0.63372802734375,-0.51416015625,-0.5047607421875,0.281494140625,2377,-8088,146,3,-10,0
98425331,0.63336181640625,-0.51373291015625,-0.50469970703125,0.283203125,2427,-8026,243,4,-11,8
98435311,0.63275146484375,-0.51361083984375,-0.50433349609375,0.28546142578125,2508,-7959,299,5,-12,15
98445292,0.6319580078125,-0.513671875,-0.50372314453125,0.28814697265625,2587,-7871,339,6,-13,19
98455275,0.63104248046875,-0.51385498046875,-0.50299072265625,0.2911376953125,2677,-7810,358,6,-14,22
98465258,0.630126953125,-0.51397705078125,-0.50238037109375,0.29400634765625,2767,-7747,365,6,-14,20
98475240,0.62939453125,-0.5137939453125,-0.501953125,0.2965087890625,2859,-7712,340,7,-13,16
98485232,0.62890625,-0.5133056640625,-0.50189208984375,0.2984619140625,2949,-7679,322,6,-12,9
98495212,0.62884521484375,-0.51239013671875,-0.50225830078125,0.2996826171875,3017,-7677,303,6,-10,1
98505190,0.62908935546875,-0.5111083984375,-0.5029296875,0.30010986328125,3077,-7651,281,6,-8,-6
98515183,0.62982177734375,-0.509521484375,-0.50372314453125,0.29998779296875,3135,-7608,279,6,-5,-12
98525167,0.6307373046875,-0.50787353515625,-0.50457763671875,0.29937744140625,3197,-7551,277,6,-2,-14
98535151,0.63189697265625,-0.50634765625,-0.5052490234375,0.29852294921875,3270,-7511,265,5,1,-14
98545119,0.63311767578125,-0.50506591796875,-0.50555419921875,0.2974853515625,3332,-7473,249,4,4,-12
98555101,0.6343994140625,-0.5040283203125,-0.505615234375,0.29638671875,3390,-7464,220,4,7,-10
98565083,0.6357421875,-0.50335693359375,-0.50537109375,0.295166015625,3455,-7437,184,3,10,-8
98575067,0.6370849609375,-0.50299072265625,-0.50482177734375,0.2938232421875,3480,-7417,149,2,13,-6
98585048,0.638427734375,-0.50299072265625,-0.50390625,0.29241943359375,3468,-7372,104,0,16,-4
98595032,0.63970947265625,-0.50335693359375,-0.50274658203125,0.29095458984375,3417,-7320,74,0,18,-2
98605015,0.6409912109375,-0.50396728515625,-0.5013427734375,0.28948974609375,3346,-7275,39,-2,20,-1
98614998,0.64227294921875,-0.5047607421875,-0.49981689453125,0.2879638671875,3262,-7242,9,-3,21,0
98624988,0.6435546875,-0.5057373046875,-0.4981689453125,0.28631591796875,3160,-7219,-12,-3,23,-1
98634959,0.644775390625,-0.50677490234375,-0.4964599609375,0.2845458984375,3071,-7205,-28,-4,24,-1
98644948,0.64605712890625,-0.50787353515625,-0.4947509765625,0.28265380859375,2974,-7210,-42,-5,24,-2
98654930,0.647216796875,-0.509033203125,-0.49310302734375,0.28076171875,2899,-7193,-59,-5,24,-1
98664919,0.6483154296875,-0.51031494140625,-0.49139404296875,0.27899169921875,2824,-7178,-69,-6,23,0
98674899,0.64923095703125,-0.51171875,-0.48956298828125,0.27740478515625,2751,-7145,-71,-6,23,2
98684880,0.6500244140625,-0.51324462890625,-0.4876708984375,0.2760009765625,2699,-7111,-72,-7,22,5
98694863,0.650634765625,-0.51495361328125,-0.48577880859375,0.27471923828125,2655,-7088,-79,-8,21,6
98704845,0.651123046875,-0.5167236328125,-0.48388671875,0.2735595703125,2636,-7094,-88,-8,20,7
98714828,0.6514892578125,-0.51849365234375,-0.482177734375,0.2724609375,2619,-7125,-82,-9,19,7
98724811,0.65185546875,-0.52020263671875,-0.4805908203125,0.271240234375,2593,-7152,-89,-9,18,5
98734793,0.65216064453125,-0.521728515625,-0.479248046875,0.2698974609375,2558,-7184,-88,-10,17,2
98744779,0.65252685546875,-0.52301025390625,-0.47821044921875,0.268310546875,2537,-7220,-86,-10,16,-2
98754762,0.65289306640625,-0.524169921875,-0.4774169921875,0.26666259765625,2514,-7260,-79,-10,15,-4
98764745,0.65313720703125,-0.52520751953125,-0.476806640625,0.26495361328125,2500,-7309,-91,-10,13,-5
98774727,0.65338134765625,-0.52618408203125,-0.4764404296875,0.26324462890625,2496,-7367,-101,-10,11,-6
98784703,0.653564453125,-0.5269775390625,-0.47613525390625,0.2615966796875,2509,-7420,-101,-10,10,-6
98794688,0.65362548828125,-0.5277099609375,-0.47601318359375,0.26007080078125,2529,-7485,-121,-9,8,-7
98804670,0.6536865234375,-0.52838134765625,-0.47607421875,0.2586669921875,2554,-7546,-134,-9,7,-7
98814651,0.65374755859375,-0.52886962890625,-0.4761962890625,0.25732421875,2594,-7594,-143,-8,5,-7
98824635,0.65374755859375,-0.529296875,-0.476318359375,0.25616455078125,2646,-7639,-136,-7,5,-6
98834617,0.6536865234375,-0.52972412109375,-0.4764404296875,0.25518798828125,2691,-7662,-128,-7,4,-5
98844601,0.6536865234375,-0.53009033203125,-0.47650146484375,0.25433349609375,2714,-7662,-106,-6,3,-4
98854581,0.6536865234375,-0.5303955078125,-0.47662353515625,0.2535400390625,2755,-7657,-73,-6,3,-4
98864567,0.6536865234375,-0.5306396484375,-0.47674560546875,0.2528076171875,2785,-7663,-51,-6,2,-5
98874548,0.65374755859375,-0.53076171875,-0.4769287109375,0.25189208984375,2809,-7682,-38,-5,3,-6
98884536,0.65386962890625,-0.53082275390625,-0.47723388671875,0.25091552734375,2854,-7695,-41,-5,3,-8
98894514,0.65411376953125,-0.53076171875,-0.47760009765625,0.24969482421875,2903,-7723,-46,-5,4,-9
98904496,0.65435791015625,-0.53070068359375,-0.47796630859375,0.2484130859375,2950,-7762,-56,-5,4,-10
98914477,0.65472412109375,-0.5306396484375,-0.478271484375,0.2470703125,2973,-7787,-86,-4,5,-10
98924461,0.655029296875,-0.5306396484375,-0.47845458984375,0.245849609375,2982,-7827,-109,-4,5,-8
98934443,0.65533447265625,-0.53076171875,-0.47845458984375,0.24481201171875,2999,-7851,-138,-4,6,-6
98944424,0.65557861328125,-0.531005859375,-0.478271484375,0.24395751953125,2982,-7884,-183,-3,6,-3
98954415,0.65576171875,-0.5313720703125,-0.4779052734375,0.24334716796875,2972,-7911,-238,-2,6,-1
98964403,0.65594482421875,-0.53173828125,-0.47747802734375,0.24298095703125,2956,-7923,-279,-1,5,0
98974391,0.65618896484375,-0.53204345703125,-0.4769287109375,0.24267578125,2952,-7938,-315,0,5,0
98984362,0.65643310546875,-0.5322265625,-0.47650146484375,0.24249267578125,2925,-7927,-345,1,4,0
98994346,0.65667724609375,-0.5323486328125,-0.47601318359375,0.242431640625,2906,-7905,-330,2,3,0
99004329,0.65704345703125,-0.5322265625,-0.47564697265625,0.242431640625,2876,-7837,-309,3,3,-1
99014309,0.657470703125,-0.531982421875,-0.475341796875,0.24249267578125,2842,-7792,-275,4,2,-2
99024287,0.6578369140625,-0.5316162109375,-0.47515869140625,0.2425537109375,2838,-7740,-244,4,1,-3
99034267,0.65826416015625,-0.53106689453125,-0.47515869140625,0.24267578125,2834,-7687,-223,5,0,-4
99044249,0.65869140625,-0.53045654296875,-0.4752197265625,0.24273681640625,2853,-7618,-180,5,-1,-4
99054234,0.65911865234375,-0.5296630859375,-0.4754638671875,0.24285888671875,2861,-7541,-142,5,-3,-5
99064217,0.65948486328125,-0.52886962890625,-0.47576904296875,0.242919921875,2865,-7479,-100,5,-3,-6
99074202,0.6597900390625,-0.52801513671875,-0.4761962890625,0.2430419921875,2877,-7448,-75,5,-4,-6
99084180,0.66015625,-0.52716064453125,-0.4766845703125,0.24310302734375,2898,-7407,-45,5,-4,-6
99094172,0.660400390625,-0.52630615234375,-0.47723388671875,0.24322509765625,2920,-7379,-9,4,-5,-6
99104155,0.66058349609375,-0.52545166015625,-0.477783203125,0.24346923828125,2955,-7374,-13,4,-6,-5
99114133,0.66064453125,-0.52471923828125,-0.47833251953125,0.24371337890625,2990,-7384,-26,4,-6,-4
99124107,0.66070556640625,-0.52398681640625,-0.4788818359375,0.2440185546875,3020,-7386,-29,3,-6,-4
99134091,0.66070556640625,-0.5233154296875,-0.4794921875,0.24432373046875,3053,-7381,-46,4,-6,-4
99144073,0.66070556640625,-0.5225830078125,-0.4801025390625,0.24468994140625,3091,-7393,-35,3,-7,-4
99154055,0.66070556640625,-0.5218505859375,-0.480712890625,0.2449951171875,3119,-7412,-48,4,-7,-4
99164038,0.66070556640625,-0.5211181640625,-0.48138427734375,0.2452392578125,3153,-7426,-58,3,-7,-5
99174021,0.6607666015625,-0.52032470703125,-0.48211669921875,0.24542236328125,3182,-7443,-75,3,-7,-6
99184003,0.66082763671875,-0.51947021484375,-0.48291015625,0.2454833984375,3223,-7455,-85,3,-6,-7
99193990,0.66094970703125,-0.5185546875,-0.48370361328125,0.2454833984375,3248,-7448,-109,4,-6,-7
99203974,0.66107177734375,-0.5177001953125,-0.48443603515625,0.2454833984375,3294,-7427,-95,4,-6,-6
99213952,0.6612548828125,-0.516845703125,-0.485107421875,0.2454833984375,3316,-7397,-102,4,-5,-5
99223932,0.66143798828125,-0.51617431640625,-0.485595703125,0.24554443359375,3348,-7378,-107,3,-4,-4
99233919,0.66156005859375,-0.51556396484375,-0.48602294921875,0.24560546875,3376,-7366,-111,3,-3,-3
