subject,Joshua Spiesman
arm,left
label,3
hz,100.17513250313117
time,5.460437

timestamp_us,q0,q1,q2,q3,ax,ay,az,gx,gy,gz
99982884,0.50982666015625,-0.7640380859375,-0.1279296875,-0.37420654296875,6030,-4971,-2152,-6,26,-3
99992868,0.50927734375,-0.7633056640625,-0.1263427734375,-0.376953125,5974,-4903,-2179,-6,27,-1
100002856,0.5087890625,-0.76263427734375,-0.12457275390625,-0.3795166015625,5936,-4828,-2197,-7,27,1
100012834,0.50830078125,-0.76202392578125,-0.12249755859375,-0.38201904296875,5891,-4731,-2193,-8,27,3
100022818,0.5079345703125,-0.761474609375,-0.12017822265625,-0.3843994140625,5864,-4628,-2180,-8,27,7
100032800,0.507568359375,-0.76104736328125,-0.11737060546875,-0.38653564453125,5840,-4531,-2153,-10,27,11
100042785,0.50726318359375,-0.7607421875,-0.1141357421875,-0.38848876953125,5825,-4435,-2119,-11,27,15
100052769,0.50701904296875,-0.76055908203125,-0.11053466796875,-0.3902587890625,5830,-4372,-2087,-12,27,19
100062755,0.5068359375,-0.760498046875,-0.1064453125,-0.3917236328125,5844,-4366,-2066,-14,27,23
100072738,0.5067138671875,-0.76055908203125,-0.10205078125,-0.39300537109375,5858,-4385,-2050,-15,27,26
100085996,0.5064697265625,-0.76068115234375,-0.09735107421875,-0.39422607421875,5872,-4436,-2029,-16,27,27
100092698,0.50616455078125,-0.7608642578125,-0.0926513671875,-0.3953857421875,5882,-4480,-2000,-18,27,26
100102681,0.50567626953125,-0.7611083984375,-0.08795166015625,-0.39666748046875,5888,-4538,-1983,-19,27,25
100112665,0.50494384765625,-0.76141357421875,-0.08343505859375,-0.39794921875,5875,-4595,-1968,-20,26,23
100122647,0.50396728515625,-0.76177978515625,-0.07904052734375,-0.3994140625,5863,-4668,-1966,-21,26,21
100132629,0.5028076171875,-0.76214599609375,-0.0748291015625,-0.40093994140625,5864,-4751,-1987,-23,26,18
100142614,0.5013427734375,-0.76263427734375,-0.07073974609375,-0.40264892578125,5864,-4819,-2028,-24,26,16
100152594,0.4996337890625,-0.76312255859375,-0.06683349609375,-0.40447998046875,5858,-4857,-2084,-25,27,14
100162577,0.49774169921875,-0.76361083984375,-0.06298828125,-0.406494140625,5831,-4877,-2108,-26,27,12
100172560,0.49560546875,-0.76409912109375,-0.05926513671875,-0.40869140625,5804,-4893,-2119,-27,28,9
100182543,0.4932861328125,-0.7646484375,-0.05548095703125,-0.41094970703125,5769,-4910,-2119,-29,28,9
100192525,0.49090576171875,-0.7652587890625,-0.051513671875,-0.413330078125,5714,-4953,-2125,-30,29,9
100202507,0.4884033203125,-0.76580810546875,-0.04730224609375,-0.4156494140625,5667,-5018,-2127,-32,30,11
100212489,0.4859619140625,-0.76641845703125,-0.04266357421875,-0.4178466796875,5625,-5090,-2130,-33,31,14
100222475,0.4835205078125,-0.76702880859375,-0.0377197265625,-0.42010498046875,5598,-5162,-2133,-34,32,15
100232459,0.48101806640625,-0.76763916015625,-0.032470703125,-0.42230224609375,5551,-5261,-2148,-36,34,16
100242439,0.47845458984375,-0.76824951171875,-0.02691650390625,-0.42449951171875,5497,-5361,-2173,-37,35,17
100252429,0.475830078125,-0.76873779296875,-0.02117919921875,-0.42681884765625,5469,-5468,-2174,-37,37,18
100262413,0.4732666015625,-0.76922607421875,-0.01513671875,-0.42913818359375,5458,-5622,-2188,-39,38,19
100272395,0.47064208984375,-0.76959228515625,-0.00885009765625,-0.4315185546875,5490,-5805,-2202,-39,40,21
100282372,0.4681396484375,-0.76983642578125,-0.002197265625,-0.433837890625,5548,-5997,-2202,-39,41,23
100292355,0.46588134765625,-0.7698974609375,0.00494384765625,-0.4361572265625,5606,-6150,-2190,-39,43,27
100302336,0.4637451171875,-0.769775390625,0.01251220703125,-0.4384765625,5641,-6264,-2183,-39,45,31
100312319,0.46185302734375,-0.76947021484375,0.02044677734375,-0.44073486328125,5657,-6338,-2175,-38,47,34
100322302,0.46014404296875,-0.7689208984375,0.02874755859375,-0.4429931640625,5665,-6385,-2161,-37,50,37
100332283,0.45849609375,-0.76812744140625,0.0372314453125,-0.44549560546875,5698,-6405,-2101,-37,52,39
100342266,0.45697021484375,-0.76702880859375,0.04583740234375,-0.4481201171875,5729,-6447,-2027,-35,54,39
100352246,0.45562744140625,-0.765625,0.0545654296875,-0.450927734375,5768,-6533,-1927,-34,56,40
100362237,0.45440673828125,-0.76385498046875,0.0633544921875,-0.45391845703125,5833,-6681,-1816,-32,59,40
100372220,0.4532470703125,-0.76177978515625,0.07220458984375,-0.45721435546875,5921,-6869,-1750,-31,62,39
100382206,0.4521484375,-0.75946044921875,0.08099365234375,-0.46075439453125,5993,-7072,-1692,-29,64,38
100392191,0.45098876953125,-0.75677490234375,0.089599609375,-0.464599609375,6057,-7247,-1639,-28,67,35
100402174,0.44976806640625,-0.75384521484375,0.097900390625,-0.4688720703125,6103,-7385,-1597,-26,69,32
100412157,0.44830322265625,-0.750732421875,0.105712890625,-0.47357177734375,6120,-7437,-1545,-24,71,26
100422128,0.446533203125,-0.74737548828125,0.11285400390625,-0.4788818359375,6142,-7412,-1450,-23,73,19
100432109,0.4442138671875,-0.743896484375,0.1192626953125,-0.48486328125,6180,-7349,-1342,-22,75,10
100442091,0.44134521484375,-0.7403564453125,0.12481689453125,-0.491455078125,6201,-7271,-1241,-21,76,2
100452073,0.43798828125,-0.73681640625,0.12969970703125,-0.49847412109375,6249,-7224,-1177,-21,77,-7
100462053,0.43402099609375,-0.7332763671875,0.1337890625,-0.5059814453125,6324,-7192,-1151,-21,78,-15
100472036,0.429443359375,-0.7298583984375,0.13726806640625,-0.513916015625,6419,-7080,-1107,-21,79,-23
100482018,0.42413330078125,-0.72650146484375,0.13995361328125,-0.52227783203125,6569,-6898,-998,-23,79,-31
100492001,0.4180908203125,-0.72320556640625,0.141845703125,-0.5311279296875,6796,-6673,-845,-24,79,-38
100501988,0.411376953125,-0.719970703125,0.14306640625,-0.5404052734375,7025,-6464,-677,-25,79,-45
100511965,0.4039306640625,-0.716796875,0.1436767578125,-0.5499267578125,7151,-6316,-557,-27,79,-54
100521948,0.3955078125,-0.71380615234375,0.14349365234375,-0.55987548828125,7209,-6177,-487,-29,79,-66
100531930,0.385986328125,-0.71112060546875,0.142333984375,-0.5701904296875,7252,-6008,-416,-31,79,-79
100541913,0.3753662109375,-0.7086181640625,0.1402587890625,-0.580810546875,7280,-5725,-326,-34,78,-90
100551895,0.36383056640625,-0.70635986328125,0.137451171875,-0.59149169921875,7318,-5379,-215,-37,75,-97
100561884,0.3516845703125,-0.7042236328125,0.134521484375,-0.60198974609375,7373,-5014,-104,-40,73,-97
100571864,0.339599609375,-0.70208740234375,0.13214111328125,-0.61181640625,7433,-4697,26,-44,71,-90
100581845,0.32794189453125,-0.70001220703125,0.13079833984375,-0.62078857421875,7526,-4534,121,-48,68,-79
100591827,0.31695556640625,-0.6978759765625,0.130615234375,-0.62884521484375,7633,-4498,167,-50,66,-69
100601811,0.30633544921875,-0.6959228515625,0.1312255859375,-0.63616943359375,7720,-4523,171,-52,63,-63
100611793,0.29583740234375,-0.694091796875,0.132080078125,-0.6429443359375,7803,-4606,110,-54,60,-63
100621774,0.2847900390625,-0.69244384765625,0.1324462890625,-0.6495361328125,7901,-4733,25,-54,59,-70
100631766,0.27301025390625,-0.69110107421875,0.132080078125,-0.6561279296875,8047,-4925,-52,-54,57,-81
100641748,0.26043701171875,-0.68988037109375,0.13079833984375,-0.6627197265625,8229,-5144,-96,-54,55,-92
100651724,0.2470703125,-0.68878173828125,0.12847900390625,-0.66937255859375,8441,-5358,-151,-53,54,-102
100661706,0.2332763671875,-0.687744140625,0.12542724609375,-0.67596435546875,8651,-5550,-194,-51,52,-110
100671689,0.2191162109375,-0.6866455078125,0.1217041015625,-0.68243408203125,8888,-5726,-232,-49,51,-116
100681672,0.205078125,-0.68560791015625,0.1175537109375,-0.6885986328125,9217,-5961,-297,-46,49,-117
100691654,0.1912841796875,-0.6844482421875,0.11328125,-0.69439697265625,9575,-6221,-374,-43,48,-117
100701645,0.177978515625,-0.68310546875,0.1087646484375,-0.699951171875,9934,-6449,-434,-39,47,-117
100711627,0.16497802734375,-0.68157958984375,0.10400390625,-0.705322265625,10342,-6666,-446,-36,47,-117
100721610,0.1524658203125,-0.6798095703125,0.09893798828125,-0.7105712890625,10776,-6895,-433,-31,47,-117
100731592,0.14044189453125,-0.677734375,0.0936279296875,-0.71575927734375,11242,-7138,-431,-26,48,-117
100741574,0.12890625,-0.6754150390625,0.08795166015625,-0.72076416015625,11702,-7360,-429,-21,48,-117
100751556,0.11761474609375,-0.6729736328125,0.08154296875,-0.7257080078125,12045,-7470,-456,-15,49,-123
100761543,0.10589599609375,-0.67041015625,0.07391357421875,-0.73077392578125,12257,-7433,-495,-9,50,-134
100771521,0.0931396484375,-0.6676025390625,0.06451416015625,-0.73590087890625,12398,-7252,-511,-4,51,-150
100781503,0.07916259765625,-0.66448974609375,0.05322265625,-0.7412109375,12439,-6952,-479,0,54,-168
100791485,0.06402587890625,-0.66107177734375,0.04022216796875,-0.74658203125,12467,-6596,-394,4,55,-183
100801466,0.0482177734375,-0.6571044921875,0.0262451171875,-0.7518310546875,12482,-6213,-254,7,57,-190
100811449,0.03277587890625,-0.6527099609375,0.01202392578125,-0.7568359375,12452,-5825,-115,10,58,-187
100821437,0.0184326171875,-0.64788818359375,-0.00177001953125,-0.7615966796875,12371,-5454,-14,13,59,-177
100831421,0.00543212890625,-0.6427001953125,-0.014892578125,-0.7659912109375,12196,-5026,83,16,60,-166
100841403,-0.00701904296875,-0.63714599609375,-0.0279541015625,-0.770263671875,11963,-4523,192,19,61,-162
100851381,-0.01959228515625,-0.6312255859375,-0.04150390625,-0.7742919921875,11684,-3985,304,21,63,-168
100861363,-0.03314208984375,-0.6248779296875,-0.0560302734375,-0.778076171875,11392,-3476,435,22,63,-179
100871351,-0.04766845703125,-0.61798095703125,-0.0714111328125,-0.78155517578125,11129,-3027,553,22,65,-190
100881328,-0.0626220703125,-0.6107177734375,-0.087158203125,-0.78460693359375,10907,-2643,693,22,65,-194
100891310,-0.07733154296875,-0.60308837890625,-0.102783203125,-0.78729248046875,10667,-2268,831,23,65,-190
100901293,-0.09149169921875,-0.59521484375,-0.11785888671875,-0.78961181640625,10423,-1876,945,22,65,-185
100911276,-0.10528564453125,-0.58721923828125,-0.132568359375,-0.7916259765625,10174,-1453,1066,21,64,-180
100921257,-0.119140625,-0.578857421875,-0.14703369140625,-0.793212890625,9842,-1058,1166,19,64,-182
100931245,-0.1337890625,-0.57012939453125,-0.16162109375,-0.79437255859375,9495,-737,1270,16,63,-189
100941228,-0.1494140625,-0.56085205078125,-0.17645263671875,-0.7950439453125,9121,-491,1322,14,63,-199
100951210,-0.1656494140625,-0.55126953125,-0.19134521484375,-0.7950439453125,8751,-344,1350,12,62,-204
100961191,-0.18206787109375,-0.54144287109375,-0.20599365234375,-0.79461669921875,8329,-200,1371,11,60,-204
100971182,-0.1983642578125,-0.5313720703125,-0.2203369140625,-0.79364013671875,7796,-40,1358,9,59,-202
100981164,-0.2147216796875,-0.52099609375,-0.2344970703125,-0.79217529296875,7203,129,1315,8,58,-202
100991139,-0.2314453125,-0.51025390625,-0.24859619140625,-0.7901611328125,6560,266,1278,6,57,-205
101001117,-0.24853515625,-0.49908447265625,-0.26263427734375,-0.78759765625,6060,319,1274,5,56,-209
101011100,-0.26531982421875,-0.48779296875,-0.27606201171875,-0.7845458984375,5730,296,1262,4,55,-204
101021082,-0.2808837890625,-0.476806640625,-0.28851318359375,-0.78143310546875,5387,225,1255,4,53,-192
101031065,-0.29498291015625,-0.4661865234375,-0.300048828125,-0.7783203125,4973,153,1196,5,51,-176
101041051,-0.307373046875,-0.4561767578125,-0.31072998046875,-0.7752685546875,4543,92,1154,8,50,-159
101051030,-0.31817626953125,-0.44677734375,-0.3206787109375,-0.77227783203125,4093,86,1140,10,48,-144
101061012,-0.32794189453125,-0.4378662109375,-0.33013916015625,-0.769287109375,3591,130,1123,12,45,-134
101070997,-0.33746337890625,-0.42913818359375,-0.33966064453125,-0.76593017578125,3107,186,1096,14,43,-134
101080983,-0.3472900390625,-0.4205322265625,-0.34930419921875,-0.76202392578125,2758,228,1069,16,40,-137
101090960,-0.35711669921875,-0.412109375,-0.3590087890625,-0.757568359375,2465,276,1043,18,37,-138
101100943,-0.36676025390625,-0.40386962890625,-0.36871337890625,-0.752685546875,2194,350,1025,21,35,-136
101110925,-0.37579345703125,-0.39605712890625,-0.3782958984375,-0.74761962890625,1894,462,1027,23,32,-128
101120908,-0.38385009765625,-0.388916015625,-0.387451171875,-0.7425537109375,1621,582,1037,26,30,-117
101130890,-0.3907470703125,-0.3826904296875,-0.39593505859375,-0.7376708984375,1380,712,1063,28,26,-103
101140872,-0.39654541015625,-0.37750244140625,-0.4039306640625,-0.73291015625,1133,873,1068,31,22,-91
101150855,-0.4017333984375,-0.37298583984375,-0.41168212890625,-0.72808837890625,865,1045,1045,33,19,-85
101160840,-0.40667724609375,-0.368896484375,-0.41943359375,-0.7230224609375,623,1238,1014,36,16,-83
101170822,-0.41162109375,-0.36492919921875,-0.4273681640625,-0.717529296875,384,1446,993,39,14,-84
101180805,-0.41650390625,-0.36114501953125,-0.43548583984375,-0.71173095703125,49,1668,980,41,13,-83
101190787,-0.42132568359375,-0.357421875,-0.44378662109375,-0.70562744140625,-369,1919,961,43,12,-81
101200767,-0.42596435546875,-0.35382080078125,-0.45220947265625,-0.69927978515625,-860,2185,929,45,11,-79
101210758,-0.43048095703125,-0.35028076171875,-0.46075439453125,-0.69268798828125,-1395,2464,896,47,10,-76
101220742,-0.434814453125,-0.34674072265625,-0.46929931640625,-0.68597412109375,-1972,2738,900,47,9,-72
101230718,-0.43878173828125,-0.3433837890625,-0.4776611328125,-0.67938232421875,-2566,3041,906,48,9,-66
101240700,-0.4420166015625,-0.3404541015625,-0.48565673828125,-0.67303466796875,-3159,3372,928,48,9,-55
101250684,-0.44415283203125,-0.3382568359375,-0.49298095703125,-0.6673583984375,-3757,3743,990,47,8,-38
101260666,-0.44482421875,-0.33709716796875,-0.4993896484375,-0.6627197265625,-4353,4158,1092,46,6,-16
101270648,-0.44378662109375,-0.33740234375,-0.5045166015625,-0.659423828125,-4900,4568,1223,44,5,10
101280626,-0.44097900390625,-0.3392333984375,-0.5081787109375,-0.65753173828125,-5395,5026,1340,41,2,36
101290608,-0.4366455078125,-0.342529296875,-0.51055908203125,-0.6568603515625,-5777,5460,1461,38,-1,59
101300586,-0.43109130859375,-0.34716796875,-0.51141357421875,-0.65740966796875,-6022,5835,1575,34,-5,80
101310568,-0.42437744140625,-0.35308837890625,-0.5108642578125,-0.6590576171875,-6058,6110,1666,29,-8,97
101320549,-0.4166259765625,-0.36016845703125,-0.50885009765625,-0.6617431640625,-5945,6277,1722,25,-12,115
101330533,-0.4075927734375,-0.3685302734375,-0.50537109375,-0.6654052734375,-5673,6347,1726,21,-15,132
101340517,-0.39752197265625,-0.37786865234375,-0.50054931640625,-0.66986083984375,-5290,6410,1715,17,-17,146
101350499,-0.38671875,-0.38787841796875,-0.4947509765625,-0.6748046875,-4845,6453,1669,13,-19,154
101360483,-0.37567138671875,-0.3980712890625,-0.4881591796875,-0.67987060546875,-4331,6445,1612,9,-21,156
101370465,-0.36480712890625,-0.40814208984375,-0.48089599609375,-0.68499755859375,-3766,6357,1552,4,-22,153
101380449,-0.35430908203125,-0.41790771484375,-0.47320556640625,-0.68994140625,-3129,6167,1510,1,-23,149
101390434,-0.34375,-0.42755126953125,-0.46484375,-0.69500732421875,-2389,5886,1455,-3,-23,149
101400414,-0.33251953125,-0.4376220703125,-0.45562744140625,-0.7003173828125,-1590,5546,1394,-5,-24,157
101410397,-0.320068359375,-0.44830322265625,-0.44537353515625,-0.7059326171875,-808,5220,1316,-6,-23,168
101420373,-0.30645751953125,-0.45941162109375,-0.4342041015625,-0.71173095703125,-30,4948,1220,-7,-23,177
101430356,-0.29248046875,-0.4703369140625,-0.42291259765625,-0.71728515625,651,4765,1088,-6,-21,173
101440339,-0.27960205078125,-0.480224609375,-0.412353515625,-0.7220458984375,1297,4617,1014,-7,-19,155
101450322,-0.26837158203125,-0.4886474609375,-0.402587890625,-0.72613525390625,2089,4384,1006,-9,-17,132
101460303,-0.258056640625,-0.49627685546875,-0.3931884765625,-0.7298583984375,2983,4112,952,-10,-15,121
101470285,-0.247314453125,-0.5037841796875,-0.38348388671875,-0.7335205078125,3762,3809,886,-11,-13,125
101480269,-0.2353515625,-0.5115966796875,-0.373046875,-0.7374267578125,4291,3560,816,-10,-11,139
101490256,-0.2218017578125,-0.51959228515625,-0.36181640625,-0.74163818359375,4558,3376,774,-9,-9,154
101500240,-0.20721435546875,-0.527587890625,-0.349853515625,-0.74591064453125,4810,3264,767,-10,-6,165
101510223,-0.1915283203125,-0.53570556640625,-0.3369140625,-0.750244140625,5320,3116,774,-11,-6,174
101520206,-0.17474365234375,-0.54412841796875,-0.32275390625,-0.75457763671875,6133,2849,803,-13,-6,184
101530193,-0.156494140625,-0.5528564453125,-0.3070068359375,-0.75872802734375,6983,2522,797,-15,-6,197
101540175,-0.13690185546875,-0.56182861328125,-0.2899169921875,-0.7626953125,7641,2114,762,-16,-5,210
101550157,-0.11663818359375,-0.5704345703125,-0.27227783203125,-0.76611328125,7983,1746,689,-15,-4,215
101560129,-0.09674072265625,-0.5782470703125,-0.2550048828125,-0.76898193359375,8021,1436,607,-14,-2,207
101570110,-0.07830810546875,-0.58489990234375,-0.239013671875,-0.771240234375,8025,1192,551,-12,-1,189
101580099,-0.06146240234375,-0.59051513671875,-0.22430419921875,-0.7728271484375,8252,958,541,-12,0,171
101590078,-0.0458984375,-0.5955810546875,-0.21026611328125,-0.77398681640625,8755,673,574,-13,0,159
101600060,-0.03057861328125,-0.600341796875,-0.19622802734375,-0.7747802734375,9334,396,606,-14,0,158
101610043,-0.0152587890625,-0.60504150390625,-0.1817626953125,-0.77508544921875,9698,172,615,-15,-2,161
101620024,-0.000244140625,-0.60943603515625,-0.16729736328125,-0.7750244140625,9740,17,616,-16,-3,159
101630006,0.01373291015625,-0.61346435546875,-0.15338134765625,-0.77459716796875,9469,-33,548,-18,-4,151
101639995,0.0260009765625,-0.6170654296875,-0.14056396484375,-0.77386474609375,9039,-39,482,-20,-5,135
101649978,0.0364990234375,-0.62017822265625,-0.1287841796875,-0.77301025390625,8826,-131,454,-22,-6,121
101659954,0.0465087890625,-0.623291015625,-0.1168212890625,-0.7718505859375,8969,-339,481,-25,-7,121
101669938,0.05767822265625,-0.62664794921875,-0.1033935546875,-0.77032470703125,9367,-689,543,-27,-9,139
101679917,0.07135009765625,-0.63037109375,-0.0875244140625,-0.76812744140625,9794,-1090,603,-29,-12,168
101689900,0.08746337890625,-0.6341552734375,-0.06927490234375,-0.76513671875,10021,-1468,613,-31,-12,196
101699883,0.105224609375,-0.63775634765625,-0.0494384765625,-0.761474609375,10038,-1789,576,-32,-12,212
101709865,0.1229248046875,-0.6407470703125,-0.0294189453125,-0.75732421875,9818,-2019,534,-32,-11,211
101719846,0.13909912109375,-0.64306640625,-0.01055908203125,-0.7530517578125,9474,-2195,498,-33,-9,194
101729830,0.1529541015625,-0.64483642578125,0.006591796875,-0.7489013671875,9263,-2464,490,-33,-8,169
101739813,0.16473388671875,-0.64617919921875,0.0220947265625,-0.74493408203125,9200,-2772,571,-34,-7,149
101749796,0.17523193359375,-0.647216796875,0.03668212890625,-0.74102783203125,9184,-3132,671,-35,-8,139
101759785,0.185302734375,-0.648193359375,0.0509033203125,-0.73687744140625,9150,-3517,732,-35,-9,135
101769769,0.1951904296875,-0.6490478515625,0.0650634765625,-0.732421875,9049,-3854,776,-35,-10,136
101779751,0.20513916015625,-0.6497802734375,0.07916259765625,-0.7276611328125,8870,-4107,796,-35,-12,137
101789734,0.21490478515625,-0.65045166015625,0.0931396484375,-0.7225341796875,8622,-4293,808,-35,-13,135
101799710,0.2242431640625,-0.6510009765625,0.106689453125,-0.71734619140625,8375,-4445,841,-35,-14,131
101809694,0.23321533203125,-0.65142822265625,0.11993408203125,-0.71197509765625,8191,-4619,904,-36,-15,128
101819674,0.241943359375,-0.65179443359375,0.1331787109375,-0.70635986328125,8061,-4816,953,-37,-16,129
101829658,0.250732421875,-0.652099609375,0.14654541015625,-0.7003173828125,7979,-5040,965,-38,-18,132
101839642,0.259765625,-0.6522216796875,0.16033935546875,-0.69390869140625,7938,-5318,967,-39,-18,137
101849624,0.26904296875,-0.65203857421875,0.17449951171875,-0.68707275390625,7930,-5627,944,-40,-19,142
101859609,0.27850341796875,-0.6517333984375,0.18896484375,-0.67974853515625,7900,-5951,890,-41,-19,145
101869591,0.28790283203125,-0.651123046875,0.2034912109375,-0.67218017578125,7881,-6255,837,-42,-19,146
101879574,0.29693603515625,-0.65032958984375,0.21795654296875,-0.6644287109375,7880,-6567,772,-42,-18,144
101889555,0.305419921875,-0.64935302734375,0.23193359375,-0.65673828125,7909,-6873,733,-43,-17,139
101899543,0.31304931640625,-0.6483154296875,0.24530029296875,-0.6492919921875,7954,-7173,704,-44,-16,131
101909521,0.3199462890625,-0.647216796875,0.2579345703125,-0.64208984375,7984,-7420,666,-44,-14,124
101919505,0.32598876953125,-0.6461181640625,0.26983642578125,-0.63525390625,8015,-7622,615,-43,-13,115
101929485,0.3311767578125,-0.64501953125,0.28094482421875,-0.6287841796875,8031,-7776,578,-43,-11,107
101939468,0.3358154296875,-0.64385986328125,0.291259765625,-0.622802734375,8043,-7906,536,-41,-9,100
101949449,0.3397216796875,-0.64276123046875,0.3009033203125,-0.6171875,8066,-8003,496,-40,-8,93
101959439,0.34307861328125,-0.6416015625,0.3096923828125,-0.61212158203125,8080,-8034,492,-38,-6,85
101969423,0.34576416015625,-0.64056396484375,0.31756591796875,-0.60772705078125,8083,-8012,507,-36,-4,75
101979405,0.3477783203125,-0.63958740234375,0.32440185546875,-0.60394287109375,8116,-7924,551,-33,-3,65
101989380,0.34912109375,-0.63873291015625,0.33013916015625,-0.6009521484375,8169,-7789,648,-30,-2,57
101999365,0.350341796875,-0.637939453125,0.3350830078125,-0.59844970703125,8185,-7612,818,-27,-2,52
102009351,0.351806640625,-0.636962890625,0.33935546875,-0.59613037109375,8122,-7473,1035,-22,-5,50
102019329,0.3538818359375,-0.6361083984375,0.34271240234375,-0.5938720703125,8018,-7395,1279,-16,-10,47
102029310,0.35626220703125,-0.63568115234375,0.3448486328125,-0.59173583984375,7914,-7405,1518,-10,-17,38
102039293,0.35858154296875,-0.6358642578125,0.3450927734375,-0.58990478515625,7879,-7463,1726,-3,-25,23
102049276,0.3602294921875,-0.63720703125,0.3428955078125,-0.58880615234375,7957,-7466,1866,5,-31,2
102059256,0.36077880859375,-0.63970947265625,0.337890625,-0.588623046875,8151,-7344,1970,11,-38,-23
102069241,0.3599853515625,-0.6434326171875,0.330078125,-0.5894775390625,8473,-7112,2023,17,-41,-47
102079225,0.35797119140625,-0.64788818359375,0.320068359375,-0.59130859375,8902,-6835,2011,22,-43,-65
102089207,0.3551025390625,-0.65277099609375,0.3084716796875,-0.59381103515625,9377,-6597,1940,26,-43,-77
102099195,0.35174560546875,-0.65771484375,0.29608154296875,-0.5966796875,9861,-6382,1780,29,-42,-83
102109176,0.34808349609375,-0.6624755859375,0.28326416015625,-0.59979248046875,10259,-6186,1577,32,-39,-85
102119158,0.34423828125,-0.6669921875,0.270263671875,-0.60302734375,10575,-5982,1363,34,-36,-88
102129129,0.3399658203125,-0.67120361328125,0.25701904296875,-0.6065673828125,10837,-5811,1201,35,-33,-93
102139115,0.3350830078125,-0.67510986328125,0.243408203125,-0.6104736328125,11082,-5683,1076,35,-28,-99
102149098,0.32952880859375,-0.6788330078125,0.22955322265625,-0.61480712890625,11287,-5555,970,34,-24,-105
102159078,0.32330322265625,-0.68218994140625,0.2154541015625,-0.6195068359375,11423,-5424,849,33,-20,-111
102169061,0.31634521484375,-0.68524169921875,0.20111083984375,-0.62445068359375,11523,-5298,733,32,-15,-118
102179045,0.30865478515625,-0.68804931640625,0.18646240234375,-0.6297607421875,11588,-5176,631,31,-11,-126
102189026,0.29998779296875,-0.69061279296875,0.17144775390625,-0.6353759765625,11682,-5064,569,29,-7,-134
102199010,0.29046630859375,-0.69287109375,0.15618896484375,-0.64129638671875,11795,-5025,554,26,-4,-142
102208996,0.2801513671875,-0.69482421875,0.1407470703125,-0.64727783203125,11928,-5058,548,23,-1,-148
102218981,0.26922607421875,-0.6964111328125,0.1253662109375,-0.65338134765625,12055,-5131,520,21,2,-153
102228957,0.25775146484375,-0.6976318359375,0.11004638671875,-0.659423828125,12149,-5227,487,18,5,-158
102238939,0.24591064453125,-0.69842529296875,0.09490966796875,-0.6654052734375,12218,-5333,424,16,8,-160
102248923,0.23382568359375,-0.6988525390625,0.08001708984375,-0.6712646484375,12257,-5399,333,15,11,-163
102258906,0.2213134765625,-0.6988525390625,0.0650634765625,-0.6771240234375,12272,-5419,267,14,13,-166
102268888,0.2083740234375,-0.69842529296875,0.050048828125,-0.682861328125,12301,-5418,222,13,16,-171
102278869,0.1949462890625,-0.6976318359375,0.03485107421875,-0.6885986328125,12328,-5368,172,11,18,-177
102288852,0.180908203125,-0.6964111328125,0.01947021484375,-0.69427490234375,12320,-5280,147,10,20,-182
102298835,0.16632080078125,-0.69476318359375,0.00390625,-0.6998291015625,12286,-5192,105,8,21,-188
102308817,0.1513671875,-0.6927490234375,-0.0115966796875,-0.705078125,12246,-5096,58,7,22,-190
102318801,0.1363525390625,-0.6904296875,-0.02691650390625,-0.7099609375,12223,-5006,23,6,22,-191
102328785,0.12139892578125,-0.6878662109375,-0.04193115234375,-0.7144775390625,12192,-4886,-12,5,23,-190
102338772,0.106201171875,-0.6849365234375,-0.05694580078125,-0.7186279296875,12208,-4717,-53,4,23,-193
102348754,0.09063720703125,-0.68157958984375,-0.07220458984375,-0.7225341796875,12225,-4489,-86,4,24,-198
102358737,0.0743408203125,-0.6778564453125,-0.087890625,-0.7261962890625,12227,-4254,-108,3,25,-206
102368714,0.05731201171875,-0.67352294921875,-0.10400390625,-0.7296142578125,12176,-3983,-135,2,27,-214
102378697,0.03961181640625,-0.6685791015625,-0.12054443359375,-0.7327880859375,12082,-3671,-144,1,28,-221
102388679,0.02154541015625,-0.66302490234375,-0.13720703125,-0.73565673828125,11919,-3321,-137,0,30,-224
102398662,0.00341796875,-0.6568603515625,-0.15374755859375,-0.73822021484375,11707,-2954,-127,-1,32,-224
102408642,-0.0147705078125,-0.650146484375,-0.17010498046875,-0.740478515625,11456,-2551,-113,-2,34,-223
102418624,-0.03289794921875,-0.642822265625,-0.18609619140625,-0.74237060546875,11134,-2144,-92,-4,35,-223
102428607,-0.0511474609375,-0.63494873046875,-0.20184326171875,-0.7440185546875,10789,-1778,-69,-5,37,-223
102438590,-0.0693359375,-0.62652587890625,-0.2171630859375,-0.745361328125,10498,-1481,-68,-8,39,-221
102448572,-0.08697509765625,-0.6177978515625,-0.23175048828125,-0.7464599609375,10173,-1205,-82,-9,41,-214
102458555,-0.103759765625,-0.60882568359375,-0.24542236328125,-0.747314453125,9757,-969,-81,-10,42,-204
102468543,-0.1197509765625,-0.59967041015625,-0.25836181640625,-0.7479248046875,9312,-736,-43,-10,42,-197
102478522,-0.13519287109375,-0.59039306640625,-0.2706298828125,-0.74835205078125,8843,-498,0,-11,42,-190
102488503,-0.1505126953125,-0.58087158203125,-0.2825927734375,-0.74847412109375,8336,-241,47,-12,42,-189
102498486,-0.1661376953125,-0.57098388671875,-0.2945556640625,-0.7481689453125,7767,-6,75,-13,41,-192
102508469,-0.1824951171875,-0.56048583984375,-0.30682373046875,-0.747314453125,7230,189,93,-14,41,-200
102518452,-0.19927978515625,-0.54949951171875,-0.3192138671875,-0.74603271484375,6762,342,111,-15,40,-203
102528431,-0.2158203125,-0.53839111328125,-0.3311767578125,-0.74432373046875,6322,432,108,-16,40,-198
102538425,-0.23126220703125,-0.52752685546875,-0.34228515625,-0.742431640625,5981,476,109,-15,38,-186
102548407,-0.2452392578125,-0.51727294921875,-0.3521728515625,-0.74053955078125,5691,564,137,-15,37,-170
102558382,-0.25775146484375,-0.50762939453125,-0.36102294921875,-0.73870849609375,5350,665,163,-14,35,-154
102568364,-0.2694091796875,-0.49835205078125,-0.36932373046875,-0.73675537109375,5010,763,181,-13,34,-147
102578351,-0.2808837890625,-0.48907470703125,-0.3775634765625,-0.7344970703125,4645,861,202,-11,33,-148
102588329,-0.29266357421875,-0.4793701171875,-0.3861083984375,-0.7318115234375,4296,939,230,-10,33,-153
102598313,-0.3048095703125,-0.46942138671875,-0.39495849609375,-0.72857666015625,3957,1011,263,-8,32,-157
102608295,-0.31671142578125,-0.45947265625,-0.40380859375,-0.72503662109375,3677,1090,305,-6,31,-154
102618278,-0.3277587890625,-0.4500732421875,-0.41204833984375,-0.72137451171875,3466,1200,369,-4,28,-142
102628260,-0.33740234375,-0.4415283203125,-0.41949462890625,-0.7178955078125,3264,1398,446,-2,26,-127
102638240,-0.345947265625,-0.43365478515625,-0.4263916015625,-0.71453857421875,3006,1594,516,-1,24,-116
102648236,-0.3543701171875,-0.4259033203125,-0.4332275390625,-0.71099853515625,2716,1765,556,1,23,-117
102658218,-0.36334228515625,-0.417724609375,-0.44049072265625,-0.706787109375,2491,1909,626,3,23,-126
102668196,-0.373046875,-0.4090576171875,-0.44830322265625,-0.701904296875,2241,2043,675,5,22,-135
102678186,-0.38311767578125,-0.4000244140625,-0.45660400390625,-0.6962890625,1943,2180,735,7,22,-141
102688174,-0.393310546875,-0.3907470703125,-0.465087890625,-0.69024658203125,1586,2328,804,10,21,-141
102698146,-0.403076171875,-0.38165283203125,-0.47369384765625,-0.683837890625,1138,2503,879,13,20,-137
102708121,-0.41241455078125,-0.3726806640625,-0.48223876953125,-0.67718505859375,589,2719,961,16,20,-132
102718105,-0.42156982421875,-0.36370849609375,-0.49090576171875,-0.670166015625,-50,2926,1038,18,19,-130
102728089,-0.4306640625,-0.35455322265625,-0.49969482421875,-0.66278076171875,-736,3118,1106,20,19,-130
102738071,-0.439697265625,-0.3450927734375,-0.508544921875,-0.655029296875,-1432,3269,1174,22,20,-130
102748055,-0.4483642578125,-0.335693359375,-0.5172119140625,-0.64715576171875,-2156,3388,1246,23,19,-123
102758038,-0.45611572265625,-0.326904296875,-0.52557373046875,-0.6395263671875,-2881,3471,1288,25,19,-110
102768021,-0.4625244140625,-0.319091796875,-0.533203125,-0.63250732421875,-3622,3562,1362,26,18,-90
102778004,-0.46734619140625,-0.3126220703125,-0.54010009765625,-0.62628173828125,-4406,3669,1420,28,16,-68
102787993,-0.4708251953125,-0.30755615234375,-0.5462646484375,-0.620849609375,-5152,3811,1496,30,14,-49
102797977,-0.473388671875,-0.3035888671875,-0.5517578125,-0.61590576171875,-5852,4007,1568,31,11,-35
102807953,-0.4754638671875,-0.3006591796875,-0.55670166015625,-0.61138916015625,-6426,4239,1614,31,7,-25
102817936,-0.47723388671875,-0.29840087890625,-0.56103515625,-0.6070556640625,-6880,4457,1672,31,3,-18
102827915,-0.47869873046875,-0.29705810546875,-0.564697265625,-0.60321044921875,-7208,4664,1711,29,-2,-9
102837895,-0.47955322265625,-0.296875,-0.5675048828125,-0.5999755859375,-7415,4866,1726,28,-6,5
102847878,-0.47943115234375,-0.2982177734375,-0.5692138671875,-0.5977783203125,-7528,5055,1740,26,-11,25
102857856,-0.47802734375,-0.3013916015625,-0.569580078125,-0.596923828125,-7531,5236,1732,24,-15,48
102867840,-0.4752197265625,-0.306640625,-0.568603515625,-0.59747314453125,-7426,5378,1683,21,-21,72
102877821,-0.47113037109375,-0.313720703125,-0.56622314453125,-0.5992431640625,-7237,5504,1615,19,-25,93
102887804,-0.4659423828125,-0.3223876953125,-0.56268310546875,-0.60205078125,-6947,5609,1522,16,-30,111
102897786,-0.4598388671875,-0.33221435546875,-0.55804443359375,-0.605712890625,-6562,5634,1420,14,-33,124
102907773,-0.45306396484375,-0.34295654296875,-0.55242919921875,-0.60992431640625,-6108,5591,1320,12,-36,134
102917759,-0.4456787109375,-0.3543701171875,-0.5460205078125,-0.6146240234375,-5591,5473,1192,10,-38,141
102927742,-0.43756103515625,-0.36639404296875,-0.53887939453125,-0.61968994140625,-5032,5296,1073,8,-39,150
102937719,-0.4287109375,-0.37896728515625,-0.53106689453125,-0.62506103515625,-4433,5082,934,7,-39,157
102947702,-0.4189453125,-0.39202880859375,-0.52252197265625,-0.63079833984375,-3802,4881,808,6,-39,165
102957685,-0.40838623046875,-0.405517578125,-0.5133056640625,-0.63671875,-3163,4711,668,6,-39,170
102967667,-0.39752197265625,-0.4189453125,-0.503662109375,-0.642578125,-2508,4522,580,4,-38,170
102977650,-0.38677978515625,-0.43182373046875,-0.4937744140625,-0.64825439453125,-1850,4323,528,2,-36,164
102987629,-0.3760986328125,-0.44415283203125,-0.4837646484375,-0.65374755859375,-1148,4086,450,0,-35,160
102997612,-0.36505126953125,-0.456298828125,-0.473388671875,-0.6591796875,-353,3813,392,-1,-33,159
103007592,-0.35321044921875,-0.4686279296875,-0.46246337890625,-0.66473388671875,476,3511,299,-1,-32,166
103017581,-0.3399658203125,-0.48138427734375,-0.45062255859375,-0.67059326171875,1337,3239,219,0,-30,177
103027560,-0.32537841796875,-0.49462890625,-0.4378662109375,-0.6766357421875,2126,3071,164,1,-29,187
103037545,-0.31024169921875,-0.50762939453125,-0.4246826171875,-0.6824951171875,2843,2957,158,0,-27,187
103047527,-0.29541015625,-0.519775390625,-0.41168212890625,-0.68792724609375,3608,2844,133,-1,-25,176
103057507,-0.28125,-0.53094482421875,-0.39910888671875,-0.6927490234375,4486,2683,65,-2,-21,163
103067491,-0.26708984375,-0.5413818359375,-0.38665771484375,-0.69732666015625,5501,2431,-51,-2,-17,157
103077478,-0.25164794921875,-0.55181884765625,-0.37359619140625,-0.701904296875,6484,2096,-200,0,-14,167
103087456,-0.23394775390625,-0.56280517578125,-0.3592529296875,-0.70684814453125,7214,1791,-302,3,-11,190
103097438,-0.214111328125,-0.573974609375,-0.34381103515625,-0.7117919921875,7596,1645,-329,7,-8,208
103107430,-0.193603515625,-0.5845947265625,-0.32818603515625,-0.71636962890625,7671,1698,-316,10,-5,211
103117412,-0.17413330078125,-0.59375,-0.31365966796875,-0.7203369140625,7655,1773,-245,10,-2,195
103127398,-0.1566162109375,-0.601318359375,-0.30047607421875,-0.72369384765625,7982,1678,-223,8,1,170
103137372,-0.14019775390625,-0.60797119140625,-0.28790283203125,-0.7265625,8613,1491,-234,6,4,157
103147354,-0.1236572265625,-0.61419677734375,-0.27508544921875,-0.72930908203125,9243,1232,-290,5,6,160
103157337,-0.1060791015625,-0.620361328125,-0.26141357421875,-0.73187255859375,9616,968,-318,6,8,171
103167320,-0.08758544921875,-0.626220703125,-0.24713134765625,-0.73431396484375,9637,836,-299,7,9,181
103177302,-0.06890869140625,-0.6314697265625,-0.232666015625,-0.73651123046875,9363,826,-233,8,11,184
103187282,-0.05084228515625,-0.635986328125,-0.21868896484375,-0.7384033203125,9012,859,-129,7,12,179
103197267,-0.03375244140625,-0.6397705078125,-0.205322265625,-0.73992919921875,8873,761,-53,6,12,168
103207246,-0.017333984375,-0.64312744140625,-0.1920166015625,-0.74114990234375,8968,607,18,4,12,164
103217238,-0.000732421875,-0.6463623046875,-0.17816162109375,-0.74200439453125,9102,404,101,1,11,170
103227217,0.01641845703125,-0.6495361328125,-0.16339111328125,-0.742431640625,9131,150,170,0,9,178
103237196,0.033935546875,-0.6527099609375,-0.1478271484375,-0.7423095703125,9016,-53,204,-2,7,186
103247187,0.05157470703125,-0.65582275390625,-0.1318359375,-0.7415771484375,8756,-221,232,-4,4,189
103257174,0.06854248046875,-0.65869140625,-0.11590576171875,-0.7403564453125,8406,-361,261,-6,2,185
103267154,0.084716796875,-0.66131591796875,-0.10003662109375,-0.7386474609375,8187,-589,306,-9,-1,180
103277120,0.1005859375,-0.6639404296875,-0.08380126953125,-0.736328125,8268,-1027,342,-13,-3,181
103287103,0.1170654296875,-0.6666259765625,-0.0662841796875,-0.73321533203125,8708,-1725,362,-16,-7,192
103297083,0.1351318359375,-0.6693115234375,-0.046875,-0.7291259765625,9223,-2509,378,-18,-9,212
103307066,0.15484619140625,-0.671875,-0.02545166015625,-0.723876953125,9600,-3301,327,-19,-11,233
103317051,0.17559814453125,-0.674072265625,-0.0029296875,-0.717529296875,9763,-3999,258,-19,-13,244
103327032,0.1962890625,-0.67572021484375,0.01971435546875,-0.7103271484375,9716,-4528,205,-19,-13,243
103337014,0.21551513671875,-0.67669677734375,0.04107666015625,-0.702880859375,9501,-4898,169,-19,-13,227
103346997,0.23248291015625,-0.67718505859375,0.06048583984375,-0.695556640625,9216,-5200,137,-20,-13,202
103356986,0.246826171875,-0.67742919921875,0.07769775390625,-0.6885986328125,8986,-5511,156,-22,-12,175
103366963,0.2589111328125,-0.67755126953125,0.09295654296875,-0.68218994140625,8882,-5855,189,-23,-12,153
103376945,0.2694091796875,-0.67755126953125,0.10711669921875,-0.67596435546875,8870,-6220,250,-25,-12,141
103386927,0.279296875,-0.67742919921875,0.12078857421875,-0.66973876953125,8889,-6539,290,-26,-12,138
103396910,0.2891845703125,-0.67706298828125,0.134765625,-0.66326904296875,8896,-6831,280,-27,-12,143
103406892,0.2994384765625,-0.67626953125,0.14923095703125,-0.65631103515625,8895,-7102,229,-28,-11,151
103416878,0.31005859375,-0.67510986328125,0.16436767578125,-0.64892578125,8871,-7345,154,-28,-9,159
103426860,0.32098388671875,-0.6734619140625,0.17999267578125,-0.64117431640625,8855,-7567,88,-28,-8,166
103436845,0.33197021484375,-0.67132568359375,0.19573974609375,-0.63311767578125,8852,-7728,40,-28,-6,169
103446827,0.3427734375,-0.66864013671875,0.21148681640625,-0.62506103515625,8842,-7861,38,-27,-4,170
103456808,0.353271484375,-0.66558837890625,0.2269287109375,-0.6170654296875,8839,-8017,96,-27,-3,168
103466792,0.36322021484375,-0.662109375,0.24200439453125,-0.6092529296875,8881,-8203,154,-27,0,164
103476770,0.37249755859375,-0.6583251953125,0.25640869140625,-0.60174560546875,8905,-8367,203,-27,2,159
103486760,0.38092041015625,-0.65447998046875,0.26995849609375,-0.5947265625,8920,-8452,226,-25,4,149
103496743,0.38818359375,-0.65069580078125,0.28216552734375,-0.5885009765625,8912,-8431,290,-24,6,135
103506720,0.39410400390625,-0.64715576171875,0.2928466796875,-0.583251953125,8897,-8334,388,-23,8,117
103516701,0.3985595703125,-0.6439208984375,0.3018798828125,-0.57916259765625,8883,-8173,527,-22,10,99
103526683,0.40185546875,-0.6409912109375,0.30950927734375,-0.57611083984375,8856,-7988,712,-21,12,84
103536670,0.404296875,-0.63824462890625,0.3160400390625,-0.57391357421875,8777,-7723,923,-20,14,73
103546650,0.4061279296875,-0.6356201171875,0.32171630859375,-0.57232666015625,8635,-7434,1137,-19,14,65
103556636,0.4078369140625,-0.633056640625,0.3270263671875,-0.57098388671875,8379,-7167,1366,-18,13,63
103566615,0.4102783203125,-0.63031005859375,0.33233642578125,-0.56915283203125,7940,-6951,1599,-16,8,68
103576600,0.41436767578125,-0.62744140625,0.3380126953125,-0.5660400390625,7500,-6808,1808,-12,-2,81
103586579,0.420166015625,-0.62457275390625,0.34368896484375,-0.56146240234375,7158,-6794,1958,-8,-15,93
103596562,0.42724609375,-0.6221923828125,0.34869384765625,-0.55572509765625,6938,-6872,2054,-3,-29,95
103606546,0.43463134765625,-0.62060546875,0.35211181640625,-0.54949951171875,6892,-7042,2066,2,-41,86
103616527,0.44146728515625,-0.62042236328125,0.35302734375,-0.543701171875,7030,-7243,1979,7,-51,65
103626511,0.44683837890625,-0.62188720703125,0.3509521484375,-0.5389404296875,7332,-7410,1810,12,-59,36
103636494,0.45037841796875,-0.625,0.34564208984375,-0.53582763671875,7747,-7464,1576,17,-63,3
103646474,0.45184326171875,-0.62957763671875,0.33734130859375,-0.5345458984375,8196,-7404,1310,20,-64,-30
103656455,0.45111083984375,-0.63525390625,0.32635498046875,-0.53521728515625,8621,-7252,1061,23,-61,-62
103666433,0.44830322265625,-0.6417236328125,0.3131103515625,-0.53778076171875,9015,-7104,855,24,-57,-90
103676424,0.4437255859375,-0.64849853515625,0.2982177734375,-0.5418701171875,9405,-7027,652,25,-52,-111
103686407,0.43768310546875,-0.65533447265625,0.28228759765625,-0.54705810546875,9785,-6993,442,26,-45,-125
103696391,0.43096923828125,-0.66168212890625,0.26611328125,-0.5528564453125,10176,-6991,278,27,-39,-129
103706370,0.42401123046875,-0.66729736328125,0.25048828125,-0.55877685546875,10549,-7010,123,26,-33,-124
103716351,0.41717529296875,-0.672119140625,0.2357177734375,-0.564453125,10854,-6971,-43,25,-27,-117
103726335,0.4105224609375,-0.67620849609375,0.221923828125,-0.570068359375,11035,-6883,-154,24,-21,-111
103736317,0.4036865234375,-0.67974853515625,0.208740234375,-0.57574462890625,11154,-6786,-195,22,-16,-111
103746299,0.39630126953125,-0.682861328125,0.19580078125,-0.5816650390625,11243,-6763,-206,19,-11,-115
103756281,0.38812255859375,-0.6856689453125,0.18280029296875,-0.58807373046875,11350,-6824,-181,17,-6,-122
103766262,0.37908935546875,-0.688232421875,0.16973876953125,-0.59490966796875,11466,-6939,-188,13,-1,-131
103776246,0.36895751953125,-0.69061279296875,0.1563720703125,-0.60211181640625,11580,-6994,-237,10,3,-140
103786234,0.3577880859375,-0.6927490234375,0.142578125,-0.60980224609375,11646,-6994,-282,8,7,-151
103796217,0.3453369140625,-0.69464111328125,0.12823486328125,-0.617919921875,11652,-6968,-293,5,10,-164
103806206,0.3314208984375,-0.6964111328125,0.11297607421875,-0.62646484375,11671,-7003,-275,1,13,-181
103816188,0.3160400390625,-0.6978759765625,0.0970458984375,-0.6353759765625,11724,-7097,-240,-3,14,-195
103826174,0.2994384765625,-0.69915771484375,0.0806884765625,-0.64422607421875,11770,-7206,-219,-7,15,-206
103836146,0.281982421875,-0.7001953125,0.06427001953125,-0.65283203125,11839,-7287,-213,-11,16,-211
103846122,0.26422119140625,-0.70086669921875,0.048095703125,-0.66082763671875,11871,-7294,-226,-14,15,-212
103856105,0.24615478515625,-0.7012939453125,0.03228759765625,-0.6683349609375,11879,-7224,-249,-16,14,-211
103866087,0.2279052734375,-0.70147705078125,0.01690673828125,-0.6751708984375,11863,-7114,-274,-19,13,-211
103876069,0.2093505859375,-0.70135498046875,0.00177001953125,-0.681396484375,11809,-6940,-298,-22,12,-212
103886052,0.19049072265625,-0.70111083984375,-0.01324462890625,-0.68707275390625,11734,-6723,-314,-24,10,-214
103896035,0.1712646484375,-0.70062255859375,-0.02825927734375,-0.692138671875,11680,-6491,-302,-26,8,-217
103906017,0.1517333984375,-0.6998291015625,-0.04327392578125,-0.69671630859375,11690,-6243,-298,-27,6,-218
103916001,0.13214111328125,-0.69873046875,-0.05810546875,-0.70074462890625,11707,-5972,-314,-28,5,-217
103925989,0.11279296875,-0.69732666015625,-0.07257080078125,-0.70416259765625,11729,-5714,-365,-28,5,-214
103935965,0.09356689453125,-0.695556640625,-0.0867919921875,-0.70709228515625,11712,-5392,-406,-28,4,-213
103945949,0.0743408203125,-0.69342041015625,-0.1009521484375,-0.7095947265625,11662,-5074,-414,-28,5,-214
103955931,0.05462646484375,-0.69073486328125,-0.11541748046875,-0.71185302734375,11532,-4713,-426,-28,5,-221
103965913,0.03424072265625,-0.6873779296875,-0.1304931640625,-0.7137451171875,11298,-4300,-436,-29,6,-229
103975896,0.01300048828125,-0.683349609375,-0.14617919921875,-0.71527099609375,10978,-3900,-446,-29,8,-238
103985878,-0.008544921875,-0.67852783203125,-0.1622314453125,-0.7164306640625,10667,-3532,-438,-28,9,-242
103995863,-0.02996826171875,-0.67315673828125,-0.177978515625,-0.71722412109375,10395,-3171,-446,-28,11,-239
104005846,-0.05059814453125,-0.66729736328125,-0.19305419921875,-0.7176513671875,10121,-2798,-426,-28,13,-230
104015829,-0.07012939453125,-0.66107177734375,-0.20703125,-0.71783447265625,9790,-2412,-407,-29,15,-217
104025811,-0.088623046875,-0.65460205078125,-0.21990966796875,-0.7178955078125,9389,-2015,-360,-29,17,-205
104035793,-0.10638427734375,-0.6478271484375,-0.23199462890625,-0.71783447265625,8951,-1684,-352,-30,19,-197
104045773,-0.123779296875,-0.64068603515625,-0.24365234375,-0.71759033203125,8545,-1425,-371,-31,21,-195
104055764,-0.14117431640625,-0.63299560546875,-0.25518798828125,-0.71722412109375,8154,-1209,-379,-32,24,-197
104065746,-0.15869140625,-0.62469482421875,-0.2667236328125,-0.71661376953125,7745,-1050,-403,-33,26,-199
104075724,-0.1761474609375,-0.6158447265625,-0.27825927734375,-0.7158203125,7341,-922,-433,-33,28,-199
104088996,-0.1932373046875,-0.6065673828125,-0.28955078125,-0.71484375,6877,-766,-426,-33,30,-196
104095688,-0.20977783203125,-0.5970458984375,-0.30035400390625,-0.7137451171875,6413,-616,-427,-33,31,-188
104105671,-0.225341796875,-0.5875244140625,-0.31036376953125,-0.71258544921875,6049,-478,-431,-33,32,-177
104115656,-0.239501953125,-0.578369140625,-0.31915283203125,-0.71160888671875,5748,-359,-420,-33,32,-161
104125636,-0.252197265625,-0.56964111328125,-0.32672119140625,-0.7108154296875,5462,-239,-410,-33,32,-145
104135617,-0.2637939453125,-0.56121826171875,-0.33343505859375,-0.710205078125,5172,-129,-416,-32,32,-134
104145603,-0.27447509765625,-0.552978515625,-0.339599609375,-0.70965576171875,4849,-34,-404,-31,32,-126
104155586,-0.28472900390625,-0.54473876953125,-0.34564208984375,-0.7091064453125,4522,76,-370,-30,33,-122
104165569,-0.29473876953125,-0.5364990234375,-0.3514404296875,-0.70843505859375,4233,200,-338,-29,32,-119
104175551,-0.30426025390625,-0.52850341796875,-0.35699462890625,-0.7076416015625,3997,343,-298,-28,31,-113
104185535,-0.3131103515625,-0.520751953125,-0.3621826171875,-0.7069091796875,3812,452,-258,-27,31,-106
104195517,-0.3212890625,-0.513427734375,-0.366943359375,-0.7061767578125,3630,587,-229,-25,30,-100
104205503,-0.32891845703125,-0.50628662109375,-0.37158203125,-0.70538330078125,3418,719,-164,-23,29,-95
104215486,-0.336181640625,-0.499267578125,-0.37628173828125,-0.7044677734375,3167,894,-83,-20,29,-92
104225468,-0.3433837890625,-0.49224853515625,-0.38116455078125,-0.70330810546875,2845,1131,38,-17,28,-92
104235449,-0.35076904296875,-0.4849853515625,-0.3865966796875,-0.70172119140625,2442,1398,182,-14,28,-96
104245431,-0.3587646484375,-0.4774169921875,-0.39263916015625,-0.69952392578125,1976,1687,343,-11,27,-103
104255422,-0.36749267578125,-0.46917724609375,-0.3995361328125,-0.69659423828125,1480,1973,518,-8,26,-113
104265404,-0.3770751953125,-0.4603271484375,-0.40728759765625,-0.69287109375,921,2266,704,-6,26,-123
104275380,-0.3873291015625,-0.450927734375,-0.41571044921875,-0.68841552734375,301,2576,911,-3,25,-130
104285360,-0.397705078125,-0.441162109375,-0.424560546875,-0.68341064453125,-365,2892,1116,0,25,-130
104295340,-0.40771484375,-0.431396484375,-0.43328857421875,-0.67822265625,-1074,3224,1348,2,24,-124
104305325,-0.4168701171875,-0.422119140625,-0.44158935546875,-0.67315673828125,-1799,3590,1587,4,23,-111
104315306,-0.42486572265625,-0.41363525390625,-0.44903564453125,-0.66851806640625,-2518,3954,1849,5,21,-94
104325293,-0.43170166015625,-0.4058837890625,-0.4556884765625,-0.664306640625,-3255,4311,2125,6,18,-78
104335272,-0.4376220703125,-0.39898681640625,-0.46142578125,-0.66064453125,-3936,4610,2386,7,16,-63
104345256,-0.44256591796875,-0.39300537109375,-0.46636962890625,-0.657470703125,-4520,4808,2584,7,12,-49
104355240,-0.44647216796875,-0.387939453125,-0.4705810546875,-0.65484619140625,-4979,4930,2715,8,10,-36
104365223,-0.44952392578125,-0.3839111328125,-0.47412109375,-0.652587890625,-5370,5025,2793,9,7,-23
104375206,-0.45159912109375,-0.38079833984375,-0.4769287109375,-0.65087890625,-5670,5129,2838,10,5,-9
104385190,-0.45263671875,-0.37890625,-0.4788818359375,-0.64984130859375,-5849,5203,2873,10,2,6
104395176,-0.45233154296875,-0.37847900390625,-0.47979736328125,-0.649658203125,-5901,5224,2857,10,-2,26
104405155,-0.45025634765625,-0.37982177734375,-0.47943115234375,-0.65057373046875,-5800,5174,2790,11,-5,49
104415126,-0.44622802734375,-0.38311767578125,-0.47760009765625,-0.65277099609375,-5574,5060,2694,11,-9,75
104425109,-0.4400634765625,-0.388427734375,-0.47430419921875,-0.65618896484375,-5244,4894,2555,12,-12,102
104435091,-0.4317626953125,-0.3956298828125,-0.4696044921875,-0.6607666015625,-4864,4697,2399,12,-15,127
104445074,-0.421630859375,-0.40435791015625,-0.463623046875,-0.666259765625,-4407,4491,2235,14,-17,147
104455058,-0.40985107421875,-0.41448974609375,-0.45648193359375,-0.67230224609375,-3918,4284,2059,14,-20,164
104465040,-0.39678955078125,-0.425537109375,-0.44842529296875,-0.67864990234375,-3397,4098,1844,15,-22,175
104475024,-0.38299560546875,-0.43707275390625,-0.439697265625,-0.68487548828125,-2886,3945,1659,15,-24,181
104485006,-0.36883544921875,-0.44891357421875,-0.43035888671875,-0.69091796875,-2347,3787,1491,14,-26,182
104494994,-0.35455322265625,-0.46075439453125,-0.4205322265625,-0.69659423828125,-1774,3643,1337,13,-28,181
104504977,-0.3402099609375,-0.47259521484375,-0.4102783203125,-0.701904296875,-1206,3514,1193,11,-30,180
104514953,-0.32611083984375,-0.48419189453125,-0.39971923828125,-0.706787109375,-633,3401,1072,9,-31,176
104524935,-0.31243896484375,-0.495361328125,-0.38897705078125,-0.711181640625,-35,3297,942,7,-32,169
104534919,-0.2994384765625,-0.506103515625,-0.37823486328125,-0.71502685546875,564,3194,825,4,-33,160
104544901,-0.287109375,-0.5162353515625,-0.36749267578125,-0.71844482421875,1190,3067,727,1,-33,152
104554884,-0.27496337890625,-0.52606201171875,-0.3564453125,-0.72161865234375,1892,2896,598,-2,-33,150
104564864,-0.26226806640625,-0.53607177734375,-0.34466552734375,-0.72467041015625,2621,2707,426,-4,-33,155
104574848,-0.24847412109375,-0.5462646484375,-0.33203125,-0.72784423828125,3276,2552,269,-4,-31,166
104584830,-0.2337646484375,-0.55645751953125,-0.31842041015625,-0.73101806640625,3841,2419,167,-6,-31,175
104594812,-0.218505859375,-0.56634521484375,-0.3040771484375,-0.7342529296875,4406,2249,81,-8,-28,178
104604794,-0.202880859375,-0.5758056640625,-0.289306640625,-0.73736572265625,5105,2016,-66,-10,-25,179
104614775,-0.1865234375,-0.58502197265625,-0.27392578125,-0.74029541015625,6014,1667,-249,-10,-21,183
104624765,-0.1685791015625,-0.59417724609375,-0.25726318359375,-0.7432861328125,6935,1287,-430,-10,-18,197
104634749,-0.148681640625,-0.603271484375,-0.2392578125,-0.7462158203125,7593,993,-559,-9,-15,216
104644724,-0.1273193359375,-0.61199951171875,-0.2200927734375,-0.74896240234375,7976,849,-601,-9,-13,231
104654708,-0.10552978515625,-0.619873046875,-0.200439453125,-0.7513427734375,8193,770,-593,-10,-10,235
104664690,-0.084228515625,-0.62652587890625,-0.18096923828125,-0.75347900390625,8495,624,-544,-12,-4,228
104674677,-0.06378173828125,-0.63189697265625,-0.16180419921875,-0.75537109375,9016,343,-554,-15,2,216
104684657,-0.04425048828125,-0.6361083984375,-0.14288330078125,-0.75701904296875,9633,1,-608,-18,9,207
104694637,-0.0255126953125,-0.63916015625,-0.1241455078125,-0.75860595703125,10044,-355,-607,-20,15,200
104704621,-0.0076904296875,-0.64111328125,-0.10577392578125,-0.7601318359375,10146,-713,-613,-22,19,192
104714604,0.009033203125,-0.6422119140625,-0.08807373046875,-0.761474609375,9931,-1016,-598,-23,22,183
104724586,0.02459716796875,-0.642578125,-0.071044921875,-0.7625732421875,9516,-1244,-547,-25,23,174
104734569,0.0391845703125,-0.6424560546875,-0.054443359375,-0.763427734375,9203,-1524,-487,-27,23,167
104744551,0.0533447265625,-0.64202880859375,-0.03778076171875,-0.763916015625,9150,-1910,-421,-29,23,166
104754534,0.06787109375,-0.64141845703125,-0.020263671875,-0.76397705078125,9302,-2410,-331,-32,22,173
104764522,0.0833740234375,-0.640625,-0.00152587890625,-0.76336669921875,9546,-3019,-249,-33,21,185
104774502,0.1002197265625,-0.63958740234375,0.0185546875,-0.76202392578125,9675,-3559,-139,-34,19,202
104784484,0.11822509765625,-0.63824462890625,0.03985595703125,-0.75970458984375,9591,-4028,-52,-35,16,216
104794468,0.13677978515625,-0.6365966796875,0.061767578125,-0.7564697265625,9312,-4427,-21,-36,13,223
104804450,0.15521240234375,-0.63482666015625,0.08367919921875,-0.7523193359375,9028,-4788,-4,-37,9,222
104814430,0.1729736328125,-0.6328125,0.1053466796875,-0.74737548828125,8988,-5282,67,-39,6,217
104824422,0.190185546875,-0.630615234375,0.126708984375,-0.74176025390625,9199,-5854,171,-40,4,215
104834402,0.206787109375,-0.628173828125,0.14776611328125,-0.73541259765625,9412,-6418,313,-42,1,212
104844380,0.2225341796875,-0.62554931640625,0.168212890625,-0.7286376953125,9469,-6947,422,-43,0,204
104854363,0.23687744140625,-0.622802734375,0.18768310546875,-0.7216796875,9394,-7393,501,-44,-1,190
104864343,0.24951171875,-0.6201171875,0.20562744140625,-0.71478271484375,9227,-7767,587,-44,-1,171
104874324,0.2601318359375,-0.61761474609375,0.22186279296875,-0.70831298828125,9030,-8068,669,-45,-1,150
104884310,0.26861572265625,-0.61553955078125,0.23614501953125,-0.70233154296875,8885,-8315,736,-44,-2,127
104894293,0.27508544921875,-0.6138916015625,0.24847412109375,-0.69696044921875,8753,-8466,837,-44,-2,105
104904274,0.27960205078125,-0.61279296875,0.25909423828125,-0.6922607421875,8583,-8500,932,-45,-3,85
104914258,0.28253173828125,-0.6123046875,0.26806640625,-0.68804931640625,8408,-8459,1000,-44,-4,66
104924245,0.28411865234375,-0.61236572265625,0.27581787109375,-0.68426513671875,8264,-8341,1075,-45,-6,53
104934227,0.2847900390625,-0.61297607421875,0.2825927734375,-0.68072509765625,8113,-8143,1124,-45,-8,44
104944209,0.284912109375,-0.6138916015625,0.2886962890625,-0.67724609375,7918,-7890,1164,-45,-10,38
104954190,0.28472900390625,-0.61505126953125,0.29437255859375,-0.673828125,7734,-7644,1170,-45,-13,35
104964180,0.2845458984375,-0.616455078125,0.2996826171875,-0.6702880859375,7541,-7464,1178,-44,-14,33
104974163,0.28436279296875,-0.617919921875,0.3048095703125,-0.66668701171875,7373,-7373,1160,-43,-16,31
104984139,0.2843017578125,-0.61944580078125,0.30963134765625,-0.66302490234375,7228,-7349,1142,-41,-18,30
104994116,0.284423828125,-0.6209716796875,0.314208984375,-0.659423828125,7084,-7304,1110,-39,-19,30
105004099,0.28460693359375,-0.62255859375,0.31854248046875,-0.65576171875,6956,-7234,1077,-38,-20,29
105014081,0.284912109375,-0.6241455078125,0.322509765625,-0.65216064453125,6860,-7168,1037,-35,-21,28
105024062,0.28533935546875,-0.62567138671875,0.32623291015625,-0.648681640625,6812,-7117,999,-33,-21,28
105034044,0.28594970703125,-0.6270751953125,0.3297119140625,-0.64520263671875,6791,-7073,942,-30,-21,28
105044027,0.2867431640625,-0.62841796875,0.33294677734375,-0.64190673828125,6769,-7048,898,-27,-21,29
105054009,0.28765869140625,-0.629638671875,0.3359375,-0.63873291015625,6749,-7034,850,-25,-21,27
105063995,0.28863525390625,-0.63079833984375,0.33856201171875,-0.63580322265625,6747,-6992,808,-22,-20,26
105073979,0.28955078125,-0.63177490234375,0.3409423828125,-0.63311767578125,6784,-6943,777,-20,-19,25
105083956,0.29058837890625,-0.632568359375,0.3431396484375,-0.630615234375,6844,-6931,742,-18,-17,26
105093940,0.29180908203125,-0.63311767578125,0.345458984375,-0.6282958984375,6941,-6973,691,-16,-15,29
105103926,0.29339599609375,-0.63330078125,0.347900390625,-0.6259765625,7018,-7068,645,-15,-14,32
105113908,0.29541015625,-0.633056640625,0.35064697265625,-0.62371826171875,7040,-7182,639,-12,-13,37
105123890,0.29791259765625,-0.6324462890625,0.35357666015625,-0.6214599609375,6962,-7234,716,-11,-13,41
105133872,0.301025390625,-0.631591796875,0.3564453125,-0.61920166015625,6817,-7221,863,-8,-14,44
105143854,0.30462646484375,-0.63067626953125,0.359130859375,-0.6168212890625,6636,-7165,1030,-6,-17,45
105153837,0.3087158203125,-0.62994384765625,0.36151123046875,-0.61419677734375,6451,-7151,1185,-3,-23,45
105163818,0.31341552734375,-0.62945556640625,0.36328125,-0.6112060546875,6254,-7219,1312,1,-30,45
105173799,0.31878662109375,-0.62957763671875,0.36431884765625,-0.60772705078125,6078,-7355,1384,6,-40,42
105183785,0.32470703125,-0.63043212890625,0.36419677734375,-0.603759765625,5890,-7550,1405,11,-50,36
105193770,0.330810546875,-0.6322021484375,0.3626708984375,-0.5994873046875,5734,-7705,1349,16,-61,26
105203753,0.3367919921875,-0.6351318359375,0.35931396484375,-0.5950927734375,5622,-7756,1262,21,-70,12
105213737,0.3421630859375,-0.63916015625,0.35400390625,-0.59088134765625,5612,-7649,1136,26,-78,-4
105223708,0.34661865234375,-0.64422607421875,0.34686279296875,-0.58697509765625,5763,-7393,991,29,-82,-18
105233691,0.35015869140625,-0.64990234375,0.33819580078125,-0.5836181640625,6014,-7075,820,31,-83,-30
105243673,0.352783203125,-0.65594482421875,0.3287353515625,-0.5806884765625,6347,-6762,619,31,-81,-38
105253655,0.35467529296875,-0.66192626953125,0.31890869140625,-0.57830810546875,6702,-6461,452,30,-76,-41
105263639,0.35595703125,-0.66741943359375,0.3094482421875,-0.5762939453125,7053,-6188,313,28,-69,-40
105273622,0.35675048828125,-0.67218017578125,0.30072021484375,-0.5748291015625,7346,-5941,226,25,-59,-36
105283604,0.35711669921875,-0.6761474609375,0.29302978515625,-0.573974609375,7555,-5721,212,21,-47,-32
105293584,0.3570556640625,-0.67919921875,0.28662109375,-0.5736083984375,7673,-5555,229,16,-36,-27
105303566,0.35675048828125,-0.681396484375,0.2816162109375,-0.57379150390625,7689,-5486,256,12,-24,-20
105313548,0.35638427734375,-0.68267822265625,0.278076171875,-0.57415771484375,7588,-5486,277,8,-15,-13
105323531,0.35614013671875,-0.68316650390625,0.27581787109375,-0.57476806640625,7388,-5551,283,5,-7,-6
105333520,0.3560791015625,-0.68310546875,0.27471923828125,-0.57550048828125,7128,-5645,271,3,-1,0
105343498,0.35626220703125,-0.68255615234375,0.2742919921875,-0.576171875,6864,-5764,232,3,3,4
105353479,0.35662841796875,-0.6817626953125,0.27435302734375,-0.576904296875,6602,-5915,176,3,5,6
105363460,0.35711669921875,-0.68084716796875,0.27447509765625,-0.57757568359375,6368,-6068,117,4,5,6
105373449,0.357666015625,-0.679931640625,0.2745361328125,-0.57830810546875,6163,-6230,47,5,5,4
105383433,0.358154296875,-0.67913818359375,0.274169921875,-0.5791015625,5963,-6347,-26,7,4,0
105393416,0.35845947265625,-0.6785888671875,0.2733154296875,-0.5799560546875,5758,-6411,-111,8,2,-6
105403397,0.3583984375,-0.6783447265625,0.27178955078125,-0.58099365234375,5590,-6410,-177,9,1,-12
105413376,0.35791015625,-0.678466796875,0.26959228515625,-0.5821533203125,5474,-6334,-256,9,-1,-19
105423355,0.3570556640625,-0.67889404296875,0.26690673828125,-0.58349609375,5401,-6218,-326,9,-1,-23
105433337,0.35589599609375,-0.67950439453125,0.26397705078125,-0.58477783203125,5377,-6106,-414,8,-2,-25
105443321,0.3546142578125,-0.6802978515625,0.2611083984375,-0.58599853515625,5393,-6041,-523,7,-3,-25
