subject,Joshua Spiesman
arm,right
label,3
hz,100.17781562273035
time,5.669918

timestamp_us,q0,q1,q2,q3,ax,ay,az,gx,gy,gz
164299809,0.12103271484375,0.67181396484375,0.2467041015625,-0.6878662109375,-8667,-1131,-554,-12,-3,8
164309801,0.12322998046875,0.67193603515625,0.24664306640625,-0.6873779296875,-8893,-1043,-598,-13,-3,11
164319783,0.12591552734375,0.67218017578125,0.24615478515625,-0.68682861328125,-9111,-912,-647,-13,-4,16
164329766,0.12945556640625,0.67254638671875,0.24493408203125,-0.68621826171875,-9297,-728,-679,-14,-6,25
164339742,0.13409423828125,0.67315673828125,0.24273681640625,-0.68548583984375,-9449,-504,-687,-14,-7,37
164349724,0.13995361328125,0.674072265625,0.239501953125,-0.6845703125,-9599,-231,-649,-16,-8,49
164359707,0.14715576171875,0.6751708984375,0.2352294921875,-0.6834716796875,-9762,41,-595,-17,-8,62
164369692,0.15557861328125,0.6763916015625,0.2301025390625,-0.68212890625,-9954,324,-542,-20,-10,74
164379673,0.1651611328125,0.677734375,0.22412109375,-0.6805419921875,-10130,648,-482,-22,-10,84
164389657,0.1756591796875,0.67919921875,0.217529296875,-0.6785888671875,-10253,1009,-439,-24,-11,92
164399638,0.18701171875,0.6806640625,0.21051025390625,-0.67626953125,-10293,1431,-414,-27,-10,98
164409623,0.19915771484375,0.68218994140625,0.20318603515625,-0.67352294921875,-10231,1875,-361,-30,-9,104
164419604,0.21209716796875,0.68377685546875,0.19549560546875,-0.67022705078125,-10138,2304,-295,-34,-7,111
164429585,0.2257080078125,0.6854248046875,0.18756103515625,-0.6663818359375,-10075,2689,-219,-37,-5,117
164439568,0.239990234375,0.68707275390625,0.179443359375,-0.66192626953125,-10074,3044,-151,-40,-3,123
164449556,0.25469970703125,0.68865966796875,0.171142578125,-0.65692138671875,-10103,3361,-100,-44,0,128
164459536,0.26983642578125,0.6903076171875,0.16278076171875,-0.6512451171875,-10058,3648,-91,-46,3,133
164469516,0.2855224609375,0.6920166015625,0.15423583984375,-0.64483642578125,-9973,3862,-99,-49,5,139
164479498,0.3013916015625,0.6937255859375,0.14544677734375,-0.63775634765625,-9889,3989,-145,-50,8,145
164489483,0.317626953125,0.6954345703125,0.13641357421875,-0.62994384765625,-9849,4078,-200,-51,11,151
164499470,0.33380126953125,0.69720458984375,0.127197265625,-0.62152099609375,-9899,4142,-288,-51,14,155
164509452,0.3497314453125,0.69891357421875,0.1180419921875,-0.61260986328125,-10015,4203,-379,-50,16,156
164519434,0.365234375,0.700439453125,0.10906982421875,-0.6033935546875,-10214,4295,-462,-49,18,154
164529410,0.3800048828125,0.7017822265625,0.10052490234375,-0.59405517578125,-10504,4431,-549,-48,18,150
164539392,0.39410400390625,0.70294189453125,0.09234619140625,-0.58477783203125,-10822,4571,-660,-47,19,146
164549376,0.40765380859375,0.70391845703125,0.0843505859375,-0.57550048828125,-11084,4717,-763,-46,18,144
164559357,0.4208984375,0.70458984375,0.07623291015625,-0.566162109375,-11232,4850,-875,-44,17,146
164569340,0.43426513671875,0.705078125,0.06744384765625,-0.5565185546875,-11246,4950,-970,-43,14,154
164579327,0.44805908203125,0.70526123046875,0.05755615234375,-0.54632568359375,-11147,5055,-1025,-42,12,166
164589306,0.4622802734375,0.70526123046875,0.04644775390625,-0.53546142578125,-10968,5199,-1047,-40,10,177
164599290,0.47674560546875,0.704833984375,0.034423828125,-0.52410888671875,-10729,5362,-1019,-40,9,184
164609275,0.49114990234375,0.70404052734375,0.02197265625,-0.512451171875,-10438,5586,-956,-38,8,186
164619257,0.50506591796875,0.7027587890625,0.0096435546875,-0.5008544921875,-10172,5818,-887,-38,6,182
164629241,0.51824951171875,0.701171875,-0.0020751953125,-0.48956298828125,-9961,6062,-844,-38,6,173
164639228,0.53045654296875,0.6993408203125,-0.0130615234375,-0.4788818359375,-9776,6290,-811,-37,4,164
164649212,0.5418701171875,0.69720458984375,-0.0233154296875,-0.46875,-9569,6475,-754,-36,3,155
164659192,0.5526123046875,0.69482421875,-0.03302001953125,-0.45904541015625,-9290,6611,-695,-36,2,149
164669163,0.56298828125,0.692138671875,-0.0426025390625,-0.4495849609375,-8922,6707,-628,-36,0,146
164679149,0.5733642578125,0.68914794921875,-0.05230712890625,-0.43994140625,-8481,6779,-537,-36,-1,148
164689127,0.5838623046875,0.68572998046875,-0.06243896484375,-0.4300537109375,-8064,6857,-449,-37,-1,152
164699108,0.59442138671875,0.6820068359375,-0.07281494140625,-0.41973876953125,-7685,6922,-365,-38,-2,156
164709089,0.60491943359375,0.67803955078125,-0.0833740234375,-0.40911865234375,-7375,6991,-317,-38,-2,158
164719073,0.61517333984375,0.67376708984375,-0.09375,-0.39849853515625,-7123,7070,-252,-39,-2,157
164729055,0.625,0.6693115234375,-0.1038818359375,-0.38800048828125,-6875,7118,-188,-38,-2,154
164739037,0.63446044921875,0.6646728515625,-0.113525390625,-0.37774658203125,-6636,7185,-131,-38,-2,149
164749026,0.64349365234375,0.6600341796875,-0.122802734375,-0.36761474609375,-6383,7254,-77,-38,-2,145
164759001,0.6522216796875,0.65521240234375,-0.1318359375,-0.3575439453125,-6071,7292,-26,-38,-1,144
164768988,0.660888671875,0.6502685546875,-0.14093017578125,-0.3470458984375,-5700,7259,58,-38,0,147
164778968,0.669677734375,0.64508056640625,-0.15045166015625,-0.3358154296875,-5374,7194,117,-37,2,155
164788950,0.67852783203125,0.63958740234375,-0.16064453125,-0.323486328125,-5025,7063,189,-36,3,165
164798933,0.68743896484375,0.6339111328125,-0.17120361328125,-0.31024169921875,-4744,6999,256,-35,5,171
164808915,0.6959228515625,0.628173828125,-0.181640625,-0.296630859375,-4480,6972,308,-33,7,171
164818897,0.7039794921875,0.62249755859375,-0.1917724609375,-0.2830810546875,-4172,6921,375,-31,8,167
164828879,0.71148681640625,0.61688232421875,-0.2012939453125,-0.2696533203125,-3853,6844,448,-29,10,161
164838861,0.7183837890625,0.6114501953125,-0.2103271484375,-0.25653076171875,-3569,6731,504,-26,12,155
164848846,0.7247314453125,0.606201171875,-0.21881103515625,-0.2435302734375,-3309,6572,546,-24,13,151
164858830,0.7305908203125,0.6011962890625,-0.22711181640625,-0.23046875,-3064,6415,572,-20,14,150
164868807,0.736083984375,0.59619140625,-0.2354736328125,-0.2171630859375,-2828,6253,612,-17,14,151
164878800,0.74114990234375,0.59136962890625,-0.24407958984375,-0.20355224609375,-2594,6120,631,-13,14,152
164888783,0.74560546875,0.58660888671875,-0.25262451171875,-0.18988037109375,-2363,6022,642,-10,13,150
164898757,0.74957275390625,0.5821533203125,-0.26092529296875,-0.17657470703125,-2145,5960,644,-7,12,145
164908739,0.75286865234375,0.5780029296875,-0.26873779296875,-0.163818359375,-1936,5876,642,-4,12,137
164918723,0.75567626953125,0.57415771484375,-0.2762451171875,-0.15155029296875,-1716,5759,646,-1,10,132
164928707,0.758056640625,0.57037353515625,-0.28375244140625,-0.13946533203125,-1477,5651,648,1,9,130
164938686,0.7601318359375,0.56658935546875,-0.29144287109375,-0.12725830078125,-1212,5532,661,2,8,131
164948670,0.761962890625,0.56256103515625,-0.2994384765625,-0.11480712890625,-940,5408,676,3,6,135
164958653,0.7635498046875,0.55828857421875,-0.307861328125,-0.1019287109375,-620,5272,692,4,5,138
164968636,0.7650146484375,0.5537109375,-0.316650390625,-0.08868408203125,-273,5121,730,4,4,141
164978619,0.76617431640625,0.54888916015625,-0.32550048828125,-0.0753173828125,99,4970,768,4,3,141
164988600,0.7672119140625,0.5438232421875,-0.33428955078125,-0.06201171875,465,4805,789,4,3,140
164998583,0.76806640625,0.53851318359375,-0.34307861328125,-0.04876708984375,835,4602,820,3,3,139
165008566,0.76873779296875,0.532958984375,-0.3516845703125,-0.0355224609375,1217,4354,857,2,3,137
165018547,0.769287109375,0.52716064453125,-0.3602294921875,-0.02239990234375,1601,4131,905,1,3,136
165028529,0.769775390625,0.5211181640625,-0.36846923828125,-0.0093994140625,2002,3866,959,0,3,132
165038512,0.77008056640625,0.51495361328125,-0.37646484375,0.00335693359375,2375,3578,1029,-1,4,128
165048492,0.7703857421875,0.5086669921875,-0.38397216796875,0.015625,2749,3260,1097,-2,5,121
165058471,0.7706298828125,0.50250244140625,-0.390869140625,0.0272216796875,3110,2934,1173,-3,6,112
165068461,0.7708740234375,0.49658203125,-0.3970947265625,0.0379638671875,3459,2601,1237,-3,6,101
165078445,0.77105712890625,0.49102783203125,-0.4024658203125,0.04779052734375,3768,2269,1301,-3,7,90
165088426,0.77130126953125,0.48583984375,-0.40716552734375,0.0567626953125,4068,1939,1362,-3,9,80
165098404,0.77154541015625,0.48101806640625,-0.41119384765625,0.06488037109375,4312,1607,1415,-3,9,70
165108385,0.77178955078125,0.47662353515625,-0.41455078125,0.07232666015625,4547,1315,1448,-2,11,60
165118368,0.7720947265625,0.47259521484375,-0.41741943359375,0.0789794921875,4750,1042,1491,-2,11,52
165128347,0.7724609375,0.46893310546875,-0.419677734375,0.08489990234375,4963,808,1553,-2,12,42
165138330,0.77294921875,0.4658203125,-0.4212646484375,0.08978271484375,5132,621,1617,-2,12,30
165148312,0.7735595703125,0.46343994140625,-0.42193603515625,0.09344482421875,5266,515,1680,-1,13,16
165158290,0.77435302734375,0.46185302734375,-0.4217529296875,0.095703125,5339,456,1718,-1,13,0
165168279,0.77532958984375,0.461181640625,-0.42047119140625,0.096435546875,5372,454,1739,-1,14,-16
165178263,0.7764892578125,0.46142578125,-0.41827392578125,0.0955810546875,5355,516,1765,0,13,-32
165188245,0.77777099609375,0.46258544921875,-0.4151611328125,0.0931396484375,5294,652,1774,-1,13,-47
165198224,0.77923583984375,0.46453857421875,-0.41107177734375,0.089111328125,5194,813,1757,0,13,-63
165208215,0.78076171875,0.46728515625,-0.40618896484375,0.08355712890625,5042,1000,1741,-1,12,-77
165218199,0.78228759765625,0.47088623046875,-0.40045166015625,0.07647705078125,4847,1215,1701,0,11,-91
165228172,0.78375244140625,0.47528076171875,-0.39398193359375,0.06787109375,4606,1474,1623,0,9,-105
165238149,0.78497314453125,0.4803466796875,-0.386962890625,0.05780029296875,4372,1758,1536,0,6,-117
165248133,0.78594970703125,0.4859619140625,-0.37939453125,0.04656982421875,4154,2086,1472,1,4,-126
165258117,0.78662109375,0.49188232421875,-0.37158203125,0.0345458984375,3946,2428,1423,1,1,-131
165268100,0.7869873046875,0.49786376953125,-0.3636474609375,0.02215576171875,3730,2767,1370,2,-1,-133
165278076,0.78704833984375,0.50384521484375,-0.355712890625,0.00958251953125,3455,3084,1357,2,-2,-132
165288059,0.78680419921875,0.509765625,-0.34783935546875,-0.00311279296875,3156,3414,1330,3,-4,-131
165298040,0.78619384765625,0.5157470703125,-0.3399658203125,-0.0159912109375,2813,3772,1281,4,-6,-131
165308029,0.78515625,0.5218505859375,-0.33209228515625,-0.02923583984375,2493,4104,1244,5,-9,-133
165318013,0.78369140625,0.52801513671875,-0.3243408203125,-0.04266357421875,2225,4439,1223,6,-12,-132
165327990,0.78179931640625,0.53399658203125,-0.31689453125,-0.05596923828125,2021,4762,1223,8,-14,-129
165337969,0.7796630859375,0.53973388671875,-0.309814453125,-0.0689697265625,1836,5117,1273,8,-16,-125
165347951,0.7772216796875,0.54541015625,-0.3028564453125,-0.081787109375,1608,5478,1275,10,-18,-123
165357936,0.77435302734375,0.55120849609375,-0.2957763671875,-0.09490966796875,1367,5804,1254,11,-19,-126
165367917,0.77105712890625,0.5572509765625,-0.28839111328125,-0.10845947265625,1182,6050,1234,13,-19,-131
165377901,0.76739501953125,0.56329345703125,-0.28076171875,-0.12225341796875,1068,6240,1228,15,-20,-136
165387881,0.76336669921875,0.56939697265625,-0.27288818359375,-0.13616943359375,982,6502,1232,16,-19,-138
165397862,0.75909423828125,0.57537841796875,-0.26483154296875,-0.1500244140625,837,6855,1258,16,-18,-139
165407845,0.7545166015625,0.58148193359375,-0.256103515625,-0.1641845703125,526,7319,1281,16,-16,-143
165417828,0.74945068359375,0.5877685546875,-0.24639892578125,-0.17901611328125,146,7744,1265,17,-14,-152
165427807,0.743896484375,0.59417724609375,-0.23590087890625,-0.1944580078125,-111,7968,1243,17,-13,-161
165437799,0.738037109375,0.6004638671875,-0.22503662109375,-0.2098388671875,-246,8016,1229,18,-11,-162
165447780,0.7320556640625,0.6063232421875,-0.21441650390625,-0.2244873046875,-344,8024,1202,18,-10,-156
165457757,0.72625732421875,0.61163330078125,-0.2044677734375,-0.2379150390625,-530,8108,1186,17,-8,-143
165467737,0.72064208984375,0.61639404296875,-0.19500732421875,-0.250244140625,-816,8356,1164,16,-6,-133
165477719,0.71514892578125,0.620849609375,-0.18560791015625,-0.261962890625,-1119,8649,1148,14,-4,-130
165487703,0.7095947265625,0.62506103515625,-0.17596435546875,-0.27337646484375,-1338,8782,1144,12,-2,-130
165497690,0.70416259765625,0.62896728515625,-0.16619873046875,-0.2843017578125,-1385,8722,1144,11,1,-128
165507670,0.6990966796875,0.6324462890625,-0.15679931640625,-0.2943115234375,-1349,8522,1135,9,4,-121
165517651,0.6944580078125,0.63555908203125,-0.14788818359375,-0.30316162109375,-1420,8366,1131,7,6,-110
165527632,0.690185546875,0.63824462890625,-0.1392822265625,-0.31121826171875,-1728,8396,1113,4,8,-102
165537615,0.68597412109375,0.6407470703125,-0.1302490234375,-0.31927490234375,-2149,8556,1098,2,10,-105
165547598,0.681396484375,0.6431884765625,-0.1201171875,-0.3280029296875,-2579,8667,1081,0,12,-115
165557579,0.67620849609375,0.64569091796875,-0.108642578125,-0.337646484375,-2849,8598,1059,-1,14,-130
165567560,0.6705322265625,0.64813232421875,-0.09619140625,-0.347900390625,-2955,8370,1041,-2,16,-140
165577542,0.6646728515625,0.65032958984375,-0.083251953125,-0.358154296875,-3008,8085,1023,-3,18,-143
165587524,0.65869140625,0.65240478515625,-0.0701904296875,-0.36810302734375,-3196,7852,963,-3,20,-141
165597507,0.6527099609375,0.654296875,-0.05718994140625,-0.37762451171875,-3560,7713,907,-5,20,-137
165607489,0.64654541015625,0.65594482421875,-0.0439453125,-0.38690185546875,-4069,7653,861,-5,21,-136
165617468,0.6400146484375,0.657470703125,-0.0303955078125,-0.3963623046875,-4568,7575,810,-5,21,-140
165627467,0.63287353515625,0.65899658203125,-0.01641845703125,-0.40606689453125,-4922,7372,744,-3,22,-145
165637444,0.6253662109375,0.66033935546875,-0.0023193359375,-0.41571044921875,-5081,7069,699,-2,23,-147
165647431,0.61773681640625,0.66162109375,0.01141357421875,-0.42486572265625,-5149,6710,665,0,23,-142
165657403,0.6103515625,0.6627197265625,0.02435302734375,-0.43316650390625,-5329,6416,645,0,23,-132
165667389,0.6031494140625,0.66375732421875,0.03662109375,-0.44073486328125,-5764,6254,599,1,23,-123
165677372,0.59588623046875,0.6646728515625,0.048583984375,-0.44805908203125,-6325,6209,563,2,22,-121
165687354,0.588134765625,0.66546630859375,0.0606689453125,-0.45556640625,-6794,6136,534,3,21,-124
165697336,0.57989501953125,0.6661376953125,0.0728759765625,-0.4632568359375,-7111,5966,497,5,21,-128
165707319,0.5714111328125,0.6666259765625,0.08489990234375,-0.470947265625,-7225,5691,488,7,19,-128
165717302,0.56304931640625,0.66705322265625,0.0963134765625,-0.478271484375,-7301,5387,481,8,19,-121
165727281,0.5548095703125,0.66729736328125,0.1070556640625,-0.48516845703125,-7551,5161,471,9,18,-116
165737272,0.54638671875,0.66754150390625,0.1175537109375,-0.49188232421875,-7981,5064,444,11,17,-115
165747253,0.537353515625,0.6676025390625,0.12823486328125,-0.49896240234375,-8392,4991,390,13,16,-122
165757240,0.527587890625,0.66754150390625,0.1392822265625,-0.50653076171875,-8680,4837,328,15,14,-129
165767223,0.5172119140625,0.6673583984375,0.15032958984375,-0.5142822265625,-8781,4606,267,18,14,-132
165777208,0.50677490234375,0.66705322265625,0.160888671875,-0.5218505859375,-8724,4343,255,20,13,-127
165787189,0.4967041015625,0.66680908203125,0.17041015625,-0.52880859375,-8597,4053,274,22,12,-118
165797160,0.4871826171875,0.66656494140625,0.17889404296875,-0.5350341796875,-8504,3792,324,23,12,-106
165807140,0.478271484375,0.66644287109375,0.18646240234375,-0.54058837890625,-8507,3562,361,23,11,-97
165817124,0.4696044921875,0.6663818359375,0.1934814453125,-0.5458984375,-8642,3404,375,24,11,-94
165827105,0.46063232421875,0.6661376953125,0.20050048828125,-0.55120849609375,-8824,3283,335,25,10,-98
165837087,0.450927734375,0.66571044921875,0.2080078125,-0.556884765625,-9032,3172,261,27,10,-106
165847072,0.4403076171875,0.6650390625,0.2161865234375,-0.5631103515625,-9263,3033,140,28,9,-117
165857054,0.4288330078125,0.6639404296875,0.22503662109375,-0.5697021484375,-9485,2889,13,29,9,-126
165867039,0.4166259765625,0.66253662109375,0.23431396484375,-0.57659912109375,-9698,2753,-79,30,8,-134
165877026,0.40399169921875,0.6607666015625,0.24383544921875,-0.58367919921875,-9956,2645,-140,31,8,-138
165887001,0.39111328125,0.65875244140625,0.25335693359375,-0.5906982421875,-10209,2547,-161,31,8,-140
165896984,0.37823486328125,0.65655517578125,0.26263427734375,-0.597412109375,-10391,2491,-175,31,8,-139
165906966,0.3656005859375,0.654296875,0.271484375,-0.603759765625,-10507,2418,-180,31,9,-135
165916947,0.35333251953125,0.652099609375,0.27978515625,-0.60955810546875,-10577,2362,-182,30,9,-129
165926931,0.34173583984375,0.6500244140625,0.28741455078125,-0.61480712890625,-10602,2333,-169,29,9,-121
165936912,0.33111572265625,0.64825439453125,0.29400634765625,-0.619384765625,-10608,2365,-137,29,10,-109
165946894,0.32159423828125,0.64678955078125,0.299560546875,-0.623291015625,-10581,2439,-102,27,10,-97
165956877,0.3133544921875,0.645751953125,0.30389404296875,-0.62640380859375,-10516,2529,-85,26,10,-82
165966860,0.30645751953125,0.64520263671875,0.30706787109375,-0.62884521484375,-10456,2619,-55,25,10,-66
165976840,0.30096435546875,0.6451416015625,0.3089599609375,-0.630615234375,-10405,2729,-19,23,9,-51
165986822,0.2967529296875,0.64556884765625,0.30975341796875,-0.63177490234375,-10361,2885,21,22,10,-37
165996801,0.29388427734375,0.64642333984375,0.3095703125,-0.63238525390625,-10292,3107,68,19,9,-25
166006793,0.2921142578125,0.6475830078125,0.30853271484375,-0.63250732421875,-10163,3338,150,17,9,-14
166016775,0.29150390625,0.64910888671875,0.306640625,-0.63214111328125,-10036,3583,242,15,9,-3
166026749,0.2919921875,0.65087890625,0.3040771484375,-0.63140869140625,-9902,3809,359,12,9,7
166036729,0.29327392578125,0.65277099609375,0.30108642578125,-0.6302490234375,-9791,4014,482,10,9,14
166046712,0.29522705078125,0.6546630859375,0.2978515625,-0.62890625,-9751,4204,588,7,9,18
166056693,0.2974853515625,0.6566162109375,0.29461669921875,-0.6273193359375,-9765,4340,667,5,9,19
166066675,0.2998046875,0.65838623046875,0.29156494140625,-0.625732421875,-9846,4477,707,3,9,18
166076659,0.30218505859375,0.66015625,0.28875732421875,-0.62408447265625,-9953,4592,682,2,9,18
166086641,0.3048095703125,0.661865234375,0.285888671875,-0.62225341796875,-10044,4681,659,1,9,20
166096619,0.30792236328125,0.663818359375,0.2825927734375,-0.62017822265625,-10120,4753,630,0,9,28
166106603,0.31195068359375,0.666015625,0.278564453125,-0.61761474609375,-10171,4769,631,-1,9,41
166116583,0.31719970703125,0.66851806640625,0.27337646484375,-0.61456298828125,-10212,4759,673,-3,8,57
166130030,0.32373046875,0.67144775390625,0.2669677734375,-0.61077880859375,-10257,4743,699,-4,8,73
166136549,0.33154296875,0.6746826171875,0.2593994140625,-0.6063232421875,-10295,4766,717,-6,7,89
166146531,0.34033203125,0.6781005859375,0.2506103515625,-0.6011962890625,-10297,4812,673,-6,7,103
166156513,0.349853515625,0.681640625,0.24114990234375,-0.5955810546875,-10309,4862,613,-7,6,112
166166497,0.35968017578125,0.6851806640625,0.23114013671875,-0.58966064453125,-10354,4922,550,-7,5,117
166176483,0.3695068359375,0.6884765625,0.22113037109375,-0.58355712890625,-10415,4947,469,-8,4,118
166186468,0.3790283203125,0.69134521484375,0.21136474609375,-0.57757568359375,-10484,4952,415,-8,3,115
166196450,0.38812255859375,0.6939697265625,0.20196533203125,-0.57183837890625,-10557,4957,350,-9,2,111
166206430,0.3968505859375,0.6961669921875,0.19287109375,-0.5662841796875,-10654,4990,271,-8,0,108
166216408,0.4052734375,0.69805908203125,0.18389892578125,-0.5609130859375,-10797,5052,194,-8,-2,106
166226386,0.41363525390625,0.69970703125,0.1748046875,-0.5556640625,-10934,5120,90,-8,-5,107
166236370,0.4222412109375,0.70111083984375,0.16522216796875,-0.55023193359375,-11030,5186,17,-9,-7,114
166246351,0.43133544921875,0.70245361328125,0.1549072265625,-0.54449462890625,-11091,5239,-59,-9,-10,124
166256334,0.44110107421875,0.70355224609375,0.14361572265625,-0.538330078125,-11098,5286,-119,-10,-12,135
166266316,0.45135498046875,0.7044677734375,0.1314697265625,-0.5316162109375,-11084,5360,-169,-11,-14,144
166276298,0.4619140625,0.7052001953125,0.1187744140625,-0.52459716796875,-11060,5445,-217,-11,-15,149
166286279,0.472412109375,0.70556640625,0.10595703125,-0.51739501953125,-11031,5560,-266,-12,-16,150
166296270,0.48248291015625,0.70574951171875,0.0933837890625,-0.51025390625,-10930,5698,-304,-11,-17,147
166306251,0.49224853515625,0.70562744140625,0.0811767578125,-0.50311279296875,-10757,5827,-324,-12,-16,143
166316231,0.50164794921875,0.70538330078125,0.0692138671875,-0.4959716796875,-10525,5964,-314,-12,-15,142
166326223,0.51104736328125,0.70489501953125,0.0572509765625,-0.48846435546875,-10255,6100,-287,-13,-14,144
166336208,0.5206298828125,0.70428466796875,0.045166015625,-0.48046875,-10005,6255,-261,-14,-12,148
166346188,0.53045654296875,0.7034912109375,0.03265380859375,-0.4718017578125,-9731,6400,-243,-16,-11,155
166356158,0.5406494140625,0.7025146484375,0.0196533203125,-0.46234130859375,-9470,6529,-271,-17,-10,164
166366140,0.5511474609375,0.7012939453125,0.00616455078125,-0.45208740234375,-9197,6666,-295,-19,-9,170
166376122,0.5616455078125,0.69970703125,-0.00738525390625,-0.44140625,-8962,6827,-300,-20,-8,172
166386106,0.57171630859375,0.69793701171875,-0.02044677734375,-0.4307861328125,-8751,7017,-345,-21,-7,167
166396086,0.5811767578125,0.6959228515625,-0.0325927734375,-0.4205322265625,-8543,7206,-371,-22,-6,158
166406068,0.59002685546875,0.69366455078125,-0.04376220703125,-0.4107666015625,-8330,7329,-412,-23,-5,149
166416050,0.5986328125,0.69122314453125,-0.0545654296875,-0.4010009765625,-8069,7420,-442,-25,-5,148
166426033,0.60736083984375,0.68841552734375,-0.06549072265625,-0.3909912109375,-7744,7465,-453,-27,-5,152
166436020,0.61639404296875,0.68511962890625,-0.07696533203125,-0.38031005859375,-7377,7456,-472,-29,-5,161
166445998,0.6258544921875,0.681396484375,-0.08917236328125,-0.36883544921875,-7023,7441,-476,-31,-6,170
166455981,0.63543701171875,0.6771240234375,-0.1016845703125,-0.35687255859375,-6670,7430,-437,-33,-6,175
166465961,0.64501953125,0.67230224609375,-0.1141357421875,-0.3447265625,-6381,7399,-411,-35,-6,174
166475945,0.65423583984375,0.667236328125,-0.12615966796875,-0.332763671875,-6092,7358,-408,-37,-6,171
166485927,0.66314697265625,0.66192626953125,-0.13787841796875,-0.32098388671875,-5726,7265,-378,-38,-7,167
166495912,0.671875,0.65618896484375,-0.14947509765625,-0.3092041015625,-5283,7131,-338,-38,-7,167
166505893,0.6805419921875,0.6500244140625,-0.16119384765625,-0.297119140625,-4779,6968,-282,-40,-7,168
166515875,0.68914794921875,0.6434326171875,-0.17291259765625,-0.2847900390625,-4315,6806,-225,-41,-6,169
166525858,0.697509765625,0.63653564453125,-0.18426513671875,-0.27252197265625,-3980,6713,-186,-43,-5,166
166535840,0.705322265625,0.629638671875,-0.1947021484375,-0.260986328125,-3690,6639,-139,-44,-5,155
166545822,0.71258544921875,0.62286376953125,-0.2039794921875,-0.25030517578125,-3415,6532,-101,-44,-4,142
166555803,0.71929931640625,0.6160888671875,-0.21240234375,-0.240478515625,-3144,6403,-59,-44,-3,133
166565795,0.725830078125,0.60931396484375,-0.220458984375,-0.2308349609375,-2861,6263,-19,-44,-3,131
166575776,0.73223876953125,0.60223388671875,-0.228759765625,-0.22076416015625,-2583,6121,10,-44,-3,136
166585752,0.73870849609375,0.59478759765625,-0.2374267578125,-0.2100830078125,-2361,6022,40,-45,-2,142
166595735,0.74493408203125,0.587158203125,-0.24627685546875,-0.198974609375,-2195,5964,59,-44,-2,146
166605718,0.7509765625,0.579345703125,-0.255126953125,-0.18768310546875,-2008,5912,88,-44,-2,146
166615699,0.75665283203125,0.571533203125,-0.26385498046875,-0.176513671875,-1784,5827,110,-43,-3,143
166625681,0.761962890625,0.563720703125,-0.2723388671875,-0.16571044921875,-1562,5766,137,-41,-3,138
166635670,0.766845703125,0.5560302734375,-0.2803955078125,-0.1553955078125,-1302,5702,187,-41,-4,131
166645647,0.7713623046875,0.54833984375,-0.28814697265625,-0.14556884765625,-987,5643,265,-40,-4,126
166655629,0.775634765625,0.540771484375,-0.2955322265625,-0.13616943359375,-691,5586,331,-39,-4,120
166665611,0.77960205078125,0.53338623046875,-0.302490234375,-0.127197265625,-426,5575,429,-39,-4,114
166675593,0.78326416015625,0.5262451171875,-0.308837890625,-0.118896484375,-214,5607,538,-37,-4,106
166685577,0.78662109375,0.51953125,-0.31451416015625,-0.1114501953125,-33,5590,629,-36,-4,97
166695556,0.7896728515625,0.51300048828125,-0.31988525390625,-0.10430908203125,156,5480,707,-34,-4,94
166705539,0.79254150390625,0.50628662109375,-0.32562255859375,-0.09698486328125,374,5306,794,-33,-6,97
166715523,0.79534912109375,0.49932861328125,-0.3319091796875,-0.08880615234375,663,5052,884,-32,-6,105
166725505,0.7979736328125,0.49188232421875,-0.3388671875,-0.0797119140625,992,4778,1000,-30,-7,114
166735487,0.80047607421875,0.4840087890625,-0.34649658203125,-0.0697021484375,1352,4483,1106,-29,-9,121
166745466,0.80279541015625,0.4757080078125,-0.35443115234375,-0.05902099609375,1735,4159,1226,-28,-9,125
166755457,0.804931640625,0.46728515625,-0.36248779296875,-0.0482177734375,2133,3842,1344,-27,-9,125
166765440,0.8067626953125,0.45892333984375,-0.3702392578125,-0.03759765625,2494,3523,1465,-26,-9,119
166775416,0.80828857421875,0.45098876953125,-0.37750244140625,-0.027587890625,2825,3194,1576,-23,-8,111
166785397,0.80950927734375,0.4434814453125,-0.38421630859375,-0.01824951171875,3119,2870,1660,-21,-9,101
166795385,0.8104248046875,0.4365234375,-0.3905029296875,-0.00958251953125,3410,2546,1713,-18,-8,93
166805363,0.81109619140625,0.42999267578125,-0.396484375,-0.0013427734375,3709,2225,1764,-15,-8,86
166815344,0.8115234375,0.423828125,-0.40216064453125,0.006591796875,4011,1909,1844,-13,-8,82
166825327,0.811767578125,0.4178466796875,-0.40771484375,0.0145263671875,4328,1587,1940,-10,-8,80
166835309,0.81182861328125,0.41204833984375,-0.4130859375,0.0223388671875,4631,1298,2048,-8,-8,76
166845291,0.81170654296875,0.40667724609375,-0.4180908203125,0.030029296875,4915,1034,2154,-5,-6,71
166855279,0.8115234375,0.40167236328125,-0.42266845703125,0.03741455078125,5179,768,2239,-2,-6,66
166865262,0.8111572265625,0.39715576171875,-0.42694091796875,0.0445556640625,5439,521,2310,1,-4,60
166875242,0.81072998046875,0.39312744140625,-0.43072509765625,0.05145263671875,5664,285,2374,4,-2,56
166885222,0.8101806640625,0.38958740234375,-0.43408203125,0.05816650390625,5887,69,2438,7,-1,50
166895217,0.80963134765625,0.38653564453125,-0.4368896484375,0.0645751953125,6063,-105,2501,10,2,44
166905196,0.80908203125,0.3841552734375,-0.4390869140625,0.0703125,6200,-227,2574,13,3,34
166915165,0.80865478515625,0.3826904296875,-0.44036865234375,0.07501220703125,6281,-306,2624,15,5,21
166925148,0.808349609375,0.38226318359375,-0.44073486328125,0.078369140625,6309,-355,2638,16,7,5
166935128,0.8082275390625,0.38299560546875,-0.44000244140625,0.08001708984375,6263,-358,2634,18,9,-14
166945109,0.80828857421875,0.385009765625,-0.43817138671875,0.07989501953125,6182,-311,2604,20,10,-33
166955093,0.8084716796875,0.38824462890625,-0.435302734375,0.0780029296875,6072,-219,2569,21,11,-52
166965075,0.808837890625,0.39263916015625,-0.43133544921875,0.07421875,5919,-79,2536,23,12,-71
166975057,0.80926513671875,0.398193359375,-0.4263916015625,0.0687255859375,5743,117,2478,23,12,-88
166985038,0.80963134765625,0.40478515625,-0.42047119140625,0.0615234375,5523,350,2404,25,13,-104
166995027,0.8099365234375,0.41229248046875,-0.41375732421875,0.05279541015625,5254,628,2307,25,12,-118
167005010,0.81005859375,0.42047119140625,-0.4063720703125,0.0428466796875,4971,943,2191,26,12,-128
167014988,0.8099365234375,0.42913818359375,-0.3984375,0.0321044921875,4672,1333,2072,27,12,-134
167024970,0.80950927734375,0.4381103515625,-0.39019775390625,0.0208740234375,4346,1790,1996,27,11,-137
167034952,0.80889892578125,0.4471435546875,-0.381591796875,0.00927734375,4014,2239,1937,28,10,-138
167044936,0.80792236328125,0.45623779296875,-0.3729248046875,-0.00250244140625,3675,2638,1842,28,9,-138
167054918,0.80657958984375,0.4652099609375,-0.3643798828125,-0.0142822265625,3299,2992,1738,28,7,-136
167064900,0.80487060546875,0.47412109375,-0.35589599609375,-0.02618408203125,2927,3337,1631,28,5,-136
167074882,0.80279541015625,0.48297119140625,-0.34747314453125,-0.038330078125,2556,3743,1531,27,2,-135
167084864,0.80029296875,0.4918212890625,-0.33905029296875,-0.05078125,2221,4207,1451,28,0,-137
167094847,0.79742431640625,0.500732421875,-0.33050537109375,-0.0638427734375,1867,4738,1417,27,-3,-141
167104827,0.79412841796875,0.50982666015625,-0.32147216796875,-0.07763671875,1483,5303,1382,28,-4,-146
167114806,0.79034423828125,0.5191650390625,-0.31170654296875,-0.0924072265625,1144,5817,1331,28,-5,-156
167124798,0.78607177734375,0.52862548828125,-0.301513671875,-0.10797119140625,897,6211,1292,28,-6,-164
167134782,0.7813720703125,0.5379638671875,-0.291015625,-0.12396240234375,705,6553,1271,28,-7,-168
167144759,0.7762451171875,0.54693603515625,-0.2803955078125,-0.139892578125,486,6906,1239,28,-7,-166
167154740,0.7708740234375,0.5555419921875,-0.26995849609375,-0.155517578125,215,7367,1213,26,-8,-162
167164723,0.76519775390625,0.5638427734375,-0.25933837890625,-0.1708984375,-91,7828,1178,26,-7,-160
167174704,0.75933837890625,0.57171630859375,-0.248779296875,-0.18597412109375,-313,8171,1184,25,-7,-158
167184686,0.75341796875,0.57904052734375,-0.23858642578125,-0.20025634765625,-433,8320,1166,25,-6,-151
167194670,0.74761962890625,0.585693359375,-0.22918701171875,-0.2132568359375,-431,8347,1128,24,-5,-139
167204650,0.7421875,0.591552734375,-0.22064208984375,-0.2247314453125,-443,8382,1123,22,-4,-125
167214633,0.737060546875,0.59674072265625,-0.21270751953125,-0.2352294921875,-637,8565,1129,19,-3,-115
167224616,0.73199462890625,0.6016845703125,-0.204345703125,-0.24566650390625,-967,8846,1112,16,-2,-118
167234603,0.7265625,0.60662841796875,-0.1949462890625,-0.2569580078125,-1260,9045,1120,15,0,-130
167244581,0.720703125,0.611572265625,-0.18426513671875,-0.269287109375,-1466,9047,1136,14,2,-144
167254563,0.71441650390625,0.616455078125,-0.17279052734375,-0.28216552734375,-1561,8871,1157,13,3,-153
167264546,0.7080078125,0.62109375,-0.16094970703125,-0.29510498046875,-1611,8620,1168,12,5,-154
167274527,0.7015380859375,0.625244140625,-0.149169921875,-0.30755615234375,-1772,8418,1169,11,5,-150
167284510,0.69512939453125,0.62908935546875,-0.1375732421875,-0.3194580078125,-2103,8360,1181,10,7,-144
167294493,0.6885986328125,0.6326904296875,-0.12579345703125,-0.33111572265625,-2596,8390,1179,8,7,-143
167304472,0.6817626953125,0.6361083984375,-0.11358642578125,-0.34295654296875,-3126,8409,1159,8,8,-146
167314463,0.6744384765625,0.639404296875,-0.10089111328125,-0.35504150390625,-3554,8354,1129,7,8,-151
167324445,0.66680908203125,0.64251708984375,-0.0880126953125,-0.36712646484375,-3824,8162,1101,8,9,-153
167334427,0.6590576171875,0.6453857421875,-0.075439453125,-0.37872314453125,-3941,7919,1080,9,9,-150
167344404,0.65142822265625,0.64794921875,-0.06353759765625,-0.38946533203125,-4036,7676,1046,10,10,-140
167354385,0.6441650390625,0.65032958984375,-0.05242919921875,-0.399169921875,-4274,7493,1019,9,10,-129
167364367,0.6370849609375,0.6524658203125,-0.04180908203125,-0.40814208984375,-4638,7422,992,9,11,-122
167374349,0.62994384765625,0.654541015625,-0.03131103515625,-0.4168701171875,-5054,7388,959,10,11,-122
167384332,0.622314453125,0.656494140625,-0.02044677734375,-0.42572021484375,-5361,7308,925,10,11,-126
167394314,0.61444091796875,0.6583251953125,-0.0093994140625,-0.43475341796875,-5493,7112,891,10,11,-129
167404296,0.60650634765625,0.659912109375,0.00140380859375,-0.44342041015625,-5443,6837,872,11,12,-127
167414277,0.59881591796875,0.66143798828125,0.01171875,-0.45135498046875,-5438,6538,859,11,13,-119
167424267,0.59136962890625,0.66278076171875,0.021728515625,-0.45880126953125,-5608,6325,837,10,13,-115
167434249,0.58355712890625,0.66412353515625,0.031982421875,-0.4661865234375,-5896,6191,810,11,15,-118
167444228,0.57501220703125,0.66546630859375,0.04296875,-0.47393798828125,-6194,6029,748,12,16,-127
167454220,0.56561279296875,0.66680908203125,0.0546875,-0.48211669921875,-6400,5821,677,14,18,-136
167464208,0.5557861328125,0.6680908203125,0.06658935546875,-0.490234375,-6461,5581,613,15,19,-138
167474179,0.5458984375,0.66925048828125,0.07818603515625,-0.49786376953125,-6520,5337,559,16,20,-133
167484155,0.5362548828125,0.67047119140625,0.0892333984375,-0.5048828125,-6717,5155,500,17,20,-126
167494137,0.52667236328125,0.67156982421875,0.099853515625,-0.51141357421875,-6981,5035,448,17,20,-121
167504118,0.51715087890625,0.67266845703125,0.1102294921875,-0.517578125,-7262,4916,408,18,22,-119
167514102,0.50750732421875,0.67364501953125,0.1204833984375,-0.52349853515625,-7525,4790,351,18,22,-118
167524087,0.497802734375,0.674560546875,0.13055419921875,-0.52923583984375,-7671,4608,309,19,22,-116
167534069,0.4881591796875,0.67535400390625,0.14019775390625,-0.53466796875,-7749,4406,263,20,22,-113
167544050,0.47882080078125,0.67608642578125,0.1492919921875,-0.53973388671875,-7834,4205,205,20,21,-108
167554034,0.46954345703125,0.6767578125,0.1580810546875,-0.5445556640625,-7988,4017,159,20,20,-105
167564020,0.460205078125,0.67718505859375,0.16680908203125,-0.54931640625,-8268,3856,127,20,20,-106
167573996,0.450439453125,0.67742919921875,0.17584228515625,-0.5543212890625,-8645,3713,50,21,19,-111
167583980,0.43994140625,0.6773681640625,0.18536376953125,-0.5596923828125,-8973,3565,-36,22,18,-120
167593962,0.4287109375,0.6768798828125,0.1953125,-0.5655517578125,-9243,3400,-130,23,16,-127
167603944,0.41705322265625,0.6761474609375,0.20538330078125,-0.571533203125,-9485,3206,-202,24,15,-130
167613925,0.4052734375,0.6751708984375,0.21527099609375,-0.5775146484375,-9714,3022,-276,25,13,-129
167623912,0.3936767578125,0.6739501953125,0.22467041015625,-0.58331298828125,-9950,2855,-343,25,11,-126
167633890,0.3822021484375,0.67266845703125,0.23358154296875,-0.58892822265625,-10179,2731,-378,26,10,-122
167643872,0.3709716796875,0.67120361328125,0.241943359375,-0.5943603515625,-10394,2636,-397,27,9,-120
167653855,0.35992431640625,0.66961669921875,0.2498779296875,-0.599609375,-10561,2585,-403,28,8,-118
167663838,0.34906005859375,0.66796875,0.2574462890625,-0.60467529296875,-10650,2543,-396,28,7,-115
167673820,0.33843994140625,0.666259765625,0.2645263671875,-0.60955810546875,-10692,2501,-361,28,6,-112
167683808,0.328369140625,0.66448974609375,0.27099609375,-0.6141357421875,-10688,2447,-287,27,6,-105
167693790,0.3189697265625,0.66278076171875,0.27679443359375,-0.61834716796875,-10656,2375,-235,26,5,-97
167703772,0.31048583984375,0.6612548828125,0.28173828125,-0.6220703125,-10612,2320,-188,25,5,-87
167713748,0.30291748046875,0.659912109375,0.285888671875,-0.62530517578125,-10569,2338,-136,24,5,-77
167723730,0.296142578125,0.6588134765625,0.28936767578125,-0.6280517578125,-10569,2375,-106,22,4,-70
167733713,0.2899169921875,0.6578369140625,0.29241943359375,-0.63055419921875,-10590,2476,-104,21,5,-66
167743695,0.2840576171875,0.65692138671875,0.2952880859375,-0.6328125,-10552,2623,-110,20,4,-65
167753676,0.278564453125,0.65606689453125,0.2979736328125,-0.63494873046875,-10435,2754,-104,19,5,-62
167763660,0.2738037109375,0.65533447265625,0.3001708984375,-0.63671875,-10249,2852,-70,17,4,-54
167773644,0.27001953125,0.65496826171875,0.301513671875,-0.6380615234375,-10012,2930,-19,15,4,-41
167783624,0.2677001953125,0.65509033203125,0.30169677734375,-0.63885498046875,-9802,3004,62,14,4,-25
167793606,0.26678466796875,0.6556396484375,0.30078125,-0.63909912109375,-9678,3109,148,11,4,-10
167803583,0.26690673828125,0.6566162109375,0.299072265625,-0.63885498046875,-9662,3258,208,9,5,-1
167813570,0.26763916015625,0.65765380859375,0.297119140625,-0.63836669921875,-9661,3456,229,7,4,2
167823549,0.26849365234375,0.65863037109375,0.2952880859375,-0.63787841796875,-9645,3646,243,6,4,0
167833532,0.2694091796875,0.65948486328125,0.293701171875,-0.63739013671875,-9617,3837,236,4,3,-2
167843515,0.2705078125,0.66021728515625,0.2921142578125,-0.6368408203125,-9578,3999,245,3,3,-1
167853498,0.27203369140625,0.6611328125,0.29010009765625,-0.63616943359375,-9579,4104,248,2,2,6
167863483,0.2745361328125,0.6622314453125,0.287353515625,-0.63519287109375,-9607,4165,289,1,1,19
167873465,0.2783203125,0.663818359375,0.283447265625,-0.6336669921875,-9680,4210,328,0,1,35
167883450,0.283447265625,0.66583251953125,0.2783203125,-0.63153076171875,-9754,4264,353,-2,2,51
167893430,0.2896728515625,0.66827392578125,0.272216796875,-0.6287841796875,-9866,4330,345,-3,2,64
167903405,0.29669189453125,0.67095947265625,0.26544189453125,-0.62554931640625,-9966,4414,306,-4,2,72
167913388,0.3040771484375,0.67376708984375,0.25830078125,-0.62188720703125,-10057,4513,237,-5,2,77
167923369,0.31170654296875,0.67657470703125,0.25103759765625,-0.61810302734375,-10134,4603,164,-6,2,80
167933351,0.31939697265625,0.6793212890625,0.24365234375,-0.61407470703125,-10185,4671,105,-7,2,83
167943334,0.32745361328125,0.6820068359375,0.2359619140625,-0.60980224609375,-10191,4718,80,-7,2,88
167953319,0.3360595703125,0.68475341796875,0.227783203125,-0.60516357421875,-10210,4768,66,-9,3,96
167963301,0.34515380859375,0.6876220703125,0.2191162109375,-0.60003662109375,-10294,4832,73,-10,4,104
167973279,0.35467529296875,0.6904296875,0.2100830078125,-0.59442138671875,-10414,4893,70,-11,5,110
167983271,0.3643798828125,0.69317626953125,0.200927734375,-0.5885009765625,-10563,4946,50,-13,5,113
167993254,0.37408447265625,0.69580078125,0.19183349609375,-0.58233642578125,-10703,4992,-3,-14,5,114
168003240,0.38385009765625,0.6982421875,0.18267822265625,-0.57598876953125,-10823,5051,-96,-14,5,116
168013225,0.39373779296875,0.70050048828125,0.17333984375,-0.5693359375,-10921,5111,-179,-15,4,121
168023208,0.4039306640625,0.70269775390625,0.16351318359375,-0.5623779296875,-11042,5145,-261,-16,3,129
168033189,0.41473388671875,0.7047119140625,0.1529541015625,-0.55487060546875,-11145,5189,-312,-17,3,139
168043159,0.4261474609375,0.70660400390625,0.14154052734375,-0.54681396484375,-11228,5264,-338,-18,2,150
168053139,0.43804931640625,0.708251953125,0.12945556640625,-0.5382080078125,-11294,5356,-373,-20,1,158
168063121,0.4501953125,0.70965576171875,0.11700439453125,-0.5291748046875,-11324,5459,-419,-21,0,163
168073104,0.46234130859375,0.71063232421875,0.10443115234375,-0.5198974609375,-11289,5551,-460,-22,-1,165
168083085,0.47418212890625,0.71124267578125,0.092041015625,-0.5106201171875,-11225,5644,-507,-24,-2,162
168093067,0.48565673828125,0.71142578125,0.08013916015625,-0.50146484375,-11037,5734,-533,-25,-2,158
168103048,0.496826171875,0.7113037109375,0.068603515625,-0.492431640625,-10800,5793,-560,-26,-3,155
168113030,0.50775146484375,0.71087646484375,0.0572509765625,-0.48321533203125,-10542,5854,-584,-27,-2,155
168123018,0.51873779296875,0.71014404296875,0.04583740234375,-0.47381591796875,-10308,5936,-602,-28,-2,157
168132995,0.52960205078125,0.70904541015625,0.03448486328125,-0.4642333984375,-10143,6030,-614,-29,-3,158
168142977,0.540283203125,0.70770263671875,0.0233154296875,-0.45458984375,-10038,6170,-633,-30,-3,157
168152960,0.55072021484375,0.7060546875,0.0123291015625,-0.44500732421875,-9888,6292,-632,-31,-4,155
168162945,0.56097412109375,0.70404052734375,0.00140380859375,-0.43536376953125,-9644,6375,-623,-32,-4,156
168172924,0.571533203125,0.70166015625,-0.010009765625,-0.42523193359375,-9246,6414,-575,-34,-5,162
168182912,0.5823974609375,0.698974609375,-0.02203369140625,-0.41436767578125,-8788,6422,-537,-35,-4,171
168192890,0.5936279296875,0.6959228515625,-0.0347900390625,-0.402587890625,-8299,6442,-487,-36,-3,179
168202876,0.60498046875,0.69244384765625,-0.04779052734375,-0.39019775390625,-7829,6473,-440,-38,-3,183
168212858,0.61602783203125,0.68853759765625,-0.060546875,-0.377685546875,-7435,6552,-410,-39,-2,180
168222840,0.6265869140625,0.6844482421875,-0.072509765625,-0.36553955078125,-7082,6660,-385,-40,-1,171
168232821,0.63641357421875,0.68011474609375,-0.08355712890625,-0.35400390625,-6725,6719,-349,-41,-1,161
168242808,0.64569091796875,0.67572021484375,-0.0936279296875,-0.34307861328125,-6366,6732,-301,-41,0,151
168252794,0.654541015625,0.67108154296875,-0.10321044921875,-0.33245849609375,-6006,6730,-250,-42,0,147
168262775,0.6632080078125,0.66619873046875,-0.112548828125,-0.3218994140625,-5619,6696,-170,-42,0,145
168272753,0.6717529296875,0.6611328125,-0.1219482421875,-0.31097412109375,-5236,6613,-127,-42,1,149
168282733,0.680419921875,0.65570068359375,-0.1319580078125,-0.2994384765625,-4872,6530,-73,-43,0,156
168292718,0.68902587890625,0.64990234375,-0.14227294921875,-0.287353515625,-4577,6478,-22,-43,0,160
168302700,0.69744873046875,0.643798828125,-0.1527099609375,-0.27508544921875,-4343,6476,35,-43,0,161
168312682,0.70538330078125,0.63763427734375,-0.1627197265625,-0.26324462890625,-4152,6508,71,-43,-1,155
168322662,0.712646484375,0.63153076171875,-0.1719970703125,-0.25225830078125,-3974,6561,118,-41,-2,144
168332645,0.71923828125,0.6256103515625,-0.180419921875,-0.2421875,-3726,6570,183,-40,-3,132
168342627,0.7254638671875,0.61968994140625,-0.1884765625,-0.23272705078125,-3360,6473,251,-39,-4,127
168352610,0.73150634765625,0.61346435546875,-0.19683837890625,-0.2230224609375,-2917,6300,346,-39,-5,130
168362592,0.73760986328125,0.60693359375,-0.205810546875,-0.2125244140625,-2474,6113,427,-38,-5,138
168372577,0.74371337890625,0.5999755859375,-0.215576171875,-0.20111083984375,-2039,5917,522,-38,-5,147
168382555,0.7496337890625,0.5926513671875,-0.225830078125,-0.18902587890625,-1637,5722,592,-37,-6,152
168392539,0.75531005859375,0.58526611328125,-0.2359619140625,-0.17681884765625,-1276,5595,678,-35,-5,149
168402522,0.7603759765625,0.57818603515625,-0.24542236328125,-0.16522216796875,-960,5486,752,-33,-5,139
168412503,0.76483154296875,0.57147216796875,-0.25390625,-0.15472412109375,-674,5389,834,-31,-4,125
168422485,0.76873779296875,0.56524658203125,-0.2613525390625,-0.1453857421875,-411,5284,928,-29,-4,111
168432464,0.772216796875,0.55950927734375,-0.2679443359375,-0.136962890625,-222,5228,1008,-27,-4,101
168442456,0.77532958984375,0.55413818359375,-0.27392578125,-0.12939453125,-97,5208,1061,-25,-4,93
168452438,0.77801513671875,0.549072265625,-0.2796630859375,-0.122314453125,3,5225,1092,-23,-5,89
168462415,0.7803955078125,0.54425048828125,-0.28533935546875,-0.115478515625,92,5270,1110,-21,-7,88
168472396,0.782470703125,0.53955078125,-0.291259765625,-0.108642578125,224,5299,1141,-19,-9,88
168482379,0.7843017578125,0.53485107421875,-0.29736328125,-0.1015625,399,5305,1178,-16,-10,90
168492362,0.78594970703125,0.5301513671875,-0.3038330078125,-0.09417724609375,603,5313,1243,-14,-11,93
168502344,0.78741455078125,0.525390625,-0.310546875,-0.08648681640625,812,5344,1307,-13,-12,96
168512327,0.7886962890625,0.5205078125,-0.31756591796875,-0.07843017578125,1025,5412,1366,-12,-12,100
168522308,0.789794921875,0.5155029296875,-0.3248291015625,-0.07012939453125,1220,5491,1380,-11,-13,103
168532290,0.79071044921875,0.5103759765625,-0.33233642578125,-0.06146240234375,1448,5514,1417,-11,-14,106
168542278,0.79156494140625,0.5050048828125,-0.34002685546875,-0.05242919921875,1730,5493,1462,-11,-14,109
168552260,0.792236328125,0.49932861328125,-0.3480224609375,-0.0430908203125,2035,5401,1509,-11,-15,111
168562243,0.792724609375,0.49346923828125,-0.35614013671875,-0.03350830078125,2383,5264,1558,-10,-15,112
168572222,0.79315185546875,0.48736572265625,-0.3643798828125,-0.0238037109375,2766,5073,1600,-11,-15,112
168582214,0.79339599609375,0.48114013671875,-0.37249755859375,-0.0140380859375,3177,4850,1621,-11,-14,112
168592194,0.7935791015625,0.474609375,-0.38067626953125,-0.00408935546875,3624,4546,1630,-12,-14,112
168602165,0.79364013671875,0.46771240234375,-0.388916015625,0.0062255859375,4056,4173,1650,-12,-12,114
168612148,0.79376220703125,0.46044921875,-0.39703369140625,0.0169677734375,4505,3748,1683,-12,-10,116
168622131,0.7938232421875,0.45281982421875,-0.40496826171875,0.0279541015625,4911,3267,1732,-13,-7,115
168632113,0.79388427734375,0.44500732421875,-0.4124755859375,0.03900146484375,5296,2760,1807,-13,-4,112
168642095,0.79400634765625,0.4371337890625,-0.41937255859375,0.0499267578125,5668,2256,1899,-13,-1,107
168652085,0.794189453125,0.42950439453125,-0.42547607421875,0.06036376953125,5964,1759,1992,-12,3,98
168662060,0.79449462890625,0.4224853515625,-0.43048095703125,0.06988525390625,6164,1308,2085,-11,6,85
168672043,0.794921875,0.41619873046875,-0.434326171875,0.0782470703125,6308,895,2189,-10,10,69
168682030,0.79559326171875,0.410888671875,-0.4368896484375,0.085205078125,6394,554,2276,-8,13,52
168692012,0.79656982421875,0.4066162109375,-0.4381103515625,0.090576171875,6413,301,2375,-6,16,32
168701988,0.7977294921875,0.40350341796875,-0.43804931640625,0.09417724609375,6369,156,2446,-5,18,13
168711971,0.79913330078125,0.40167236328125,-0.436767578125,0.09600830078125,6257,66,2479,-3,20,-6
168721948,0.80078125,0.40093994140625,-0.43438720703125,0.0960693359375,6099,27,2496,-3,21,-24
168731928,0.80255126953125,0.40118408203125,-0.43121337890625,0.09466552734375,5915,50,2489,-1,21,-38
168741916,0.80438232421875,0.40234375,-0.42730712890625,0.09185791015625,5701,125,2467,0,20,-51
168751895,0.8062744140625,0.404296875,-0.42279052734375,0.08782958984375,5449,243,2429,1,20,-63
168761877,0.80804443359375,0.40692138671875,-0.41778564453125,0.0826416015625,5176,412,2374,1,18,-73
168771860,0.80975341796875,0.41033935546875,-0.412353515625,0.0762939453125,4892,648,2309,2,16,-83
168781843,0.811279296875,0.4144287109375,-0.40655517578125,0.06878662109375,4600,917,2233,3,14,-92
168791826,0.81256103515625,0.41912841796875,-0.40045166015625,0.06024169921875,4308,1185,2170,4,11,-101
168801804,0.8135986328125,0.42437744140625,-0.3941650390625,0.0506591796875,4028,1441,2095,5,8,-108
168811797,0.81427001953125,0.42999267578125,-0.3878173828125,0.04034423828125,3782,1713,2014,6,4,-113
168821780,0.81451416015625,0.43603515625,-0.3814697265625,0.0294189453125,3535,2016,1954,8,0,-117
168831756,0.81439208984375,0.44232177734375,-0.37518310546875,0.01800537109375,3310,2324,1887,9,-3,-120
168841738,0.81378173828125,0.448974609375,-0.36895751953125,0.00604248046875,3085,2678,1822,11,-7,-123
168851719,0.812744140625,0.45599365234375,-0.362548828125,-0.006591796875,2898,3031,1790,13,-9,-129
168861703,0.811279296875,0.46337890625,-0.35595703125,-0.0198974609375,2733,3336,1762,15,-12,-135
168871684,0.809326171875,0.47113037109375,-0.34912109375,-0.0338134765625,2585,3593,1729,17,-14,-141
168881670,0.80682373046875,0.4791259765625,-0.34210205078125,-0.0482177734375,2480,3827,1703,19,-16,-146
168891648,0.80389404296875,0.4874267578125,-0.3349609375,-0.06298828125,2327,4130,1687,22,-17,-149
168901630,0.8004150390625,0.4959716796875,-0.32745361328125,-0.078125,2127,4481,1657,25,-18,-153
168911613,0.79632568359375,0.50482177734375,-0.31964111328125,-0.09356689453125,1900,4819,1627,27,-19,-156
168921595,0.7918701171875,0.51373291015625,-0.3116455078125,-0.1090087890625,1709,5115,1595,29,-18,-156
168931577,0.78692626953125,0.5225830078125,-0.3035888671875,-0.1241455078125,1573,5307,1567,31,-18,-154
168941560,0.78179931640625,0.53106689453125,-0.2958984375,-0.13848876953125,1489,5474,1544,32,-17,-148
168951542,0.77642822265625,0.53924560546875,-0.2884521484375,-0.15191650390625,1299,5745,1499,34,-16,-140
168961524,0.770751953125,0.54742431640625,-0.2808837890625,-0.16510009765625,974,6115,1416,34,-14,-139
168971506,0.7646484375,0.55584716796875,-0.2728271484375,-0.178466796875,654,6483,1350,36,-13,-143
168981490,0.75811767578125,0.56451416015625,-0.26397705078125,-0.19207763671875,341,6788,1274,38,-10,-149
168991467,0.75103759765625,0.5732421875,-0.25457763671875,-0.2059326171875,105,6992,1222,40,-8,-154
169001459,0.74371337890625,0.58197021484375,-0.244873046875,-0.21954345703125,-45,7113,1169,41,-6,-155
169011441,0.73626708984375,0.59039306640625,-0.2352294921875,-0.232421875,-252,7246,1078,41,-3,-149
169021424,0.728759765625,0.59844970703125,-0.22576904296875,-0.24444580078125,-522,7467,972,40,-2,-141
169031407,0.72125244140625,0.606201171875,-0.21630859375,-0.2559814453125,-870,7755,882,39,1,-138
169041385,0.713623046875,0.61370849609375,-0.20654296875,-0.2672119140625,-1231,7992,804,38,3,-138
169051367,0.70574951171875,0.62103271484375,-0.1962890625,-0.278564453125,-1536,8119,741,37,4,-141
169061349,0.69775390625,0.628173828125,-0.185791015625,-0.289794921875,-1752,8111,680,36,6,-143
169071332,0.689697265625,0.6348876953125,-0.17510986328125,-0.30078125,-1970,8067,617,35,7,-142
169081314,0.68170166015625,0.64129638671875,-0.16455078125,-0.31134033203125,-2256,8089,556,33,7,-137
169091296,0.67376708984375,0.64715576171875,-0.154052734375,-0.3216552734375,-2640,8240,514,30,7,-134
169101275,0.66571044921875,0.6527099609375,-0.14324951171875,-0.33197021484375,-3130,8439,452,29,8,-137
169111266,0.65728759765625,0.6580810546875,-0.1317138671875,-0.3427734375,-3592,8593,398,27,8,-144
169121249,0.64837646484375,0.66326904296875,-0.119384765625,-0.3541259765625,-3955,8625,340,26,8,-152
169131228,0.63916015625,0.6680908203125,-0.106689453125,-0.36566162109375,-4178,8509,299,25,8,-156
169141219,0.62994384765625,0.67254638671875,-0.09429931640625,-0.376708984375,-4309,8326,249,24,7,-151
169151201,0.62109375,0.67645263671875,-0.0826416015625,-0.386962890625,-4552,8167,205,22,7,-140
169161178,0.61260986328125,0.679931640625,-0.07177734375,-0.396484375,-4930,8148,147,21,6,-130
169171154,0.60430908203125,0.68304443359375,-0.0614013671875,-0.405517578125,-5326,8185,97,20,5,-125
169181135,0.59600830078125,0.68585205078125,-0.05120849609375,-0.41436767578125,-5647,8185,61,19,4,-124
169191119,0.58770751953125,0.6883544921875,-0.04119873046875,-0.42315673828125,-5814,8094,42,19,3,-123
169201101,0.57952880859375,0.69061279296875,-0.0316162109375,-0.43145751953125,-5823,7906,52,19,3,-119
169211085,0.57177734375,0.69256591796875,-0.02276611328125,-0.439208984375,-5752,7632,84,19,2,-111
169221064,0.56439208984375,0.69427490234375,-0.0146484375,-0.4462890625,-5768,7400,118,18,2,-103
169231048,0.55712890625,0.69586181640625,-0.006591796875,-0.45306396484375,-5942,7264,130,18,2,-102
169241031,0.54937744140625,0.69732666015625,0.00189208984375,-0.460205078125,-6203,7177,127,18,2,-110
169251016,0.54083251953125,0.69873046875,0.01129150390625,-0.46807861328125,-6481,7103,120,19,2,-122
169260995,0.53143310546875,0.70001220703125,0.021728515625,-0.4765625,-6683,6954,103,20,2,-133
169270977,0.52142333984375,0.7010498046875,0.03265380859375,-0.4853515625,-6792,6747,104,20,2,-139
169280957,0.51129150390625,0.701904296875,0.04345703125,-0.49395751953125,-6882,6491,84,21,2,-136
169290940,0.50140380859375,0.7025146484375,0.05364990234375,-0.50213623046875,-7056,6242,51,21,1,-129
169300923,0.49169921875,0.70306396484375,0.06317138671875,-0.509765625,-7366,6062,17,22,1,-122
169310912,0.4820556640625,0.70343017578125,0.072265625,-0.5172119140625,-7779,5930,-33,23,-1,-120
169320885,0.471923828125,0.7037353515625,0.0814208984375,-0.5247802734375,-8240,5833,-115,25,-2,-123
169330867,0.461181640625,0.703857421875,0.09075927734375,-0.53253173828125,-8566,5716,-173,27,-2,-129
169340850,0.44989013671875,0.70391845703125,0.10028076171875,-0.5404052734375,-8702,5521,-214,29,-3,-132
169350831,0.4384765625,0.703857421875,0.10931396484375,-0.54803466796875,-8680,5254,-222,32,-2,-128
169360819,0.42755126953125,0.70379638671875,0.117431640625,-0.5550537109375,-8612,4962,-215,33,-2,-118
169370802,0.417236328125,0.703857421875,0.1243896484375,-0.561279296875,-8624,4701,-218,34,-2,-105
169380783,0.407470703125,0.7039794921875,0.13037109375,-0.56683349609375,-8728,4526,-253,35,-2,-96
169390767,0.39794921875,0.70416259765625,0.13580322265625,-0.57208251953125,-8897,4416,-275,36,-2,-93
169400742,0.38818359375,0.704345703125,0.1412353515625,-0.5772705078125,-9020,4306,-317,37,-1,-95
169410724,0.37799072265625,0.7044677734375,0.14678955078125,-0.58245849609375,-9044,4168,-374,39,-1,-99
169420712,0.367431640625,0.70458984375,0.1524658203125,-0.587646484375,-9007,3980,-421,40,0,-100
169430691,0.35693359375,0.70458984375,0.15789794921875,-0.59259033203125,-8921,3761,-428,40,0,-97
169440674,0.3468017578125,0.70465087890625,0.16278076171875,-0.59716796875,-8855,3551,-412,41,1,-91
169450655,0.337158203125,0.70477294921875,0.16705322265625,-0.60137939453125,-8857,3373,-411,40,1,-84
169460637,0.32794189453125,0.70489501953125,0.1708984375,-0.605224609375,-8924,3270,-422,40,1,-80
169470620,0.31878662109375,0.70501708984375,0.17462158203125,-0.60894775390625,-8990,3202,-435,39,2,-80
169480603,0.3095703125,0.7049560546875,0.1785888671875,-0.6126708984375,-9012,3123,-450,39,1,-83
169490585,0.300048828125,0.7047119140625,0.18280029296875,-0.61639404296875,-9026,3016,-474,38,1,-87
169500567,0.29046630859375,0.70428466796875,0.187255859375,-0.6201171875,-9029,2885,-495,37,1,-88
169510548,0.2808837890625,0.70367431640625,0.1917724609375,-0.62384033203125,-9139,2741,-509,36,1,-88
169520530,0.271484375,0.70294189453125,0.1962890625,-0.62738037109375,-9369,2632,-549,35,0,-88
169530516,0.26220703125,0.7020263671875,0.2008056640625,-0.63092041015625,-9577,2546,-601,33,-1,-88
169540495,0.2529296875,0.700927734375,0.20550537109375,-0.63446044921875,-9723,2480,-647,32,-2,-90
169550474,0.2437744140625,0.6995849609375,0.210205078125,-0.63787841796875,-9799,2398,-695,31,-3,-90
169560465,0.23486328125,0.6982421875,0.21466064453125,-0.6412353515625,-9809,2312,-724,30,-4,-87
169570447,0.2264404296875,0.69671630859375,0.2188720703125,-0.64447021484375,-9760,2187,-731,29,-5,-82
169580430,0.2186279296875,0.6951904296875,0.2225341796875,-0.6475830078125,-9694,2062,-721,28,-6,-76
169590404,0.2115478515625,0.69366455078125,0.22564697265625,-0.65045166015625,-9630,1919,-690,26,-7,-68
169600386,0.20513916015625,0.692138671875,0.22833251953125,-0.65325927734375,-9608,1782,-625,24,-8,-61
169610368,0.1993408203125,0.69061279296875,0.23052978515625,-0.6558837890625,-9619,1642,-578,23,-9,-56
169620352,0.19415283203125,0.6890869140625,0.232421875,-0.6583251953125,-9647,1528,-563,21,-9,-51
169630337,0.18939208984375,0.68756103515625,0.234130859375,-0.66070556640625,-9647,1444,-565,19,-11,-49
169640319,0.184814453125,0.68597412109375,0.23583984375,-0.66302490234375,-9599,1385,-583,18,-11,-48
169650301,0.18048095703125,0.684326171875,0.237548828125,-0.665283203125,-9490,1354,-581,17,-12,-48
169660280,0.17633056640625,0.68267822265625,0.23919677734375,-0.66754150390625,-9377,1315,-565,16,-12,-46
169670271,0.17242431640625,0.6810302734375,0.2408447265625,-0.669677734375,-9233,1252,-550,14,-12,-44
169680252,0.16888427734375,0.6793212890625,0.2423095703125,-0.6717529296875,-9086,1202,-497,13,-12,-41
169690240,0.16571044921875,0.677734375,0.24359130859375,-0.67364501953125,-8950,1110,-439,12,-12,-37
169700223,0.1630859375,0.67620849609375,0.24462890625,-0.67547607421875,-8838,1020,-374,10,-11,-32
169710208,0.160888671875,0.67486572265625,0.24542236328125,-0.67706298828125,-8732,926,-311,9,-11,-27
169720188,0.15924072265625,0.6737060546875,0.24591064453125,-0.678466796875,-8667,845,-249,7,-10,-22
169730156,0.1580810546875,0.672607421875,0.24627685546875,-0.6796875,-8613,761,-192,5,-9,-18
169740141,0.1572265625,0.67169189453125,0.24652099609375,-0.6806640625,-8565,679,-158,4,-8,-15
169750122,0.1566162109375,0.67083740234375,0.24676513671875,-0.68157958984375,-8502,612,-138,2,-8,-13
169760101,0.15618896484375,0.67010498046875,0.2470703125,-0.6822509765625,-8436,562,-123,1,-6,-12
169770085,0.15594482421875,0.66943359375,0.2474365234375,-0.682861328125,-8346,518,-95,-1,-6,-12
169780064,0.15576171875,0.6688232421875,0.2479248046875,-0.68328857421875,-8289,479,-71,-2,-5,-12
169790046,0.1556396484375,0.66827392578125,0.24859619140625,-0.68359375,-8241,443,-54,-4,-3,-12
169800030,0.155517578125,0.6678466796875,0.2493896484375,-0.683837890625,-8213,400,-32,-5,-2,-12
169810017,0.15545654296875,0.6673583984375,0.25042724609375,-0.68389892578125,-8194,345,-16,-6,-1,-13
169819997,0.15533447265625,0.6669921875,0.251708984375,-0.683837890625,-8181,277,-8,-7,0,-14
169829977,0.1551513671875,0.6666259765625,0.25311279296875,-0.6837158203125,-8155,207,0,-8,1,-15
169839959,0.1549072265625,0.666259765625,0.25469970703125,-0.6834716796875,-8142,130,-17,-9,2,-15
169849941,0.15472412109375,0.66607666015625,0.25634765625,-0.68310546875,-8115,58,-47,-10,3,-14
169859923,0.1546630859375,0.66595458984375,0.2579345703125,-0.68267822265625,-8098,-17,-68,-10,4,-12
169869906,0.15484619140625,0.666015625,0.25933837890625,-0.68206787109375,-8087,-105,-98,-10,4,-9
169879889,0.1552734375,0.666259765625,0.26043701171875,-0.68133544921875,-8108,-195,-142,-10,5,-5
169889864,0.15594482421875,0.6666259765625,0.26123046875,-0.68048095703125,-8146,-289,-190,-10,6,-1
169899850,0.1568603515625,0.667236328125,0.26165771484375,-0.67950439453125,-8175,-367,-255,-9,6,3
169909830,0.157958984375,0.66796875,0.26177978515625,-0.678466796875,-8188,-439,-309,-8,6,6
169919809,0.1590576171875,0.6688232421875,0.26165771484375,-0.6773681640625,-8194,-491,-353,-7,7,8
169929802,0.16021728515625,0.6697998046875,0.26129150390625,-0.67633056640625,-8214,-537,-380,-5,7,10
169939785,0.161376953125,0.6707763671875,0.26080322265625,-0.67523193359375,-8240,-584,-402,-4,7,10
169949759,0.162353515625,0.67181396484375,0.26019287109375,-0.6741943359375,-8255,-631,-408,-3,7,10
169959743,0.16326904296875,0.6728515625,0.259521484375,-0.6732177734375,-8276,-674,-430,-2,7,11
169969727,0.1640625,0.67388916015625,0.2587890625,-0.6722412109375,-8291,-716,-457,-1,7,10
