subject,Joshua Spiesman
arm,left
label,3
hz,100.17199375079534
time,5.760093

timestamp_us,q0,q1,q2,q3,ax,ay,az,gx,gy,gz
76206205,0.50982666015625,-0.46307373046875,-0.54248046875,-0.4810791015625,8427,376,-46,5,1,4
76216194,0.5106201171875,-0.462890625,-0.5423583984375,-0.48052978515625,8446,340,-17,5,1,4
76226177,0.511474609375,-0.46270751953125,-0.542236328125,-0.47998046875,8458,297,10,6,2,4
76236160,0.5123291015625,-0.46246337890625,-0.54205322265625,-0.4794921875,8469,250,30,5,3,4
76246130,0.5133056640625,-0.46209716796875,-0.54180908203125,-0.47900390625,8495,202,54,6,3,3
76256112,0.51434326171875,-0.461669921875,-0.54156494140625,-0.4786376953125,8498,166,73,6,4,3
76266094,0.515380859375,-0.46112060546875,-0.5413818359375,-0.478271484375,8467,139,97,7,5,2
76276076,0.5164794921875,-0.46044921875,-0.5411376953125,-0.47796630859375,8421,125,126,7,6,1
76286060,0.51763916015625,-0.4595947265625,-0.541015625,-0.47772216796875,8355,107,162,8,6,1
76296050,0.518798828125,-0.45855712890625,-0.54095458984375,-0.4775390625,8252,101,197,9,7,-1
76306023,0.51995849609375,-0.4573974609375,-0.54095458984375,-0.47735595703125,8201,97,204,10,7,-2
76316014,0.52117919921875,-0.45623779296875,-0.541015625,-0.47705078125,8164,87,203,11,7,0
76325994,0.52252197265625,-0.45513916015625,-0.541015625,-0.47662353515625,8134,98,195,12,7,1
76335983,0.5240478515625,-0.4541015625,-0.541015625,-0.47589111328125,8085,101,171,13,7,4
76345958,0.52569580078125,-0.45318603515625,-0.541015625,-0.47503662109375,8030,118,182,14,7,5
76355942,0.52740478515625,-0.4522705078125,-0.54095458984375,-0.4739990234375,7970,127,189,14,6,7
76365926,0.5291748046875,-0.451416015625,-0.54095458984375,-0.472900390625,7915,144,196,15,6,7
76375908,0.53094482421875,-0.45050048828125,-0.54107666015625,-0.4716796875,7867,142,192,16,5,7
76385892,0.53253173828125,-0.4495849609375,-0.54132080078125,-0.470458984375,7829,134,174,16,4,5
76395877,0.53399658203125,-0.44854736328125,-0.541748046875,-0.46923828125,7788,147,158,17,3,3
76405857,0.53533935546875,-0.4473876953125,-0.5423583984375,-0.46807861328125,7757,154,154,17,2,2
76415841,0.53656005859375,-0.4462890625,-0.54315185546875,-0.46685791015625,7721,172,141,17,1,1
76425822,0.53778076171875,-0.44512939453125,-0.5439453125,-0.46563720703125,7687,200,130,18,0,2
76435806,0.538818359375,-0.44415283203125,-0.544921875,-0.4642333984375,7632,221,106,18,-1,2
76445786,0.5399169921875,-0.443115234375,-0.5458984375,-0.4627685546875,7550,249,96,18,-2,2
76455765,0.5408935546875,-0.4422607421875,-0.5469970703125,-0.461181640625,7497,261,84,18,-4,3
76465757,0.54180908203125,-0.44146728515625,-0.5482177734375,-0.45947265625,7479,253,48,19,-5,3
76475741,0.54266357421875,-0.4407958984375,-0.5494384765625,-0.45758056640625,7485,227,8,19,-6,4
76485719,0.54351806640625,-0.4403076171875,-0.55072021484375,-0.45550537109375,7485,210,-45,19,-8,5
76495699,0.5443115234375,-0.43994140625,-0.55206298828125,-0.45330810546875,7495,212,-75,19,-9,6
76505684,0.54510498046875,-0.439697265625,-0.55340576171875,-0.450927734375,7494,214,-99,19,-10,8
76515666,0.54583740234375,-0.4395751953125,-0.5548095703125,-0.44842529296875,7503,211,-143,19,-11,8
76525648,0.5465087890625,-0.43963623046875,-0.55615234375,-0.44586181640625,7551,198,-199,19,-13,9
76535635,0.547119140625,-0.43988037109375,-0.55755615234375,-0.44305419921875,7644,176,-274,18,-13,11
76545615,0.54779052734375,-0.44024658203125,-0.55889892578125,-0.44024658203125,7753,155,-340,18,-14,12
76555597,0.54833984375,-0.44085693359375,-0.56024169921875,-0.43719482421875,7857,150,-393,17,-15,14
76565578,0.54901123046875,-0.4415283203125,-0.5614013671875,-0.4342041015625,7925,168,-431,17,-15,15
76575560,0.54962158203125,-0.4422607421875,-0.56256103515625,-0.43115234375,7977,198,-456,16,-16,16
76585543,0.55023193359375,-0.443115234375,-0.5635986328125,-0.4281005859375,8016,203,-487,15,-15,17
76595525,0.55078125,-0.44403076171875,-0.56463623046875,-0.42510986328125,8052,192,-521,15,-15,17
76605510,0.55133056640625,-0.4449462890625,-0.56561279296875,-0.42218017578125,8058,184,-558,14,-15,16
76615492,0.5517578125,-0.44586181640625,-0.5665283203125,-0.4193115234375,8047,168,-570,13,-14,15
76625475,0.55218505859375,-0.44671630859375,-0.56744384765625,-0.41668701171875,8019,163,-550,13,-15,14
76635460,0.55242919921875,-0.4473876953125,-0.56842041015625,-0.41424560546875,7932,174,-512,12,-14,12
76645448,0.55255126953125,-0.447998046875,-0.56939697265625,-0.412109375,7883,171,-476,11,-14,9
76655432,0.552490234375,-0.448486328125,-0.5704345703125,-0.41021728515625,7887,155,-466,9,-14,8
76665415,0.5523681640625,-0.4490966796875,-0.57147216796875,-0.40826416015625,8002,134,-497,9,-15,8
76675398,0.55230712890625,-0.449951171875,-0.57232666015625,-0.40618896484375,8173,156,-549,8,-14,12
76685376,0.55242919921875,-0.45111083984375,-0.57293701171875,-0.40380859375,8354,201,-592,8,-15,17
76695358,0.55279541015625,-0.4525146484375,-0.5732421875,-0.4013671875,8505,259,-611,7,-14,21
76705341,0.55322265625,-0.4541015625,-0.57342529296875,-0.398681640625,8629,315,-642,7,-14,23
76715327,0.55364990234375,-0.45562744140625,-0.57354736328125,-0.3961181640625,8708,398,-669,8,-13,23
76725309,0.55413818359375,-0.4569091796875,-0.57379150390625,-0.3936767578125,8825,484,-697,8,-12,21
76735293,0.55450439453125,-0.45794677734375,-0.57415771484375,-0.39141845703125,8995,557,-760,9,-12,18
76745275,0.55474853515625,-0.45855712890625,-0.57476806640625,-0.38946533203125,9229,623,-831,9,-10,14
76755259,0.55487060546875,-0.4588623046875,-0.5755615234375,-0.3878173828125,9518,699,-909,10,-10,10
76765239,0.5546875,-0.45855712890625,-0.57666015625,-0.38665771484375,9835,818,-962,10,-9,4
76775227,0.55419921875,-0.45751953125,-0.57818603515625,-0.3863525390625,10145,974,-969,9,-7,-7
76785207,0.55303955078125,-0.45538330078125,-0.58050537109375,-0.3870849609375,10374,1173,-983,9,-6,-22
76795187,0.55084228515625,-0.45166015625,-0.58392333984375,-0.389404296875,10438,1384,-1014,9,-6,-45
76805179,0.54730224609375,-0.4459228515625,-0.58880615234375,-0.39361572265625,10352,1550,-1033,9,-5,-75
76815164,0.54229736328125,-0.43792724609375,-0.59521484375,-0.39990234375,10185,1692,-1024,8,-4,-107
76825142,0.53558349609375,-0.4276123046875,-0.60308837890625,-0.40814208984375,9950,1853,-992,7,-4,-136
76835119,0.5274658203125,-0.4154052734375,-0.61199951171875,-0.41796875,9683,2051,-912,6,-5,-161
76845104,0.51824951171875,-0.401611328125,-0.6214599609375,-0.42889404296875,9400,2230,-781,6,-4,-177
76855086,0.50836181640625,-0.38702392578125,-0.630859375,-0.44024658203125,9208,2436,-638,5,-4,-184
76865069,0.49822998046875,-0.3721923828125,-0.63995361328125,-0.451416015625,9070,2691,-520,5,-4,-182
76875054,0.48834228515625,-0.35784912109375,-0.64825439453125,-0.46185302734375,8948,2985,-442,5,-4,-171
76885036,0.4791259765625,-0.34454345703125,-0.65557861328125,-0.47119140625,8868,3290,-398,5,-3,-155
76895016,0.470947265625,-0.33251953125,-0.66180419921875,-0.479248046875,8848,3591,-391,5,-2,-135
76905004,0.4639892578125,-0.3221435546875,-0.66693115234375,-0.48602294921875,8929,3864,-425,6,0,-114
76914988,0.458251953125,-0.31317138671875,-0.671142578125,-0.49151611328125,9045,4116,-465,6,2,-96
76924967,0.45361328125,-0.30523681640625,-0.67449951171875,-0.49615478515625,9123,4327,-489,7,4,-83
76934949,0.44952392578125,-0.2977294921875,-0.67742919921875,-0.50042724609375,9143,4522,-462,7,6,-78
76944932,0.44561767578125,-0.2899169921875,-0.68011474609375,-0.50482177734375,9113,4715,-421,7,9,-80
76954914,0.4415283203125,-0.2816162109375,-0.6827392578125,-0.50958251953125,9127,4914,-395,6,11,-86
76964899,0.43701171875,-0.27252197265625,-0.6854248046875,-0.5147705078125,9180,5182,-390,5,14,-94
76974879,0.43218994140625,-0.26263427734375,-0.6881103515625,-0.5203857421875,9246,5470,-414,5,15,-101
76984863,0.42694091796875,-0.25213623046875,-0.6907958984375,-0.52630615234375,9274,5732,-437,5,17,-107
76994846,0.42132568359375,-0.24102783203125,-0.6934814453125,-0.532470703125,9245,5937,-445,4,18,-114
77004827,0.41522216796875,-0.22930908203125,-0.69610595703125,-0.53900146484375,9129,6120,-404,3,18,-121
77014809,0.40850830078125,-0.21697998046875,-0.69873046875,-0.54583740234375,8978,6304,-340,3,18,-128
77024794,0.40118408203125,-0.20428466796875,-0.70123291015625,-0.5528564453125,8805,6514,-276,1,16,-133
77034772,0.39349365234375,-0.19146728515625,-0.70361328125,-0.5599365234375,8713,6751,-239,0,15,-135
77044765,0.385498046875,-0.1788330078125,-0.70574951171875,-0.56689453125,8666,7036,-248,-2,13,-134
77054746,0.37750244140625,-0.166748046875,-0.70770263671875,-0.573486328125,8650,7286,-303,-2,12,-130
77064720,0.36962890625,-0.1551513671875,-0.70947265625,-0.57965087890625,8585,7493,-363,-3,10,-126
77074704,0.3616943359375,-0.14385986328125,-0.71112060546875,-0.5855712890625,8438,7620,-404,-3,9,-125
77084686,0.35333251953125,-0.13232421875,-0.712646484375,-0.59149169921875,8235,7690,-371,-3,7,-131
77094670,0.34405517578125,-0.1202392578125,-0.714111328125,-0.5977783203125,8004,7755,-323,-4,5,-141
77104653,0.33380126953125,-0.1072998046875,-0.71551513671875,-0.60430908203125,7833,7852,-303,-5,4,-152
77114637,0.32275390625,-0.09393310546875,-0.71685791015625,-0.61090087890625,7782,8009,-314,-5,2,-158
77124619,0.31134033203125,-0.08056640625,-0.718017578125,-0.6173095703125,7783,8168,-366,-5,1,-160
77134601,0.2999267578125,-0.0672607421875,-0.71905517578125,-0.62335205078125,7786,8262,-441,-5,1,-161
77144584,0.2882080078125,-0.05389404296875,-0.71990966796875,-0.629150390625,7723,8316,-504,-5,0,-164
77154566,0.2760009765625,-0.0400390625,-0.7205810546875,-0.63482666015625,7578,8352,-530,-4,0,-170
77164553,0.2630615234375,-0.02557373046875,-0.72113037109375,-0.64044189453125,7387,8408,-551,-3,-1,-178
77174534,0.24945068359375,-0.0106201171875,-0.72137451171875,-0.64605712890625,7170,8506,-541,-4,-2,-185
77184515,0.2353515625,0.00469970703125,-0.72125244140625,-0.65155029296875,6920,8605,-524,-4,-3,-189
77194498,0.2208251953125,0.02001953125,-0.72076416015625,-0.6568603515625,6635,8647,-502,-5,-5,-190
77204482,0.20623779296875,0.03509521484375,-0.71990966796875,-0.661865234375,6341,8655,-500,-5,-5,-189
77214464,0.191650390625,0.04974365234375,-0.71881103515625,-0.66650390625,6059,8639,-521,-6,-7,-186
77224448,0.1771240234375,0.06402587890625,-0.7174072265625,-0.6707763671875,5731,8632,-514,-5,-8,-183
77234436,0.16259765625,0.077880859375,-0.71575927734375,-0.67474365234375,5423,8619,-486,-6,-10,-181
77244420,0.1480712890625,0.09124755859375,-0.7138671875,-0.6783447265625,5162,8591,-458,-6,-12,-179
77254403,0.13360595703125,0.10418701171875,-0.71173095703125,-0.6817626953125,4957,8585,-447,-6,-14,-176
77264380,0.1195068359375,0.11651611328125,-0.70941162109375,-0.68475341796875,4818,8581,-489,-6,-15,-172
77274360,0.10589599609375,0.128173828125,-0.70703125,-0.68743896484375,4687,8567,-563,-7,-15,-165
77284350,0.09295654296875,0.13922119140625,-0.70452880859375,-0.689697265625,4519,8486,-611,-6,-14,-158
77294326,0.0802001953125,0.1502685546875,-0.70184326171875,-0.6917724609375,4222,8313,-612,-6,-13,-159
77304310,0.0667724609375,0.1619873046875,-0.69873046875,-0.69366455078125,3838,8086,-558,-6,-12,-167
77314294,0.05218505859375,0.1746826171875,-0.695068359375,-0.69549560546875,3421,7890,-497,-6,-13,-179
77324275,0.03656005859375,0.188232421875,-0.69085693359375,-0.6971435546875,2999,7770,-427,-6,-13,-189
77334259,0.02032470703125,0.2021484375,-0.6861572265625,-0.69854736328125,2601,7706,-375,-6,-15,-193
77344238,0.004150390625,0.215576171875,-0.6812744140625,-0.69964599609375,2222,7650,-350,-6,-17,-188
77354230,-0.01129150390625,0.2279052734375,-0.6763916015625,-0.70037841796875,1833,7572,-328,-5,-18,-176
77364212,-0.02606201171875,0.239013671875,-0.67169189453125,-0.7008056640625,1380,7400,-318,-3,-21,-165
77374192,-0.04058837890625,0.24957275390625,-0.66693115234375,-0.70098876953125,868,7138,-285,-2,-23,-160
77384185,-0.0557861328125,0.26007080078125,-0.661865234375,-0.70086669921875,366,6862,-234,-1,-26,-164
77394175,-0.07183837890625,0.270751953125,-0.65643310546875,-0.70050048828125,-44,6665,-180,0,-29,-171
77404155,-0.0882568359375,0.28125,-0.65069580078125,-0.6998291015625,-338,6551,-186,1,-31,-173
77414126,-0.10443115234375,0.2911376953125,-0.64508056640625,-0.69873046875,-548,6492,-215,3,-33,-167
77424108,-0.11981201171875,0.29998779296875,-0.6397705078125,-0.69744873046875,-716,6448,-251,5,-34,-156
77434092,-0.13446044921875,0.30792236328125,-0.634765625,-0.69586181640625,-918,6339,-265,7,-34,-148
77444074,-0.14892578125,0.31549072265625,-0.62982177734375,-0.69403076171875,-1185,6193,-249,8,-34,-146
77454057,-0.163818359375,0.3233642578125,-0.62445068359375,-0.69189453125,-1470,6022,-238,9,-34,-152
77464040,-0.1795654296875,0.33184814453125,-0.61865234375,-0.689208984375,-1740,5849,-224,9,-35,-162
77474023,-0.19598388671875,0.34075927734375,-0.6121826171875,-0.6861572265625,-1975,5681,-188,10,-35,-169
77484007,-0.21258544921875,0.34991455078125,-0.6053466796875,-0.6826171875,-2204,5534,-169,10,-34,-172
77493995,-0.2288818359375,0.35882568359375,-0.59832763671875,-0.67889404296875,-2396,5356,-159,9,-33,-168
77503977,-0.24432373046875,0.36724853515625,-0.5914306640625,-0.67510986328125,-2558,5142,-143,8,-31,-160
77513954,-0.258544921875,0.37493896484375,-0.5848388671875,-0.6712646484375,-2711,4907,-143,8,-29,-148
77523937,-0.2716064453125,0.38201904296875,-0.57861328125,-0.66748046875,-2871,4634,-143,8,-26,-137
77533920,-0.28387451171875,0.3887939453125,-0.5726318359375,-0.66363525390625,-3075,4319,-136,7,-23,-130
77543903,-0.29559326171875,0.3955078125,-0.5665283203125,-0.6597900390625,-3291,4016,-122,6,-21,-127
77553886,-0.30694580078125,0.4022216796875,-0.56036376953125,-0.65582275390625,-3511,3695,-93,4,-19,-124
77563869,-0.31793212890625,0.4088134765625,-0.5540771484375,-0.65179443359375,-3738,3344,-46,3,-18,-121
77573851,-0.328369140625,0.41534423828125,-0.5477294921875,-0.6478271484375,-3979,2960,4,2,-17,-116
77583834,-0.33831787109375,0.42169189453125,-0.54144287109375,-0.6439208984375,-4224,2559,64,0,-15,-110
77593819,-0.34765625,0.42767333984375,-0.5352783203125,-0.64013671875,-4450,2142,122,-1,-15,-103
77603799,-0.35638427734375,0.4332275390625,-0.52923583984375,-0.6365966796875,-4676,1712,207,-2,-14,-96
77613784,-0.36474609375,0.43853759765625,-0.52313232421875,-0.63323974609375,-4878,1278,311,-3,-15,-91
77623771,-0.3729248046875,0.4437255859375,-0.5169677734375,-0.62994384765625,-5064,840,402,-4,-14,-89
77633752,-0.38092041015625,0.44891357421875,-0.51068115234375,-0.62664794921875,-5193,385,507,-5,-14,-87
77643736,-0.38861083984375,0.4539794921875,-0.50433349609375,-0.62335205078125,-5300,-79,594,-6,-13,-83
77653714,-0.3958740234375,0.45892333984375,-0.498046875,-0.62017822265625,-5410,-530,705,-7,-12,-79
77663698,-0.40277099609375,0.463623046875,-0.49188232421875,-0.6171875,-5525,-966,808,-7,-11,-73
77673680,-0.40924072265625,0.46807861328125,-0.4859619140625,-0.6142578125,-5638,-1352,937,-7,-10,-68
77683661,-0.41546630859375,0.4722900390625,-0.4801025390625,-0.6114501953125,-5731,-1701,1062,-7,-10,-65
77693645,-0.42144775390625,0.47637939453125,-0.474365234375,-0.60870361328125,-5797,-2014,1166,-7,-9,-63
77703628,-0.427001953125,0.480224609375,-0.46881103515625,-0.60614013671875,-5826,-2284,1245,-8,-8,-57
77713611,-0.431640625,0.4835205078125,-0.46392822265625,-0.60394287109375,-5820,-2512,1279,-8,-7,-44
77723593,-0.4346923828125,0.4859619140625,-0.4603271484375,-0.60260009765625,-5769,-2674,1318,-7,-4,-23
77733574,-0.43560791015625,0.487060546875,-0.45843505859375,-0.60247802734375,-5683,-2764,1326,-7,-1,5
77743556,-0.43414306640625,0.4866943359375,-0.45855712890625,-0.6036376953125,-5618,-2795,1333,-7,3,34
77753542,-0.43048095703125,0.48504638671875,-0.4605712890625,-0.6060791015625,-5599,-2765,1332,-6,6,61
77763521,-0.42498779296875,0.48223876953125,-0.46417236328125,-0.60943603515625,-5591,-2681,1333,-6,9,81
77773503,-0.4180908203125,0.4786376953125,-0.46893310546875,-0.6134033203125,-5590,-2555,1321,-5,12,97
77783487,-0.40997314453125,0.47442626953125,-0.474609375,-0.6177978515625,-5557,-2394,1284,-4,15,109
77793471,-0.40057373046875,0.46942138671875,-0.48126220703125,-0.62255859375,-5480,-2208,1251,-3,18,123
77803455,-0.38983154296875,0.46343994140625,-0.48895263671875,-0.62786865234375,-5387,-1960,1234,-2,19,140
77813448,-0.37762451171875,0.456298828125,-0.49774169921875,-0.63360595703125,-5302,-1674,1223,0,21,156
77823428,-0.3641357421875,0.44818115234375,-0.50738525390625,-0.63970947265625,-5241,-1370,1230,1,22,170
77833411,-0.3497314453125,0.43914794921875,-0.5174560546875,-0.6458740234375,-5157,-1059,1234,3,23,177
77843395,-0.3348388671875,0.4295654296875,-0.52764892578125,-0.65191650390625,-5053,-736,1227,4,22,181
77853371,-0.31964111328125,0.4195556640625,-0.5377197265625,-0.65777587890625,-4900,-408,1219,4,21,182
77863354,-0.3043212890625,0.40911865234375,-0.54766845703125,-0.6634521484375,-4739,-81,1202,5,20,183
77873336,-0.28857421875,0.398193359375,-0.5574951171875,-0.66888427734375,-4538,243,1166,5,19,187
77883319,-0.272216796875,0.38641357421875,-0.56732177734375,-0.67437744140625,-4301,593,1134,5,18,194
77893301,-0.25506591796875,0.37371826171875,-0.57720947265625,-0.6798095703125,-4067,925,1095,5,16,201
77903285,-0.23736572265625,0.3602294921875,-0.58697509765625,-0.68511962890625,-3877,1246,1037,5,14,206
77913269,-0.219482421875,0.34619140625,-0.59649658203125,-0.69012451171875,-3675,1547,1013,5,12,207
77923255,-0.2015380859375,0.33160400390625,-0.60552978515625,-0.69488525390625,-3449,1859,987,5,9,207
77933241,-0.1837158203125,0.31646728515625,-0.614013671875,-0.69940185546875,-3171,2154,975,4,5,207
77943222,-0.165771484375,0.3006591796875,-0.6221923828125,-0.70361328125,-2798,2522,895,4,1,209
77953207,-0.147216796875,0.28375244140625,-0.6302490234375,-0.70758056640625,-2304,2975,782,4,-2,215
77963193,-0.1280517578125,0.265869140625,-0.63812255859375,-0.711181640625,-1838,3431,668,4,-4,219
77973176,-0.1087646484375,0.24755859375,-0.6455078125,-0.71435546875,-1429,3832,570,4,-6,219
77983160,-0.08990478515625,0.22918701171875,-0.65216064453125,-0.717041015625,-1016,4174,546,3,-7,212
77993129,-0.0718994140625,0.211181640625,-0.657958984375,-0.71929931640625,-607,4525,495,1,-10,202
78003114,-0.05462646484375,0.193603515625,-0.66302490234375,-0.72113037109375,-119,4921,432,-1,-11,192
78013093,-0.037353515625,0.17596435546875,-0.66748046875,-0.72265625,555,5448,316,-3,-11,191
78023077,-0.01873779296875,0.15692138671875,-0.67181396484375,-0.7237548828125,1413,6128,148,-4,-11,205
78033057,0.002197265625,0.1356201171875,-0.67620849609375,-0.72412109375,2295,6796,-13,-3,-11,229
78043040,0.02520751953125,0.11236572265625,-0.68048095703125,-0.72369384765625,2964,7230,-133,-2,-10,250
78053025,0.0489501953125,0.08831787109375,-0.68402099609375,-0.72247314453125,3433,7481,-149,-2,-9,257
78063010,0.07220458984375,0.064697265625,-0.68658447265625,-0.7205810546875,3851,7686,-103,-4,-8,250
78072996,0.09429931640625,0.04217529296875,-0.68798828125,-0.7183837890625,4387,7970,-85,-7,-8,235
78082981,0.11529541015625,0.02044677734375,-0.68841552734375,-0.7158203125,5115,8312,-142,-11,-8,223
78092958,0.13592529296875,-0.00091552734375,-0.6881103515625,-0.71282958984375,5969,8590,-304,-13,-6,220
78102939,0.15740966796875,-0.0230712890625,-0.687255859375,-0.7088623046875,6858,8830,-526,-13,-5,233
78112923,0.1810302734375,-0.0472412109375,-0.68572998046875,-0.7034912109375,7586,9077,-611,-11,-3,262
78122905,0.206787109375,-0.073486328125,-0.68316650390625,-0.696533203125,7888,9085,-565,-9,-3,292
78132887,0.23284912109375,-0.10015869140625,-0.67962646484375,-0.68841552734375,7798,8745,-426,-7,-4,299
78142870,0.25714111328125,-0.12548828125,-0.67523193359375,-0.679931640625,7557,8210,-178,-7,-6,281
78152855,0.278564453125,-0.1484375,-0.6702880859375,-0.67169189453125,7674,7766,54,-9,-8,250
78162838,0.297119140625,-0.16900634765625,-0.6651611328125,-0.6639404296875,8221,7598,158,-11,-9,219
78172820,0.313232421875,-0.1876220703125,-0.65997314453125,-0.65667724609375,8838,7548,177,-14,-10,196
78182801,0.3275146484375,-0.2047119140625,-0.65472412109375,-0.6497802734375,9396,7438,139,-14,-10,179
78192785,0.340576171875,-0.22064208984375,-0.64947509765625,-0.64312744140625,9738,7206,105,-15,-10,167
78202773,0.3525390625,-0.2354736328125,-0.644287109375,-0.6365966796875,9793,6896,118,-14,-10,158
78212758,0.3634033203125,-0.2491455078125,-0.63916015625,-0.63037109375,9543,6533,196,-14,-10,146
78222740,0.372802734375,-0.26123046875,-0.63433837890625,-0.6248779296875,9254,6141,347,-13,-11,129
78232718,0.3807373046875,-0.27215576171875,-0.62982177734375,-0.61993408203125,9216,5840,492,-14,-13,114
78242700,0.3878173828125,-0.28228759765625,-0.62554931640625,-0.61541748046875,9287,5639,596,-14,-13,105
78252682,0.3944091796875,-0.29217529296875,-0.6212158203125,-0.61090087890625,9297,5491,671,-15,-14,105
78262665,0.401123046875,-0.3021240234375,-0.61676025390625,-0.60626220703125,9254,5298,728,-15,-14,108
78272647,0.408203125,-0.3123779296875,-0.6119384765625,-0.6011962890625,9150,5029,752,-14,-13,114
78282635,0.4156494140625,-0.32293701171875,-0.60675048828125,-0.595703125,8979,4718,728,-14,-12,121
78292613,0.42352294921875,-0.3338623046875,-0.6011962890625,-0.5897216796875,8816,4376,692,-14,-12,127
78302597,0.43182373046875,-0.34527587890625,-0.59515380859375,-0.583251953125,8777,4075,648,-14,-12,135
78312581,0.44061279296875,-0.3572998046875,-0.588623046875,-0.5760498046875,8916,3860,609,-14,-12,145
78322562,0.4503173828125,-0.3701171875,-0.581298828125,-0.56781005859375,9207,3698,577,-13,-12,161
78332546,0.46099853515625,-0.38397216796875,-0.5731201171875,-0.5582275390625,9589,3566,544,-11,-13,180
78342529,0.47283935546875,-0.39892578125,-0.5638427734375,-0.54718017578125,10050,3410,504,-10,-13,200
78352513,0.4854736328125,-0.4149169921875,-0.55352783203125,-0.53460693359375,10550,3196,438,-9,-14,218
78362496,0.49859619140625,-0.431396484375,-0.54229736328125,-0.5208740234375,11042,2920,373,-8,-14,228
78372480,0.51165771484375,-0.447998046875,-0.5303955078125,-0.50628662109375,11488,2597,299,-9,-15,233
78382461,0.5240478515625,-0.46405029296875,-0.51824951171875,-0.49139404296875,11846,2231,248,-8,-16,229
78392448,0.5355224609375,-0.479248046875,-0.50628662109375,-0.47674560546875,12092,1864,201,-9,-16,220
78402437,0.54571533203125,-0.4932861328125,-0.4947509765625,-0.46282958984375,12238,1539,192,-9,-16,205
78412417,0.55450439453125,-0.50579833984375,-0.4840087890625,-0.449951171875,12299,1267,199,-10,-16,187
78422402,0.5618896484375,-0.51678466796875,-0.474365234375,-0.4384765625,12287,1085,219,-10,-16,166
78432378,0.5677490234375,-0.5262451171875,-0.4659423828125,-0.42852783203125,12203,954,246,-11,-15,144
78442360,0.57220458984375,-0.53399658203125,-0.45904541015625,-0.42034912109375,12040,899,322,-11,-15,118
78452350,0.5751953125,-0.54010009765625,-0.4537353515625,-0.4141845703125,11784,928,411,-11,-15,92
78462328,0.57684326171875,-0.5445556640625,-0.4501953125,-0.40997314453125,11466,1037,512,-11,-14,65
78472307,0.5771484375,-0.5474853515625,-0.44830322265625,-0.40765380859375,11109,1213,595,-12,-13,41
78482292,0.57647705078125,-0.549072265625,-0.4478759765625,-0.40704345703125,10776,1425,690,-11,-13,20
78492273,0.57489013671875,-0.549560546875,-0.4486083984375,-0.40777587890625,10516,1652,774,-11,-12,4
78502255,0.57257080078125,-0.54925537109375,-0.45025634765625,-0.40966796875,10374,1861,845,-12,-11,-9
78512242,0.56982421875,-0.54815673828125,-0.45257568359375,-0.41241455078125,10335,2076,907,-11,-9,-19
78522223,0.56689453125,-0.54638671875,-0.455322265625,-0.41571044921875,10328,2327,982,-9,-8,-26
78532206,0.56378173828125,-0.5440673828125,-0.45843505859375,-0.41949462890625,10298,2645,1017,-8,-6,-30
78542194,0.56060791015625,-0.54132080078125,-0.4617919921875,-0.42364501953125,10206,2999,1059,-7,-4,-33
78552174,0.55743408203125,-0.5380859375,-0.4652099609375,-0.42822265625,10095,3330,1077,-6,-1,-36
78562160,0.55413818359375,-0.5345458984375,-0.46868896484375,-0.43310546875,10016,3590,1054,-6,1,-40
78572137,0.55078125,-0.5306396484375,-0.47222900390625,-0.43829345703125,9984,3807,1047,-6,3,-44
78582114,0.5472412109375,-0.5263671875,-0.4759521484375,-0.44390869140625,9984,4021,1071,-5,5,-48
78592097,0.5435791015625,-0.52178955078125,-0.47967529296875,-0.44970703125,10019,4218,1089,-5,6,-51
78602080,0.539794921875,-0.5169677734375,-0.48345947265625,-0.45574951171875,10076,4376,1036,-6,8,-53
78612063,0.53582763671875,-0.511962890625,-0.48724365234375,-0.46197509765625,10139,4480,942,-6,9,-56
78622050,0.5316162109375,-0.5067138671875,-0.49114990234375,-0.46844482421875,10189,4502,849,-6,11,-62
78632029,0.52703857421875,-0.50091552734375,-0.495361328125,-0.47540283203125,10276,4435,754,-7,12,-72
78642017,0.5218505859375,-0.49444580078125,-0.5,-0.48297119140625,10416,4325,669,-7,13,-84
78651997,0.515869140625,-0.48712158203125,-0.50518798828125,-0.49139404296875,10588,4208,599,-7,15,-98
78661988,0.509033203125,-0.478759765625,-0.51104736328125,-0.50054931640625,10801,4106,517,-7,17,-113
78671964,0.50146484375,-0.4696044921875,-0.517333984375,-0.51031494140625,11085,4025,414,-7,18,-126
78681947,0.49322509765625,-0.459716796875,-0.52398681640625,-0.52044677734375,11390,3941,322,-7,19,-135
78691931,0.4844970703125,-0.44921875,-0.5308837890625,-0.53076171875,11674,3855,255,-7,19,-144
78701913,0.4752197265625,-0.4381103515625,-0.537841796875,-0.541259765625,11949,3787,213,-6,20,-152
78711897,0.4654541015625,-0.42633056640625,-0.5450439453125,-0.5518798828125,12214,3728,207,-5,20,-161
78721880,0.455078125,-0.413818359375,-0.55242919921875,-0.5626220703125,12463,3679,199,-4,20,-170
78731860,0.44415283203125,-0.400634765625,-0.55999755859375,-0.57330322265625,12699,3683,171,-2,21,-178
78741842,0.4326171875,-0.38671875,-0.5677490234375,-0.583984375,12923,3740,134,-1,22,-186
78751830,0.420654296875,-0.37200927734375,-0.57550048828125,-0.5946044921875,13138,3878,105,1,24,-193
78761809,0.4083251953125,-0.35662841796875,-0.5831298828125,-0.6051025390625,13312,4042,74,2,26,-200
78771793,0.39544677734375,-0.34051513671875,-0.5906982421875,-0.615478515625,13394,4222,59,3,27,-208
78781772,0.38189697265625,-0.323486328125,-0.5982666015625,-0.6258544921875,13372,4419,57,4,28,-217
78791764,0.3675537109375,-0.3056640625,-0.605712890625,-0.63616943359375,13237,4651,95,4,28,-226
78801748,0.352294921875,-0.2869873046875,-0.613037109375,-0.6463623046875,13021,4915,154,4,28,-234
78811723,0.33636474609375,-0.26763916015625,-0.6201171875,-0.65631103515625,12765,5205,223,4,28,-240
78821708,0.320068359375,-0.24822998046875,-0.626708984375,-0.66583251953125,12471,5555,307,3,26,-239
78831690,0.30377197265625,-0.22900390625,-0.63262939453125,-0.67462158203125,12178,5878,370,3,25,-235
78841672,0.28753662109375,-0.2103271484375,-0.63800048828125,-0.68267822265625,11880,6208,404,2,23,-230
78851656,0.27154541015625,-0.192138671875,-0.642822265625,-0.6900634765625,11550,6502,429,2,21,-224
78861639,0.25567626953125,-0.174560546875,-0.647216796875,-0.6966552734375,11219,6754,427,2,18,-218
78871620,0.23980712890625,-0.157470703125,-0.6512451171875,-0.70263671875,10795,6955,434,2,15,-215
78881603,0.2236328125,-0.14056396484375,-0.65484619140625,-0.7081298828125,10329,7125,465,2,13,-216
78891591,0.20684814453125,-0.1236572265625,-0.65814208984375,-0.71331787109375,9871,7295,495,1,9,-218
78901572,0.18951416015625,-0.10675048828125,-0.6611328125,-0.7181396484375,9495,7477,517,1,6,-222
78911554,0.17156982421875,-0.08978271484375,-0.6636962890625,-0.7225341796875,9139,7666,519,0,4,-226
78921542,0.15325927734375,-0.07293701171875,-0.66595458984375,-0.7264404296875,8773,7794,507,0,1,-227
78931518,0.134521484375,-0.0560302734375,-0.66790771484375,-0.72991943359375,8340,7864,474,1,-1,-229
78941498,0.1151123046875,-0.03887939453125,-0.66943359375,-0.73297119140625,7840,7854,468,1,-3,-234
78951480,0.09490966796875,-0.0211181640625,-0.67047119140625,-0.735595703125,7313,7820,450,1,-3,-242
78961464,0.07391357421875,-0.0029296875,-0.67108154296875,-0.73773193359375,6794,7792,440,0,-4,-248
78971448,0.0523681640625,0.0157470703125,-0.671142578125,-0.7393798828125,6284,7712,439,0,-5,-253
78981436,0.03045654296875,0.0345458984375,-0.670654296875,-0.74041748046875,5774,7575,395,0,-5,-256
78991418,0.0084228515625,0.0535888671875,-0.66961669921875,-0.74078369140625,5214,7353,377,1,-5,-256
79001400,-0.01385498046875,0.0728759765625,-0.66790771484375,-0.7406005859375,4643,7079,400,1,-4,-258
79011377,-0.0361328125,0.09228515625,-0.6656494140625,-0.73968505859375,4110,6803,400,1,-3,-258
79021361,-0.0582275390625,0.11175537109375,-0.662841796875,-0.7381591796875,3617,6530,415,1,-1,-257
79031350,-0.08013916015625,0.131103515625,-0.659423828125,-0.7359619140625,3221,6318,439,1,0,-256
79041328,-0.10150146484375,0.150146484375,-0.65545654296875,-0.73321533203125,2890,6171,427,0,1,-252
79051312,-0.12176513671875,0.168701171875,-0.65118408203125,-0.72991943359375,2582,6036,384,0,5,-243
79061293,-0.14056396484375,0.18646240234375,-0.64654541015625,-0.726318359375,2287,5878,356,-2,8,-230
79071273,-0.15777587890625,0.203369140625,-0.64178466796875,-0.72247314453125,1913,5683,356,-3,11,-215
79081257,-0.17364501953125,0.21954345703125,-0.63671875,-0.718505859375,1458,5438,378,-5,13,-202
79091240,-0.18865966796875,0.23529052734375,-0.63140869140625,-0.71441650390625,943,5191,397,-6,15,-194
79101232,-0.2032470703125,0.2506103515625,-0.625732421875,-0.71026611328125,407,4935,441,-8,14,-189
79111215,-0.217529296875,0.265380859375,-0.61968994140625,-0.7059326171875,-129,4688,485,-9,11,-184
79121194,-0.23162841796875,0.27960205078125,-0.61334228515625,-0.70147705078125,-683,4384,542,-8,8,-179
79131186,-0.2457275390625,0.2930908203125,-0.60675048828125,-0.69683837890625,-1210,4038,579,-8,4,-174
79141173,-0.2596435546875,0.3055419921875,-0.60015869140625,-0.69219970703125,-1641,3711,617,-5,-1,-166
79151143,-0.27301025390625,0.316650390625,-0.59375,-0.68756103515625,-1973,3449,598,-2,-6,-154
79161122,-0.2857666015625,0.32623291015625,-0.58782958984375,-0.6829833984375,-2244,3182,572,1,-11,-143
79171103,-0.2984619140625,0.3348388671875,-0.58209228515625,-0.67828369140625,-2506,2909,527,5,-15,-138
79181085,-0.31170654296875,0.3428955078125,-0.57623291015625,-0.6732177734375,-2725,2609,509,9,-20,-141
79191069,-0.32586669921875,0.3509521484375,-0.570068359375,-0.66766357421875,-2907,2280,491,12,-24,-149
79201051,-0.341064453125,0.35906982421875,-0.56341552734375,-0.66131591796875,-3062,1963,458,16,-27,-157
79211036,-0.3570556640625,0.3673095703125,-0.55633544921875,-0.654296875,-3201,1634,458,19,-30,-164
79221018,-0.37347412109375,0.37542724609375,-0.5489501953125,-0.64678955078125,-3317,1312,485,22,-31,-166
79231003,-0.3896484375,0.38299560546875,-0.54156494140625,-0.638916015625,-3429,989,515,23,-32,-161
79240992,-0.40509033203125,0.38983154296875,-0.53448486328125,-0.63116455078125,-3533,676,550,25,-31,-150
79250977,-0.41925048828125,0.3956298828125,-0.5279541015625,-0.62371826171875,-3616,379,599,26,-30,-134
79260950,-0.43182373046875,0.40008544921875,-0.5223388671875,-0.61700439453125,-3681,92,644,26,-28,-114
79270934,-0.44244384765625,0.4033203125,-0.51776123046875,-0.6112060546875,-3753,-204,690,26,-25,-91
79280917,-0.45135498046875,0.405517578125,-0.51409912109375,-0.60626220703125,-3834,-519,767,25,-22,-71
79290901,-0.458740234375,0.4071044921875,-0.51123046875,-0.60211181640625,-3959,-846,912,23,-18,-55
79300884,-0.46490478515625,0.4085693359375,-0.5086669921875,-0.59857177734375,-4073,-1073,1141,19,-13,-46
79310866,-0.47003173828125,0.4102783203125,-0.506103515625,-0.5955810546875,-4155,-1243,1445,11,-7,-42
79320855,-0.47393798828125,0.41259765625,-0.5032958984375,-0.59326171875,-4201,-1384,1792,0,1,-36
79330831,-0.47613525390625,0.41558837890625,-0.50030517578125,-0.5919189453125,-4238,-1533,2107,-13,8,-25
79340812,-0.47625732421875,0.41900634765625,-0.49761962890625,-0.5916748046875,-4378,-1755,2295,-25,15,-9
79350797,-0.47406005859375,0.42236328125,-0.4954833984375,-0.59283447265625,-4614,-2044,2325,-35,21,12
79360784,-0.46978759765625,0.42529296875,-0.4942626953125,-0.59515380859375,-4928,-2342,2252,-40,24,35
79370768,-0.4635009765625,0.4273681640625,-0.494140625,-0.59869384765625,-5231,-2604,2114,-42,27,57
79380752,-0.4554443359375,0.4283447265625,-0.49530029296875,-0.60321044921875,-5449,-2758,1940,-42,28,78
79390732,-0.44586181640625,0.42822265625,-0.49755859375,-0.60858154296875,-5565,-2829,1774,-41,30,97
79400710,-0.434814453125,0.42706298828125,-0.50091552734375,-0.61456298828125,-5590,-2826,1613,-40,32,114
79410693,-0.42236328125,0.4249267578125,-0.50537109375,-0.62103271484375,-5552,-2786,1449,-37,35,129
79420678,-0.40869140625,0.42181396484375,-0.5108642578125,-0.6278076171875,-5480,-2686,1326,-34,37,144
79430660,-0.3939208984375,0.41766357421875,-0.51727294921875,-0.634765625,-5407,-2522,1222,-31,39,156
79440647,-0.3780517578125,0.41253662109375,-0.5245361328125,-0.6417236328125,-5355,-2322,1147,-27,41,168
79450635,-0.36138916015625,0.4063720703125,-0.53253173828125,-0.64862060546875,-5307,-2063,1089,-22,41,178
79460614,-0.34405517578125,0.39923095703125,-0.54107666015625,-0.6553955078125,-5243,-1763,1039,-18,41,186
79470597,-0.326171875,0.39111328125,-0.54998779296875,-0.6619873046875,-5173,-1441,1023,-15,40,192
79480579,-0.30792236328125,0.38214111328125,-0.55908203125,-0.6683349609375,-5099,-1121,1021,-12,38,197
79490563,-0.2894287109375,0.3721923828125,-0.568115234375,-0.67449951171875,-5028,-807,1048,-9,34,202
79500545,-0.270751953125,0.3612060546875,-0.57720947265625,-0.6805419921875,-4896,-476,1097,-6,30,207
79510529,-0.251708984375,0.348876953125,-0.58642578125,-0.6864013671875,-4661,-131,1130,-3,25,215
79520513,-0.232177734375,0.33502197265625,-0.59576416015625,-0.692138671875,-4366,248,1134,1,20,223
79530494,-0.212158203125,0.31964111328125,-0.60516357421875,-0.6976318359375,-4034,676,1118,4,14,230
79540477,-0.1920166015625,0.3031005859375,-0.61431884765625,-0.70281982421875,-3681,1150,1107,5,7,234
79550460,-0.17205810546875,0.2855224609375,-0.623046875,-0.7076416015625,-3185,1647,1059,6,1,232
79560436,-0.1519775390625,0.2669677734375,-0.63140869140625,-0.7120361328125,-2479,2246,909,7,-4,233
79570426,-0.13116455078125,0.246826171875,-0.639892578125,-0.71588134765625,-1673,2881,712,9,-8,243
79580408,-0.10919189453125,0.224853515625,-0.64849853515625,-0.71905517578125,-953,3411,530,12,-12,256
79590391,-0.086669921875,0.20166015625,-0.65679931640625,-0.721435546875,-468,3799,405,15,-15,262
79600369,-0.0650634765625,0.17852783203125,-0.664306640625,-0.72296142578125,-165,4073,363,16,-18,253
79610351,-0.04534912109375,0.156494140625,-0.67059326171875,-0.7237548828125,349,4414,325,15,-22,230
79620335,-0.02734375,0.1353759765625,-0.6759033203125,-0.72393798828125,1159,5022,155,12,-25,209
79630317,-0.010009765625,0.1146240234375,-0.68048095703125,-0.7237548828125,2191,5768,-85,9,-27,199
79640299,0.00787353515625,0.09332275390625,-0.6845703125,-0.72296142578125,3341,6398,-422,7,-25,202
79650281,0.02728271484375,0.07080078125,-0.6883544921875,-0.721435546875,4356,6762,-747,7,-23,218
79660264,0.04840087890625,0.04693603515625,-0.6917724609375,-0.718994140625,4987,6930,-927,9,-20,239
79670246,0.0709228515625,0.02197265625,-0.694580078125,-0.71563720703125,5234,6930,-942,11,-18,256
79680237,0.0936279296875,-0.00311279296875,-0.69647216796875,-0.7115478515625,5281,6819,-819,12,-18,259
79690222,0.115478515625,-0.02734375,-0.6973876953125,-0.70684814453125,5530,6754,-654,11,-17,248
79700205,0.1365966796875,-0.0511474609375,-0.69744873046875,-0.70172119140625,6296,6991,-644,9,-18,240
79710194,0.1578369140625,-0.07513427734375,-0.69671630859375,-0.69573974609375,7323,7364,-751,8,-17,241
79720176,0.18017578125,-0.0999755859375,-0.6951904296875,-0.688720703125,8377,7595,-951,7,-14,254
79730159,0.20379638671875,-0.12579345703125,-0.69268798828125,-0.680419921875,9184,7633,-1065,9,-11,270
79740129,0.228271484375,-0.15179443359375,-0.68902587890625,-0.67095947265625,9540,7544,-1034,11,-7,281
79750111,0.25225830078125,-0.1767578125,-0.68438720703125,-0.66094970703125,9492,7300,-861,12,-4,277
79760095,0.27435302734375,-0.199462890625,-0.67913818359375,-0.6510009765625,9356,6962,-565,11,-3,256
79770077,0.29425048828125,-0.2198486328125,-0.67352294921875,-0.64154052734375,9724,6686,-336,10,-2,229
79780061,0.3123779296875,-0.238525390625,-0.66778564453125,-0.6322021484375,10538,6635,-324,8,-2,210
79790050,0.329345703125,-0.25592041015625,-0.661865234375,-0.6229248046875,11295,6636,-366,7,1,200
79800026,0.3458251953125,-0.2724609375,-0.655517578125,-0.6136474609375,11918,6531,-434,6,4,196
79810009,0.3619384765625,-0.28826904296875,-0.64886474609375,-0.60406494140625,12307,6309,-505,7,7,194
79819996,0.37774658203125,-0.30322265625,-0.641845703125,-0.59454345703125,12376,6028,-482,8,10,190
79829982,0.392822265625,-0.31695556640625,-0.6346435546875,-0.58526611328125,12172,5743,-330,7,12,183
79839958,0.40692138671875,-0.3294677734375,-0.6273193359375,-0.5765380859375,11780,5432,-103,7,13,172
79849942,0.419921875,-0.3408203125,-0.6199951171875,-0.5684814453125,11347,5101,143,4,13,161
79859925,0.4320068359375,-0.351318359375,-0.6126708984375,-0.56097412109375,10941,4742,369,2,13,152
79869909,0.44329833984375,-0.36138916015625,-0.605224609375,-0.55377197265625,10600,4379,518,-1,12,147
79879888,0.4542236328125,-0.37164306640625,-0.5975341796875,-0.5465087890625,10443,4018,593,-4,10,149
79889877,0.46514892578125,-0.3824462890625,-0.58929443359375,-0.5386962890625,10511,3688,559,-6,10,157
79899855,0.4765625,-0.39434814453125,-0.5802001953125,-0.5299072265625,10805,3472,433,-8,8,173
79909837,0.4888916015625,-0.40771484375,-0.5699462890625,-0.51959228515625,11239,3325,264,-9,7,197
79919821,0.502197265625,-0.4229736328125,-0.55810546875,-0.5074462890625,11807,3210,104,-11,5,225
79929804,0.5164794921875,-0.43988037109375,-0.54449462890625,-0.4932861328125,12512,3102,-48,-13,4,253
79939788,0.5313720703125,-0.45794677734375,-0.529296875,-0.477294921875,13151,3001,-191,-14,2,276
79949773,0.54620361328125,-0.4766845703125,-0.51287841796875,-0.4598388671875,13584,2835,-367,-16,0,290
79959758,0.560302734375,-0.49505615234375,-0.495849609375,-0.44183349609375,13775,2598,-553,-16,0,289
79969742,0.57293701171875,-0.51220703125,-0.47906494140625,-0.4241943359375,13735,2358,-722,-17,0,274
79979720,0.58349609375,-0.52740478515625,-0.4635009765625,-0.40814208984375,13549,2177,-841,-18,0,246
79989702,0.59173583984375,-0.53997802734375,-0.449951171875,-0.394775390625,13285,2052,-845,-19,0,206
79999686,0.597412109375,-0.54974365234375,-0.43914794921875,-0.38482666015625,12975,1952,-751,-21,1,158
80009668,0.60040283203125,-0.55645751953125,-0.431640625,-0.37896728515625,12670,1908,-574,-22,1,104
80019652,0.60076904296875,-0.5601806640625,-0.42779541015625,-0.37725830078125,12386,1963,-374,-23,1,49
80029626,0.59869384765625,-0.56109619140625,-0.42742919921875,-0.37957763671875,12069,2152,-157,-24,1,0
80039612,0.59466552734375,-0.5596923828125,-0.42999267578125,-0.3851318359375,11717,2461,68,-25,1,-41
80049592,0.58905029296875,-0.556396484375,-0.4346923828125,-0.39312744140625,11334,2803,277,-24,1,-71
80059575,0.58233642578125,-0.5517578125,-0.44085693359375,-0.4027099609375,10999,3143,500,-24,1,-91
80072995,0.57501220703125,-0.5462646484375,-0.4476318359375,-0.4130859375,10749,3451,755,-24,1,-99
80079542,0.5677490234375,-0.54046630859375,-0.4542236328125,-0.4234619140625,10622,3706,1031,-23,2,-98
80089527,0.5609130859375,-0.5347900390625,-0.460205078125,-0.4332275390625,10573,3937,1261,-21,2,-88
80099509,0.55517578125,-0.52972412109375,-0.4649658203125,-0.44171142578125,10603,4149,1428,-19,4,-69
80109493,0.55078125,-0.525634765625,-0.4681396484375,-0.4486083984375,10665,4349,1514,-16,7,-46
80119476,0.5477294921875,-0.5225830078125,-0.46990966796875,-0.45404052734375,10742,4504,1511,-14,10,-25
80129458,0.5458984375,-0.5201416015625,-0.4705810546875,-0.45831298828125,10850,4605,1482,-12,13,-11
80139448,0.544677734375,-0.51788330078125,-0.470703125,-0.462158203125,10990,4612,1459,-11,15,-7
80149430,0.5435791015625,-0.51519775390625,-0.470947265625,-0.46624755859375,11208,4513,1449,-9,18,-14
80159414,0.54193115234375,-0.5115966796875,-0.47186279296875,-0.47119140625,11485,4335,1432,-7,20,-30
80169398,0.539306640625,-0.5067138671875,-0.47393798828125,-0.477294921875,11734,4140,1356,-6,22,-52
80179374,0.53521728515625,-0.50030517578125,-0.4775390625,-0.4849853515625,11991,3975,1235,-6,23,-79
80189358,0.52960205078125,-0.4923095703125,-0.48260498046875,-0.49432373046875,12272,3845,1125,-5,24,-106
80199341,0.5220947265625,-0.4825439453125,-0.4891357421875,-0.50531005859375,12575,3719,1066,-6,25,-136
80209327,0.5128173828125,-0.47100830078125,-0.49700927734375,-0.51788330078125,12932,3582,1060,-6,25,-165
80219309,0.50164794921875,-0.457763671875,-0.50604248046875,-0.53179931640625,13325,3456,1070,-7,25,-193
80229292,0.48858642578125,-0.44287109375,-0.51593017578125,-0.5467529296875,13713,3360,1037,-8,26,-217
80239276,0.47406005859375,-0.42669677734375,-0.5263671875,-0.56231689453125,14076,3307,948,-8,27,-235
80249258,0.45855712890625,-0.4095458984375,-0.53680419921875,-0.577880859375,14408,3341,789,-8,29,-245
80259238,0.44268798828125,-0.3919677734375,-0.54681396484375,-0.5928955078125,14676,3425,660,-7,30,-246
80269230,0.4268798828125,-0.37432861328125,-0.55596923828125,-0.60711669921875,14859,3548,599,-8,31,-242
80279212,0.41131591796875,-0.35687255859375,-0.5643310546875,-0.62054443359375,15004,3658,577,-8,32,-237
80289191,0.3961181640625,-0.339599609375,-0.57183837890625,-0.63311767578125,15082,3780,564,-8,33,-232
80299182,0.381103515625,-0.32257080078125,-0.57867431640625,-0.6448974609375,15074,3894,515,-8,34,-228
80309165,0.36627197265625,-0.30572509765625,-0.58502197265625,-0.6558837890625,14977,3997,445,-7,34,-225
80319143,0.3515625,-0.28900146484375,-0.5908203125,-0.66619873046875,14761,4130,378,-7,34,-223
80329120,0.3369140625,-0.27227783203125,-0.59625244140625,-0.67596435546875,14437,4289,368,-7,34,-220
80339103,0.32208251953125,-0.25543212890625,-0.6011962890625,-0.685302734375,14031,4473,404,-7,33,-221
80349086,0.3065185546875,-0.23809814453125,-0.60589599609375,-0.6944580078125,13490,4651,478,-8,32,-228
80359069,0.28973388671875,-0.219970703125,-0.6104736328125,-0.70361328125,12949,4813,523,-9,30,-240
80369053,0.2713623046875,-0.20111083984375,-0.61480712890625,-0.71270751953125,12416,5011,562,-11,28,-252
80379035,0.25177001953125,-0.18157958984375,-0.618896484375,-0.7215576171875,11865,5209,583,-12,25,-261
80389016,0.23138427734375,-0.161865234375,-0.62249755859375,-0.72998046875,11290,5388,565,-14,22,-263
80399000,0.21075439453125,-0.14251708984375,-0.62542724609375,-0.73773193359375,10707,5553,571,-16,19,-260
80408988,0.1904296875,-0.1239013671875,-0.627685546875,-0.74462890625,10129,5689,551,-17,16,-250
80418964,0.17047119140625,-0.106201171875,-0.6292724609375,-0.7508544921875,9520,5791,538,-18,13,-242
80428948,0.1507568359375,-0.089111328125,-0.63031005859375,-0.75640869140625,8902,5818,520,-19,10,-237
80438931,0.13079833984375,-0.07244873046875,-0.630859375,-0.76141357421875,8271,5803,510,-20,7,-235
80448915,0.1103515625,-0.05572509765625,-0.63079833984375,-0.76611328125,7730,5791,513,-22,4,-239
80458897,0.0894775390625,-0.0390625,-0.6302490234375,-0.770263671875,7278,5799,450,-23,3,-240
80468877,0.0687255859375,-0.0228271484375,-0.6292724609375,-0.77386474609375,6855,5770,382,-24,1,-235
80478860,0.04852294921875,-0.00714111328125,-0.62786865234375,-0.77679443359375,6406,5681,347,-24,0,-227
80488844,0.02899169921875,0.0078125,-0.62603759765625,-0.77923583984375,5907,5534,322,-23,-1,-219
80498823,0.00994873046875,0.02239990234375,-0.6239013671875,-0.7811279296875,5368,5359,355,-22,-2,-212
80508805,-0.00897216796875,0.03680419921875,-0.621337890625,-0.78265380859375,4822,5186,397,-22,-2,-210
80518790,-0.028076171875,0.05133056640625,-0.61834716796875,-0.7838134765625,4324,5017,453,-23,-2,-212
80528769,-0.04736328125,0.0660400390625,-0.61480712890625,-0.7845458984375,3932,4901,477,-24,-2,-213
80538761,-0.06634521484375,0.08056640625,-0.6109619140625,-0.7847900390625,3594,4783,466,-24,-1,-211
80548749,-0.0848388671875,0.09490966796875,-0.6068115234375,-0.78460693359375,3238,4555,483,-24,0,-206
80558721,-0.1029052734375,0.10906982421875,-0.6024169921875,-0.78399658203125,2835,4248,523,-22,1,-201
80568705,-0.12054443359375,0.12310791015625,-0.59796142578125,-0.7828369140625,2438,3944,587,-20,2,-196
80578687,-0.1376953125,0.1368408203125,-0.59344482421875,-0.78118896484375,2041,3618,658,-17,3,-191
80588670,-0.15472412109375,0.15045166015625,-0.58880615234375,-0.77899169921875,1620,3272,738,-15,4,-190
80598654,-0.17193603515625,0.16436767578125,-0.58392333984375,-0.7762451171875,1190,2950,838,-13,5,-192
80608636,-0.1895751953125,0.1785888671875,-0.57867431640625,-0.77288818359375,775,2669,928,-12,5,-197
80618621,-0.2073974609375,0.19293212890625,-0.57318115234375,-0.76898193359375,409,2465,988,-11,5,-198
80628605,-0.224853515625,0.20697021484375,-0.56756591796875,-0.7645263671875,128,2285,1032,-9,6,-193
80638587,-0.2413330078125,0.2203369140625,-0.56207275390625,-0.7598876953125,-120,2091,1075,-8,6,-184
80648571,-0.25665283203125,0.2327880859375,-0.55682373046875,-0.7550048828125,-405,1898,1113,-5,7,-170
80658554,-0.27056884765625,0.24432373046875,-0.5518798828125,-0.75006103515625,-703,1678,1170,-4,8,-155
80668536,-0.2830810546875,0.25494384765625,-0.54730224609375,-0.7452392578125,-1047,1454,1258,-3,10,-140
80678515,-0.29437255859375,0.26483154296875,-0.54290771484375,-0.7406005859375,-1440,1223,1378,-2,11,-127
80688500,-0.3045654296875,0.2740478515625,-0.538818359375,-0.73614501953125,-1869,1008,1480,-2,12,-114
80698485,-0.31353759765625,0.28253173828125,-0.53497314453125,-0.73193359375,-2304,803,1550,-2,13,-100
80708475,-0.321044921875,0.290283203125,-0.53155517578125,-0.7281494140625,-2714,600,1597,-3,15,-86
80718458,-0.3272705078125,0.29730224609375,-0.52850341796875,-0.7247314453125,-3137,352,1667,-4,16,-71
80728437,-0.33245849609375,0.303955078125,-0.52569580078125,-0.7216796875,-3616,85,1735,-5,18,-61
80738429,-0.33721923828125,0.310546875,-0.5228271484375,-0.71875,-4116,-215,1797,-6,19,-58
80748411,-0.3419189453125,0.3175048828125,-0.51971435546875,-0.71575927734375,-4604,-539,1864,-8,20,-59
80758396,-0.3468017578125,0.32476806640625,-0.5162353515625,-0.712646484375,-5036,-838,1921,-10,20,-61
80768370,-0.3515625,0.33221435546875,-0.51251220703125,-0.70953369140625,-5432,-1124,1975,-12,21,-60
80778356,-0.355712890625,0.339599609375,-0.5087890625,-0.70660400390625,-5814,-1406,2023,-14,23,-53
80788338,-0.3587646484375,0.34637451171875,-0.50543212890625,-0.7042236328125,-6155,-1693,2061,-15,23,-38
80798319,-0.3599853515625,0.35198974609375,-0.50274658203125,-0.70269775390625,-6413,-1956,2074,-16,24,-16
80808306,-0.35906982421875,0.3560791015625,-0.50128173828125,-0.70220947265625,-6629,-2162,2049,-15,24,11
80818282,-0.35595703125,0.35845947265625,-0.50103759765625,-0.7027587890625,-6775,-2300,2009,-14,23,37
80828266,-0.35089111328125,0.35919189453125,-0.50201416015625,-0.7042236328125,-6836,-2362,1951,-12,23,60
80838255,-0.34393310546875,0.3582763671875,-0.50421142578125,-0.70654296875,-6824,-2368,1889,-9,22,83
80848238,-0.33526611328125,0.3558349609375,-0.507568359375,-0.70953369140625,-6738,-2305,1855,-6,22,103
80858222,-0.32501220703125,0.35186767578125,-0.51202392578125,-0.71307373046875,-6608,-2180,1827,-2,21,122
80868205,-0.3133544921875,0.34637451171875,-0.5174560546875,-0.717041015625,-6442,-2013,1824,2,19,139
80878193,-0.3006591796875,0.339599609375,-0.523681640625,-0.72119140625,-6282,-1813,1854,6,18,151
80888176,-0.287353515625,0.331787109375,-0.5303955078125,-0.72528076171875,-6095,-1560,1875,10,16,159
80898159,-0.2735595703125,0.322998046875,-0.53753662109375,-0.7293701171875,-5881,-1266,1920,13,14,165
80908128,-0.25946044921875,0.313232421875,-0.54498291015625,-0.7332763671875,-5647,-931,1945,17,11,170
80918110,-0.2451171875,0.30255126953125,-0.55255126953125,-0.73699951171875,-5411,-591,1979,20,6,174
80928094,-0.2308349609375,0.291015625,-0.56005859375,-0.74053955078125,-5198,-259,2028,22,2,176
80938073,-0.21649169921875,0.27862548828125,-0.5675048828125,-0.74395751953125,-4950,98,2049,24,-3,178
80948053,-0.20245361328125,0.26544189453125,-0.57476806640625,-0.74713134765625,-4668,452,2072,26,-9,178
80958036,-0.18878173828125,0.2515869140625,-0.581787109375,-0.7501220703125,-4343,808,2085,27,-15,175
80968020,-0.17572021484375,0.23724365234375,-0.58843994140625,-0.75274658203125,-3977,1185,2082,28,-21,170
80978002,-0.1632080078125,0.222412109375,-0.5946044921875,-0.7552490234375,-3525,1596,2034,27,-27,166
80987991,-0.1510009765625,0.20709228515625,-0.60052490234375,-0.7574462890625,-2960,2017,1934,27,-31,164
80997974,-0.13848876953125,0.1910400390625,-0.60626220703125,-0.75946044921875,-2342,2439,1796,26,-33,166
81007950,-0.12530517578125,0.17401123046875,-0.61199951171875,-0.76129150390625,-1649,2883,1625,26,-36,173
81017932,-0.11114501953125,0.1558837890625,-0.61773681640625,-0.7628173828125,-983,3318,1443,27,-37,182
81027915,-0.09619140625,0.13690185546875,-0.623291015625,-0.763916015625,-462,3663,1357,27,-39,189
81037898,-0.0811767578125,0.11761474609375,-0.62835693359375,-0.76470947265625,-18,3926,1313,26,-40,189
81047882,-0.06646728515625,0.098388671875,-0.63287353515625,-0.76513671875,584,4229,1205,24,-41,183
81057864,-0.0516357421875,0.07891845703125,-0.63702392578125,-0.76507568359375,1385,4618,986,23,-40,182
81067847,-0.0357666015625,0.05889892578125,-0.6409912109375,-0.76446533203125,2296,4953,707,22,-38,189
81077831,-0.01812744140625,0.03765869140625,-0.6448974609375,-0.76318359375,3238,5236,406,24,-35,204
81087813,0.0015869140625,0.01519775390625,-0.64862060546875,-0.760986328125,4044,5469,170,27,-31,222
81097796,0.02276611328125,-0.008056640625,-0.6519775390625,-0.7579345703125,4592,5593,49,29,-29,234
81107784,0.04412841796875,-0.0311279296875,-0.6546630859375,-0.7540283203125,4973,5655,42,31,-27,234
81117769,0.06494140625,-0.053466796875,-0.65667724609375,-0.74951171875,5549,5732,-3,30,-25,225
81127754,0.0853271484375,-0.07525634765625,-0.658203125,-0.7442626953125,6450,5980,-232,29,-23,216
81137738,0.10595703125,-0.09698486328125,-0.6591796875,-0.7381591796875,7590,6288,-514,29,-20,217
81147714,0.12762451171875,-0.1192626953125,-0.6595458984375,-0.73114013671875,8735,6555,-823,29,-16,226
81157696,0.150634765625,-0.14215087890625,-0.6590576171875,-0.72308349609375,9577,6720,-995,30,-13,240
81167682,0.17413330078125,-0.1649169921875,-0.6575927734375,-0.7142333984375,10011,6734,-1033,31,-10,247
81177665,0.1971435546875,-0.18670654296875,-0.6552734375,-0.7049560546875,10074,6598,-971,31,-8,241
81187647,0.21826171875,-0.20648193359375,-0.65252685546875,-0.69573974609375,10005,6390,-835,30,-7,222
81197635,0.23712158203125,-0.2239990234375,-0.64959716796875,-0.68682861328125,10184,6211,-799,28,-5,197
81207613,0.25396728515625,-0.2396240234375,-0.646728515625,-0.67816162109375,10577,6160,-878,26,-4,175
81217597,0.269287109375,-0.2537841796875,-0.64385986328125,-0.6697998046875,10926,6149,-933,24,-3,161
81227576,0.28363037109375,-0.266845703125,-0.640869140625,-0.66162109375,11060,6069,-922,23,-2,153
81237565,0.29718017578125,-0.27880859375,-0.63775634765625,-0.6536865234375,10927,5952,-834,23,0,146
81247543,0.30987548828125,-0.289794921875,-0.63446044921875,-0.64617919921875,10567,5802,-662,22,0,139
81257526,0.32159423828125,-0.2996826171875,-0.63116455078125,-0.63909912109375,10135,5603,-505,20,1,129
81267510,0.332275390625,-0.30877685546875,-0.6279296875,-0.63250732421875,9868,5454,-456,18,0,121
81277495,0.34228515625,-0.31768798828125,-0.624755859375,-0.6258544921875,9837,5462,-494,17,-1,119
81287472,0.35223388671875,-0.32696533203125,-0.6214599609375,-0.61883544921875,9877,5542,-538,17,-4,125
81297456,0.362548828125,-0.33685302734375,-0.6177978515625,-0.61114501953125,9875,5580,-555,17,-6,136
81307439,0.37335205078125,-0.34759521484375,-0.61358642578125,-0.602783203125,9816,5543,-531,18,-9,147
81317430,0.3843994140625,-0.35888671875,-0.60894775390625,-0.5938720703125,9653,5477,-466,18,-11,154
81327411,0.39532470703125,-0.37030029296875,-0.60394287109375,-0.584716796875,9432,5390,-364,16,-13,157
81337397,0.40570068359375,-0.38165283203125,-0.5987548828125,-0.5755615234375,9310,5267,-239,15,-15,154
81347373,0.4154052734375,-0.39263916015625,-0.593505859375,-0.566650390625,9407,5183,-143,12,-17,149
81357354,0.4244384765625,-0.40338134765625,-0.58819580078125,-0.55792236328125,9588,5124,-84,10,-18,145
81367337,0.43280029296875,-0.413818359375,-0.58282470703125,-0.54937744140625,9848,5055,-95,7,-18,141
81377320,0.4405517578125,-0.42401123046875,-0.57745361328125,-0.54107666015625,10103,4989,-143,5,-19,137
81387303,0.4478759765625,-0.43389892578125,-0.57196044921875,-0.53302001953125,10314,4873,-178,3,-18,134
81397283,0.454833984375,-0.44354248046875,-0.56622314453125,-0.52520751953125,10484,4688,-199,0,-17,131
81407266,0.46136474609375,-0.45269775390625,-0.5604248046875,-0.517822265625,10642,4455,-227,-2,-15,126
81417245,0.46746826171875,-0.4615478515625,-0.55450439453125,-0.51092529296875,10882,4229,-279,-5,-13,120
81427236,0.47320556640625,-0.46990966796875,-0.54852294921875,-0.50439453125,11212,4011,-345,-6,-11,116
81437219,0.4786376953125,-0.47802734375,-0.54248046875,-0.49822998046875,11536,3809,-454,-8,-9,114
81447205,0.48394775390625,-0.48583984375,-0.5362548828125,-0.4921875,11792,3613,-590,-9,-6,112
81457190,0.4891357421875,-0.4932861328125,-0.52996826171875,-0.4864501953125,11922,3404,-707,-9,-3,110
81467177,0.4942626953125,-0.50030517578125,-0.52349853515625,-0.4810791015625,11958,3223,-730,-10,0,107
81477155,0.49932861328125,-0.5067138671875,-0.5169677734375,-0.47613525390625,11860,3088,-672,-10,3,103
81487124,0.504150390625,-0.51251220703125,-0.5106201171875,-0.47174072265625,11635,3002,-604,-10,6,98
81497108,0.50860595703125,-0.517578125,-0.5045166015625,-0.4678955078125,11333,2936,-553,-10,8,90
81507091,0.51263427734375,-0.52203369140625,-0.498779296875,-0.46478271484375,11071,2867,-511,-11,10,81
81517073,0.51605224609375,-0.52581787109375,-0.49346923828125,-0.46234130859375,10909,2795,-467,-12,11,72
81527058,0.51898193359375,-0.52899169921875,-0.48858642578125,-0.46063232421875,10795,2735,-437,-13,13,63
81537038,0.52142333984375,-0.53155517578125,-0.48406982421875,-0.45965576171875,10680,2647,-360,-14,15,54
81547023,0.52349853515625,-0.53350830078125,-0.4798583984375,-0.45947265625,10548,2530,-241,-15,17,45
81557003,0.52520751953125,-0.5347900390625,-0.4759521484375,-0.4600830078125,10432,2363,-101,-16,20,36
81566992,0.52655029296875,-0.5355224609375,-0.4722900390625,-0.46148681640625,10363,2152,70,-18,22,27
81576974,0.527587890625,-0.53582763671875,-0.46868896484375,-0.46356201171875,10301,1887,212,-19,25,20
81586952,0.52850341796875,-0.53582763671875,-0.46514892578125,-0.46612548828125,10243,1606,309,-21,28,15
81596935,0.52923583984375,-0.53570556640625,-0.46142578125,-0.4691162109375,10158,1363,355,-23,30,13
81606919,0.52996826171875,-0.53558349609375,-0.45745849609375,-0.47222900390625,10016,1175,392,-25,33,13
81616901,0.53082275390625,-0.53564453125,-0.45318603515625,-0.4754638671875,9826,1040,431,-27,34,17
81626885,0.5318603515625,-0.53594970703125,-0.44830322265625,-0.47845458984375,9612,893,441,-28,36,22
81636869,0.533203125,-0.53668212890625,-0.44287109375,-0.481201171875,9462,699,450,-30,37,27
81646852,0.53497314453125,-0.537841796875,-0.43682861328125,-0.4835205078125,9396,433,402,-31,38,34
81656835,0.53704833984375,-0.53936767578125,-0.43011474609375,-0.48541259765625,9356,157,328,-32,40,40
81666815,0.53948974609375,-0.54132080078125,-0.4229736328125,-0.4869384765625,9293,-87,278,-32,40,45
81676800,0.5421142578125,-0.54339599609375,-0.4154052734375,-0.4881591796875,9162,-262,248,-32,41,49
81686784,0.5447998046875,-0.5455322265625,-0.40771484375,-0.4892578125,8942,-383,254,-33,41,51
81696770,0.54736328125,-0.54766845703125,-0.39996337890625,-0.490478515625,8705,-503,276,-33,41,49
81706756,0.5496826171875,-0.54962158203125,-0.39239501953125,-0.4918212890625,8490,-665,304,-34,40,45
81716738,0.55157470703125,-0.5513916015625,-0.38507080078125,-0.49346923828125,8322,-842,322,-35,40,39
81726719,0.552978515625,-0.5528564453125,-0.37823486328125,-0.49554443359375,8154,-996,349,-35,40,31
81736702,0.5538330078125,-0.55401611328125,-0.371826171875,-0.49810791015625,7980,-1106,401,-36,39,24
81746684,0.55413818359375,-0.554931640625,-0.365966796875,-0.5010986328125,7785,-1181,468,-37,38,17
81756669,0.553955078125,-0.5556640625,-0.36053466796875,-0.50445556640625,7597,-1259,532,-37,36,10
81766652,0.55328369140625,-0.55621337890625,-0.35552978515625,-0.50811767578125,7461,-1337,597,-38,35,5
81776635,0.55224609375,-0.5567626953125,-0.350830078125,-0.5118408203125,7386,-1448,640,-38,33,1
81786614,0.55084228515625,-0.557373046875,-0.34649658203125,-0.515625,7371,-1579,677,-38,30,-2
81796593,0.54925537109375,-0.55804443359375,-0.3424072265625,-0.51934814453125,7368,-1730,709,-38,28,-5
81806575,0.5474853515625,-0.5587158203125,-0.338623046875,-0.52301025390625,7319,-1886,757,-38,26,-7
81816562,0.5455322265625,-0.55938720703125,-0.3350830078125,-0.5264892578125,7223,-2041,829,-36,23,-9
81826545,0.5435791015625,-0.56011962890625,-0.3319091796875,-0.52978515625,7096,-2192,909,-35,19,-10
81836527,0.54150390625,-0.56097412109375,-0.3291015625,-0.53277587890625,7001,-2334,966,-33,15,-11
81846509,0.53955078125,-0.56182861328125,-0.32672119140625,-0.53533935546875,6962,-2469,990,-30,12,-10
81856494,0.53765869140625,-0.5628662109375,-0.32464599609375,-0.537353515625,6947,-2603,1012,-27,8,-9
81866476,0.5360107421875,-0.56402587890625,-0.32293701171875,-0.53875732421875,6956,-2728,1046,-23,3,-6
81876458,0.5347900390625,-0.56524658203125,-0.32159423828125,-0.53955078125,6961,-2828,1118,-18,-1,-4
81886433,0.53387451171875,-0.56646728515625,-0.32061767578125,-0.53973388671875,6975,-2883,1197,-13,-5,-1
81896430,0.5333251953125,-0.567626953125,-0.320068359375,-0.5394287109375,7030,-2928,1307,-9,-9,0
81906410,0.532958984375,-0.56866455078125,-0.3199462890625,-0.5386962890625,7127,-2985,1420,-4,-12,0
81916397,0.5328369140625,-0.56951904296875,-0.3204345703125,-0.53765869140625,7257,-3052,1514,1,-15,-1
81926368,0.5328369140625,-0.57012939453125,-0.321533203125,-0.536376953125,7375,-3114,1587,6,-17,-4
81936351,0.532958984375,-0.5703125,-0.32330322265625,-0.5350341796875,7497,-3146,1664,12,-18,-7
81946332,0.5330810546875,-0.570068359375,-0.32574462890625,-0.53363037109375,7608,-3158,1721,17,-19,-11
81956315,0.53338623046875,-0.56939697265625,-0.32879638671875,-0.53216552734375,7702,-3119,1755,22,-20,-13
81966298,0.53387451171875,-0.56829833984375,-0.3323974609375,-0.5306396484375,7803,-3049,1729,27,-20,-15
