subject,Joshua Spiesman
arm,right
label,0
hz,100.17739231239516
time,4.851394

timestamp_us,q0,q1,q2,q3,ax,ay,az,gx,gy,gz
193457975,0.61236572265625,0.02972412109375,0.73419189453125,-0.29156494140625,-7321,-2976,-586,-7,-3,4
193467956,0.6129150390625,0.02960205078125,0.734130859375,-0.29052734375,-7336,-2967,-602,-7,-4,5
193477939,0.61346435546875,0.029541015625,0.734130859375,-0.2894287109375,-7382,-2971,-609,-7,-4,6
193487923,0.614013671875,0.029541015625,0.734130859375,-0.2882080078125,-7438,-2981,-634,-8,-4,6
193497905,0.6146240234375,0.0294189453125,0.734130859375,-0.287109375,-7494,-2972,-652,-8,-4,5
193507886,0.61517333984375,0.029296875,0.73406982421875,-0.28594970703125,-7544,-2969,-664,-8,-5,5
193517870,0.61578369140625,0.02899169921875,0.7340087890625,-0.284912109375,-7586,-2959,-682,-8,-5,3
193527851,0.6163330078125,0.02862548828125,0.73388671875,-0.28399658203125,-7631,-2943,-677,-8,-5,2
193537834,0.61688232421875,0.02801513671875,0.7337646484375,-0.28314208984375,-7689,-2943,-686,-8,-6,0
193547819,0.61737060546875,0.02728271484375,0.733642578125,-0.28240966796875,-7731,-2942,-695,-8,-6,-2
193557803,0.61785888671875,0.0263671875,0.7335205078125,-0.28179931640625,-7780,-2947,-695,-9,-6,-3
193567787,0.618408203125,0.02532958984375,0.73333740234375,-0.28118896484375,-7821,-2948,-707,-9,-7,-4
193577768,0.61895751953125,0.0242919921875,0.733154296875,-0.28057861328125,-7832,-2940,-702,-9,-8,-4
193587742,0.61956787109375,0.023193359375,0.73291015625,-0.27996826171875,-7837,-2928,-679,-9,-8,-3
193597726,0.62017822265625,0.02215576171875,0.732666015625,-0.27923583984375,-7827,-2926,-671,-9,-8,-2
193607707,0.6209716796875,0.02130126953125,0.732421875,-0.2783203125,-7811,-2901,-669,-10,-8,-1
193617694,0.62176513671875,0.0205078125,0.732177734375,-0.27728271484375,-7796,-2862,-664,-10,-8,1
193627675,0.62261962890625,0.01983642578125,0.73193359375,-0.2760009765625,-7766,-2835,-654,-11,-8,3
193637657,0.62353515625,0.019287109375,0.731689453125,-0.27459716796875,-7734,-2801,-641,-12,-8,5
193647638,0.62451171875,0.01885986328125,0.73150634765625,-0.27294921875,-7709,-2770,-632,-12,-8,6
193657620,0.62548828125,0.0185546875,0.7313232421875,-0.27117919921875,-7679,-2744,-617,-13,-8,8
193667602,0.62652587890625,0.01824951171875,0.73114013671875,-0.26922607421875,-7667,-2731,-599,-13,-8,9
193677586,0.62750244140625,0.01800537109375,0.73101806640625,-0.2672119140625,-7668,-2726,-596,-14,-7,9
193687566,0.62847900390625,0.0177001953125,0.73101806640625,-0.26507568359375,-7660,-2708,-589,-15,-7,9
193697550,0.62939453125,0.01727294921875,0.73101806640625,-0.26300048828125,-7644,-2705,-572,-16,-6,8
193707533,0.630126953125,0.01666259765625,0.7310791015625,-0.26092529296875,-7647,-2684,-561,-16,-6,6
193717515,0.63079833984375,0.01580810546875,0.731201171875,-0.259033203125,-7668,-2667,-554,-17,-5,4
193727499,0.63128662109375,0.01470947265625,0.7314453125,-0.25726318359375,-7688,-2663,-562,-17,-4,1
193737485,0.63165283203125,0.0133056640625,0.73175048828125,-0.25567626953125,-7700,-2676,-574,-18,-4,-1
193747467,0.6318359375,0.01171875,0.7320556640625,-0.2542724609375,-7707,-2689,-576,-18,-3,-4
193757450,0.6319580078125,0.00994873046875,0.73248291015625,-0.2529296875,-7717,-2698,-578,-18,-2,-5
193767434,0.6319580078125,0.00811767578125,0.73291015625,-0.2515869140625,-7733,-2716,-590,-19,-2,-6
193777409,0.63189697265625,0.00628662109375,0.7333984375,-0.2503662109375,-7745,-2739,-599,-19,-1,-6
193787391,0.6318359375,0.00445556640625,0.73394775390625,-0.2490234375,-7764,-2761,-611,-19,-1,-5
193797375,0.63177490234375,0.00274658203125,0.7344970703125,-0.2476806640625,-7777,-2787,-608,-18,-1,-5
193807356,0.6317138671875,0.00103759765625,0.7349853515625,-0.24627685546875,-7801,-2812,-615,-18,-1,-4
193817339,0.6317138671875,-0.00048828125,0.7354736328125,-0.24481201171875,-7824,-2833,-629,-18,-1,-3
193827327,0.6317138671875,-0.00201416015625,0.7359619140625,-0.243408203125,-7851,-2872,-627,-18,-1,-3
193837302,0.6317138671875,-0.00347900390625,0.73638916015625,-0.241943359375,-7876,-2907,-643,-17,-1,-2
193847290,0.63177490234375,-0.00482177734375,0.73681640625,-0.24053955078125,-7912,-2934,-659,-17,-1,-2
193857273,0.6318359375,-0.00616455078125,0.7371826171875,-0.23919677734375,-7952,-2948,-668,-16,-2,-2
193867255,0.63189697265625,-0.00750732421875,0.737548828125,-0.23797607421875,-7976,-2949,-688,-15,-2,-3
193877240,0.6319580078125,-0.009033203125,0.73779296875,-0.2369384765625,-8000,-2935,-716,-15,-2,-5
193887225,0.6319580078125,-0.0106201171875,0.738037109375,-0.23602294921875,-8011,-2939,-729,-14,-3,-7
193897209,0.63201904296875,-0.01239013671875,0.7381591796875,-0.23541259765625,-8031,-2940,-741,-13,-4,-9
193907191,0.63214111328125,-0.01416015625,0.73822021484375,-0.23492431640625,-8043,-2953,-753,-13,-4,-9
193917160,0.63226318359375,-0.0159912109375,0.73822021484375,-0.2344970703125,-8021,-2959,-760,-12,-5,-10
193927144,0.63250732421875,-0.0177001953125,0.73809814453125,-0.234130859375,-8015,-2977,-755,-11,-6,-9
193937125,0.6328125,-0.019287109375,0.73785400390625,-0.2337646484375,-8003,-2983,-745,-10,-7,-8
193947107,0.63323974609375,-0.02069091796875,0.73760986328125,-0.2333984375,-7992,-2997,-741,-9,-7,-7
193957091,0.63372802734375,-0.02203369140625,0.73724365234375,-0.2330322265625,-7995,-2998,-732,-9,-8,-6
193967072,0.63427734375,-0.0233154296875,0.73687744140625,-0.232666015625,-7978,-2982,-740,-8,-8,-6
193977055,0.63482666015625,-0.02447509765625,0.73638916015625,-0.23236083984375,-7955,-2975,-734,-7,-9,-6
193987037,0.635498046875,-0.02569580078125,0.73590087890625,-0.23211669921875,-7924,-2959,-722,-7,-9,-6
193997025,0.6361083984375,-0.02679443359375,0.73541259765625,-0.23187255859375,-7894,-2938,-711,-6,-9,-6
194007001,0.63671875,-0.02789306640625,0.73486328125,-0.231689453125,-7879,-2936,-698,-6,-9,-6
194016983,0.63739013671875,-0.02899169921875,0.73431396484375,-0.2315673828125,-7870,-2935,-681,-5,-9,-7
194026968,0.637939453125,-0.03009033203125,0.7337646484375,-0.23162841796875,-7865,-2935,-677,-5,-9,-7
194036948,0.63848876953125,-0.03125,0.73321533203125,-0.231689453125,-7856,-2942,-674,-4,-9,-8
194046930,0.63897705078125,-0.03240966796875,0.73260498046875,-0.23193359375,-7844,-2941,-676,-4,-9,-9
194056914,0.63946533203125,-0.0335693359375,0.7320556640625,-0.2322998046875,-7835,-2946,-672,-3,-9,-10
194066895,0.639892578125,-0.03472900390625,0.73150634765625,-0.2327880859375,-7823,-2949,-665,-2,-8,-11
194076875,0.6402587890625,-0.03594970703125,0.73095703125,-0.23333740234375,-7805,-2940,-651,-2,-8,-11
194086856,0.640625,-0.03704833984375,0.7303466796875,-0.2340087890625,-7798,-2953,-641,-1,-8,-12
194096840,0.64093017578125,-0.0382080078125,0.72979736328125,-0.23468017578125,-7803,-2966,-638,-1,-8,-12
194106829,0.64129638671875,-0.0391845703125,0.72918701171875,-0.23541259765625,-7816,-2980,-644,0,-7,-11
194116805,0.64166259765625,-0.04010009765625,0.7286376953125,-0.236083984375,-7817,-3003,-628,1,-7,-10
194126796,0.64202880859375,-0.0408935546875,0.72802734375,-0.2366943359375,-7826,-3050,-626,1,-7,-8
194136778,0.64239501953125,-0.04144287109375,0.72747802734375,-0.2373046875,-7810,-3077,-633,2,-7,-6
194150030,0.64276123046875,-0.0416259765625,0.72698974609375,-0.23773193359375,-7788,-3107,-626,3,-6,-4
194156744,0.6431884765625,-0.04156494140625,0.72650146484375,-0.238037109375,-7765,-3141,-625,3,-5,0
194166720,0.6436767578125,-0.0411376953125,0.72607421875,-0.23822021484375,-7756,-3163,-614,4,-5,2
194176704,0.64404296875,-0.04052734375,0.7257080078125,-0.23834228515625,-7777,-3187,-609,5,-4,3
194186684,0.6444091796875,-0.039794921875,0.72540283203125,-0.238525390625,-7791,-3196,-612,6,-3,3
194196670,0.64471435546875,-0.0390625,0.72509765625,-0.23883056640625,-7815,-3208,-623,6,-3,2
194206650,0.6448974609375,-0.03839111328125,0.72479248046875,-0.2392578125,-7849,-3214,-625,7,-2,0
194216630,0.64501953125,-0.037841796875,0.7244873046875,-0.239990234375,-7892,-3256,-637,8,-2,-2
194226610,0.64495849609375,-0.03753662109375,0.72418212890625,-0.24102783203125,-7943,-3306,-648,9,-2,-5
194236592,0.644775390625,-0.037353515625,0.723876953125,-0.242431640625,-7958,-3341,-643,9,-1,-8
194246577,0.64453125,-0.037353515625,0.72357177734375,-0.2440185546875,-7962,-3375,-654,10,-1,-10
194256563,0.6441650390625,-0.03729248046875,0.72332763671875,-0.24578857421875,-7918,-3384,-633,11,0,-11
194266542,0.643798828125,-0.03717041015625,0.72308349609375,-0.24755859375,-7857,-3379,-615,12,1,-10
194276525,0.643310546875,-0.036865234375,0.722900390625,-0.24932861328125,-7795,-3352,-595,12,2,-9
194286504,0.64288330078125,-0.03631591796875,0.72271728515625,-0.2509765625,-7729,-3320,-601,13,3,-7
194296488,0.64239501953125,-0.03558349609375,0.72265625,-0.2525634765625,-7676,-3302,-606,13,3,-6
194306468,0.6419677734375,-0.03460693359375,0.72259521484375,-0.25396728515625,-7617,-3287,-619,14,4,-3
194316466,0.64154052734375,-0.03338623046875,0.7225341796875,-0.2552490234375,-7594,-3309,-613,14,4,0
194326442,0.64117431640625,-0.0318603515625,0.7225341796875,-0.25634765625,-7576,-3335,-613,14,4,3
194336425,0.64093017578125,-0.030029296875,0.7225341796875,-0.2572021484375,-7583,-3348,-604,15,4,6
194346401,0.64080810546875,-0.0279541015625,0.7225341796875,-0.25787353515625,-7587,-3336,-555,15,5,8
194356385,0.64068603515625,-0.02569580078125,0.72247314453125,-0.2584228515625,-7563,-3301,-519,15,5,10
194366364,0.640625,-0.0233154296875,0.72247314453125,-0.25885009765625,-7528,-3257,-476,15,5,12
194376348,0.64068603515625,-0.020751953125,0.72247314453125,-0.259033203125,-7509,-3221,-453,14,5,13
194386332,0.64068603515625,-0.01812744140625,0.72247314453125,-0.25921630859375,-7483,-3201,-443,14,5,14
194396312,0.64068603515625,-0.015380859375,0.72247314453125,-0.25927734375,-7466,-3190,-449,14,5,15
194406295,0.64068603515625,-0.0126953125,0.72247314453125,-0.25933837890625,-7467,-3175,-461,15,4,15
194416272,0.6407470703125,-0.010009765625,0.72247314453125,-0.2593994140625,-7456,-3176,-461,14,4,15
194426266,0.64080810546875,-0.00732421875,0.72247314453125,-0.2593994140625,-7460,-3172,-461,14,4,15
194436249,0.640869140625,-0.00482177734375,0.722412109375,-0.259521484375,-7460,-3156,-453,14,4,14
194446228,0.640869140625,-0.0023193359375,0.72235107421875,-0.25970458984375,-7472,-3149,-446,14,4,13
194456217,0.640869140625,0.0,0.72222900390625,-0.25994873046875,-7480,-3126,-454,14,4,12
194466200,0.64080810546875,0.002197265625,0.72216796875,-0.26031494140625,-7496,-3107,-465,14,3,10
194476178,0.6407470703125,0.00421142578125,0.7220458984375,-0.26080322265625,-7494,-3105,-466,14,3,9
194486153,0.64068603515625,0.00616455078125,0.72186279296875,-0.2613525390625,-7482,-3089,-457,13,3,8
194496137,0.640625,0.008056640625,0.7216796875,-0.26190185546875,-7443,-3045,-447,13,2,8
194506117,0.640625,0.00994873046875,0.72149658203125,-0.26239013671875,-7407,-2991,-431,13,2,8
194516100,0.640625,0.01177978515625,0.7213134765625,-0.2628173828125,-7387,-2945,-422,12,2,8
194526085,0.640625,0.0135498046875,0.72119140625,-0.26318359375,-7373,-2916,-446,11,2,8
194536065,0.64056396484375,0.01519775390625,0.7210693359375,-0.2635498046875,-7358,-2904,-456,11,2,7
194546047,0.64044189453125,0.01678466796875,0.720947265625,-0.26397705078125,-7325,-2907,-456,10,2,7
194556030,0.640380859375,0.01837158203125,0.72088623046875,-0.26434326171875,-7273,-2917,-465,10,2,7
194566017,0.64019775390625,0.01995849609375,0.72088623046875,-0.2646484375,-7245,-2935,-470,10,3,8
194575992,0.6400146484375,0.02154541015625,0.72088623046875,-0.264892578125,-7232,-2936,-471,10,4,8
194585975,0.6397705078125,0.023193359375,0.720947265625,-0.26507568359375,-7237,-2958,-497,9,4,8
194595957,0.63946533203125,0.0247802734375,0.72113037109375,-0.26531982421875,-7254,-2965,-536,9,5,7
194605941,0.63897705078125,0.0262451171875,0.72137451171875,-0.26568603515625,-7287,-2970,-562,9,5,6
194615923,0.638427734375,0.027587890625,0.72161865234375,-0.26611328125,-7312,-2961,-590,9,6,4
194625905,0.63775634765625,0.0286865234375,0.72198486328125,-0.26666259765625,-7331,-2953,-614,8,6,2
194635887,0.6370849609375,0.0296630859375,0.7222900390625,-0.267333984375,-7338,-2936,-633,8,6,0
194645870,0.63629150390625,0.03045654296875,0.72265625,-0.26806640625,-7320,-2935,-655,8,6,-1
194655849,0.635498046875,0.03118896484375,0.72308349609375,-0.2689208984375,-7275,-2951,-671,8,6,-1
194665836,0.63470458984375,0.031982421875,0.72344970703125,-0.26959228515625,-7204,-2987,-679,8,7,1
194675819,0.63397216796875,0.03302001953125,0.723876953125,-0.2701416015625,-7150,-3013,-663,8,7,4
194685806,0.63330078125,0.03436279296875,0.7242431640625,-0.2705078125,-7084,-3045,-625,8,8,7
194695789,0.63262939453125,0.0360107421875,0.72467041015625,-0.27069091796875,-7051,-3078,-610,9,8,9
194705771,0.63201904296875,0.037841796875,0.72509765625,-0.270751953125,-7036,-3084,-605,9,9,11
194715748,0.63134765625,0.039794921875,0.72552490234375,-0.2708740234375,-7033,-3080,-601,10,10,11
194725729,0.630615234375,0.041748046875,0.72601318359375,-0.27105712890625,-7044,-3049,-604,10,10,10
194735713,0.6297607421875,0.0435791015625,0.72650146484375,-0.27142333984375,-7073,-3007,-598,11,10,7
194745693,0.62884521484375,0.04522705078125,0.7269287109375,-0.27203369140625,-7098,-2962,-592,11,10,4
194755677,0.62786865234375,0.046630859375,0.72735595703125,-0.27288818359375,-7143,-2934,-601,12,10,1
194765659,0.62677001953125,0.04766845703125,0.72784423828125,-0.2740478515625,-7184,-2900,-585,12,10,-3
194775639,0.6256103515625,0.04833984375,0.728271484375,-0.27545166015625,-7232,-2883,-595,11,9,-6
194785621,0.62432861328125,0.04876708984375,0.7286376953125,-0.277099609375,-7289,-2866,-591,11,9,-10
194795605,0.62310791015625,0.0489501953125,0.72900390625,-0.27899169921875,-7354,-2854,-596,11,8,-12
194805586,0.62188720703125,0.04888916015625,0.72930908203125,-0.28094482421875,-7417,-2851,-597,11,7,-14
194815568,0.62066650390625,0.0487060546875,0.72955322265625,-0.282958984375,-7481,-2849,-602,11,6,-15
194825550,0.61956787109375,0.04840087890625,0.72967529296875,-0.2850341796875,-7524,-2845,-596,11,5,-16
194835532,0.61859130859375,0.048095703125,0.72979736328125,-0.28704833984375,-7552,-2843,-571,10,4,-15
194845515,0.61785888671875,0.0478515625,0.729736328125,-0.28887939453125,-7573,-2848,-549,10,3,-13
194855498,0.61724853515625,0.04779052734375,0.7296142578125,-0.2904052734375,-7597,-2854,-539,9,2,-10
194865483,0.61688232421875,0.04791259765625,0.7293701171875,-0.291748046875,-7619,-2864,-516,9,1,-7
194875470,0.61669921875,0.0482177734375,0.72906494140625,-0.29278564453125,-7634,-2874,-505,8,0,-4
194885450,0.61669921875,0.04864501953125,0.728759765625,-0.29351806640625,-7642,-2888,-494,7,-1,-2
194895437,0.6168212890625,0.0491943359375,0.72833251953125,-0.29412841796875,-7652,-2902,-478,6,-2,0
194905409,0.61712646484375,0.04974365234375,0.7279052734375,-0.2945556640625,-7660,-2916,-467,6,-3,2
194915391,0.617431640625,0.05035400390625,0.72747802734375,-0.29486083984375,-7649,-2917,-444,5,-3,2
194925374,0.61785888671875,0.0509033203125,0.72698974609375,-0.2950439453125,-7639,-2900,-425,4,-4,3
194935357,0.6182861328125,0.0513916015625,0.72650146484375,-0.295166015625,-7590,-2881,-412,4,-4,2
194945342,0.6187744140625,0.0517578125,0.72601318359375,-0.2952880859375,-7555,-2855,-386,3,-4,2
194955327,0.6192626953125,0.052001953125,0.72564697265625,-0.29534912109375,-7533,-2820,-360,2,-4,1
194965306,0.61962890625,0.05218505859375,0.7252197265625,-0.29547119140625,-7497,-2801,-343,1,-4,0
194975290,0.61993408203125,0.05218505859375,0.72491455078125,-0.2955322265625,-7452,-2782,-328,0,-3,-1
194985272,0.6202392578125,0.05206298828125,0.72467041015625,-0.29559326171875,-7398,-2762,-302,-1,-3,-1
194995253,0.6204833984375,0.0518798828125,0.7244873046875,-0.2955322265625,-7310,-2751,-251,-2,-3,-1
195005240,0.6207275390625,0.0517578125,0.724365234375,-0.29534912109375,-7235,-2725,-197,-3,-2,0
195015225,0.62103271484375,0.05169677734375,0.72430419921875,-0.29498291015625,-7146,-2703,-137,-4,-1,2
195025211,0.621337890625,0.05169677734375,0.72430419921875,-0.2943115234375,-7082,-2688,-105,-5,0,4
195035190,0.62158203125,0.05181884765625,0.72442626953125,-0.29345703125,-7041,-2684,-86,-6,1,5
195045158,0.621826171875,0.0518798828125,0.724609375,-0.29248046875,-7012,-2679,-66,-7,1,6
195055141,0.6220703125,0.05206298828125,0.724853515625,-0.29132080078125,-7001,-2680,-52,-8,2,7
195065124,0.62225341796875,0.05224609375,0.7252197265625,-0.28997802734375,-6987,-2671,-37,-9,3,8
195075105,0.6224365234375,0.05242919921875,0.72564697265625,-0.28851318359375,-6983,-2664,-26,-10,4,9
195085086,0.62255859375,0.0526123046875,0.72613525390625,-0.286865234375,-7000,-2669,-32,-11,4,9
195095069,0.62261962890625,0.05279541015625,0.72674560546875,-0.28521728515625,-7051,-2678,-55,-12,5,9
195105051,0.62255859375,0.0528564453125,0.7274169921875,-0.28350830078125,-7127,-2701,-79,-13,6,8
195115034,0.6224365234375,0.05267333984375,0.72821044921875,-0.2818603515625,-7229,-2725,-116,-14,6,6
195125021,0.62213134765625,0.05230712890625,0.7291259765625,-0.2802734375,-7355,-2760,-170,-14,7,4
195134997,0.62176513671875,0.05169677734375,0.73004150390625,-0.27880859375,-7464,-2806,-219,-15,7,2
195144980,0.62127685546875,0.05084228515625,0.73101806640625,-0.2774658203125,-7565,-2855,-262,-15,6,0
195154963,0.62078857421875,0.0498046875,0.73199462890625,-0.2762451171875,-7659,-2897,-306,-16,7,-2
195164943,0.62017822265625,0.04864501953125,0.73297119140625,-0.27508544921875,-7736,-2952,-350,-16,6,-3
195174927,0.61968994140625,0.04742431640625,0.73394775390625,-0.27398681640625,-7810,-2993,-381,-15,6,-3
195184912,0.61920166015625,0.046142578125,0.73480224609375,-0.27288818359375,-7852,-3024,-399,-16,5,-4
195194891,0.6187744140625,0.04486083984375,0.73565673828125,-0.27178955078125,-7869,-3042,-430,-15,5,-3
195204872,0.61846923828125,0.04364013671875,0.73638916015625,-0.2706298828125,-7845,-3048,-458,-15,4,-2
195214862,0.61822509765625,0.04266357421875,0.73712158203125,-0.26934814453125,-7801,-3054,-491,-15,3,1
195224840,0.6181640625,0.04180908203125,0.73773193359375,-0.26788330078125,-7744,-3046,-528,-15,2,3
195234821,0.6182861328125,0.041259765625,0.73822021484375,-0.26629638671875,-7703,-3047,-570,-14,1,6
195244801,0.61859130859375,0.041015625,0.73870849609375,-0.2645263671875,-7665,-3054,-620,-14,0,9
195254793,0.6190185546875,0.04095458984375,0.739013671875,-0.26263427734375,-7661,-3054,-652,-13,-1,11
195264771,0.61956787109375,0.041015625,0.73919677734375,-0.26068115234375,-7669,-3049,-694,-13,-2,12
195274748,0.62017822265625,0.04107666015625,0.7393798828125,-0.2587890625,-7672,-3060,-741,-12,-3,12
195284731,0.620849609375,0.04095458984375,0.7393798828125,-0.257080078125,-7678,-3059,-768,-12,-4,10
195294713,0.62152099609375,0.0406494140625,0.7393798828125,-0.255615234375,-7700,-3046,-794,-11,-5,7
195304695,0.62213134765625,0.03997802734375,0.7392578125,-0.25445556640625,-7732,-3035,-787,-11,-6,3
195314681,0.6226806640625,0.03887939453125,0.7391357421875,-0.25372314453125,-7754,-3042,-802,-10,-7,-2
195324658,0.62310791015625,0.03741455078125,0.73895263671875,-0.25335693359375,-7775,-3035,-805,-10,-7,-6
195334641,0.62353515625,0.03558349609375,0.73870849609375,-0.2532958984375,-7784,-3043,-791,-10,-8,-10
195344624,0.62384033203125,0.03350830078125,0.73846435546875,-0.2535400390625,-7806,-3046,-770,-10,-8,-13
195354606,0.6241455078125,0.03118896484375,0.73822021484375,-0.25384521484375,-7811,-3059,-759,-10,-8,-15
195364588,0.6243896484375,0.02886962890625,0.7379150390625,-0.25433349609375,-7803,-3050,-746,-9,-8,-16
195374570,0.6246337890625,0.0264892578125,0.7376708984375,-0.25469970703125,-7766,-3045,-743,-10,-8,-15
195384550,0.62493896484375,0.0242919921875,0.73736572265625,-0.25506591796875,-7729,-3033,-739,-10,-8,-14
195394532,0.625244140625,0.02227783203125,0.73712158203125,-0.25518798828125,-7678,-3024,-738,-10,-8,-11
195404517,0.6256103515625,0.0205078125,0.7369384765625,-0.25506591796875,-7632,-3039,-728,-10,-8,-8
195414500,0.6260986328125,0.01904296875,0.7366943359375,-0.25469970703125,-7565,-3036,-716,-10,-7,-4
195424489,0.62664794921875,0.01800537109375,0.73651123046875,-0.25396728515625,-7506,-3039,-711,-10,-7,0
195434470,0.62725830078125,0.017333984375,0.736328125,-0.25286865234375,-7462,-3020,-703,-10,-6,4
195444454,0.6279296875,0.01702880859375,0.73626708984375,-0.2515869140625,-7435,-2992,-696,-10,-5,7
195454435,0.62860107421875,0.016845703125,0.7362060546875,-0.25006103515625,-7416,-2967,-701,-10,-4,9
195464411,0.629150390625,0.016845703125,0.73626708984375,-0.2484130859375,-7396,-2924,-701,-11,-3,9
195474393,0.629638671875,0.016845703125,0.73638916015625,-0.246826171875,-7384,-2889,-708,-10,-3,9
195484376,0.63006591796875,0.01678466796875,0.736572265625,-0.2452392578125,-7389,-2854,-726,-10,-2,8
195494359,0.63031005859375,0.0166015625,0.73681640625,-0.24383544921875,-7410,-2800,-724,-10,-1,6
195504345,0.6304931640625,0.0162353515625,0.73712158203125,-0.24249267578125,-7430,-2755,-723,-11,0,4
195514327,0.6304931640625,0.01568603515625,0.73748779296875,-0.24139404296875,-7475,-2725,-733,-11,0,1
195524307,0.63037109375,0.01483154296875,0.73785400390625,-0.24053955078125,-7543,-2710,-733,-11,1,-3
195534290,0.630126953125,0.013671875,0.73834228515625,-0.2398681640625,-7607,-2688,-765,-11,1,-6
195544278,0.62969970703125,0.0123291015625,0.73883056640625,-0.2393798828125,-7657,-2674,-793,-11,2,-9
195554260,0.6292724609375,0.0107421875,0.7393798828125,-0.23907470703125,-7705,-2659,-811,-12,2,-10
195564240,0.6287841796875,0.009033203125,0.73992919921875,-0.23883056640625,-7717,-2645,-829,-11,2,-12
195574222,0.6282958984375,0.00732421875,0.74041748046875,-0.238525390625,-7746,-2629,-830,-12,2,-12
195584214,0.6278076171875,0.005615234375,0.740966796875,-0.23822021484375,-7758,-2623,-846,-12,2,-11
195594197,0.6273193359375,0.00396728515625,0.74151611328125,-0.23785400390625,-7760,-2615,-867,-12,1,-10
195604180,0.626953125,0.00244140625,0.74200439453125,-0.2373046875,-7767,-2610,-875,-12,1,-9
195614152,0.62664794921875,0.00103759765625,0.74249267578125,-0.236572265625,-7759,-2610,-904,-13,1,-7
195624134,0.62640380859375,-0.00030517578125,0.74298095703125,-0.23565673828125,-7748,-2598,-921,-13,1,-5
195634115,0.626220703125,-0.00152587890625,0.743408203125,-0.23468017578125,-7744,-2575,-926,-14,0,-4
195644099,0.62615966796875,-0.002685546875,0.743896484375,-0.2335205078125,-7747,-2573,-934,-14,0,-3
195654085,0.6260986328125,-0.0037841796875,0.7442626953125,-0.2322998046875,-7752,-2560,-927,-14,0,-2
195664064,0.6260986328125,-0.0048828125,0.74468994140625,-0.23095703125,-7773,-2557,-932,-15,-1,-2
195674044,0.62603759765625,-0.006103515625,0.7451171875,-0.2296142578125,-7796,-2563,-935,-15,-1,-3
195684030,0.62603759765625,-0.00738525390625,0.7454833984375,-0.22833251953125,-7817,-2561,-942,-16,-1,-3
195694014,0.62603759765625,-0.00872802734375,0.74591064453125,-0.22705078125,-7834,-2564,-959,-16,-1,-4
195703989,0.6259765625,-0.01019287109375,0.746337890625,-0.22576904296875,-7833,-2565,-967,-16,-1,-4
195713972,0.62591552734375,-0.01165771484375,0.74676513671875,-0.2244873046875,-7852,-2576,-969,-17,-1,-4
195723953,0.6258544921875,-0.01318359375,0.74713134765625,-0.22320556640625,-7876,-2596,-984,-17,-1,-4
195733935,0.62579345703125,-0.0146484375,0.74755859375,-0.22186279296875,-7920,-2618,-1012,-17,-1,-4
195743920,0.625732421875,-0.0162353515625,0.7479248046875,-0.2205810546875,-7959,-2656,-1031,-17,-1,-5
195753900,0.625732421875,-0.017822265625,0.748291015625,-0.2193603515625,-7964,-2692,-1045,-17,-2,-5
195763884,0.62567138671875,-0.01934814453125,0.7486572265625,-0.21807861328125,-7965,-2705,-1068,-16,-2,-4
195773867,0.625732421875,-0.02081298828125,0.7490234375,-0.216796875,-7933,-2710,-1071,-16,-2,-3
195783848,0.62579345703125,-0.02215576171875,0.749267578125,-0.21533203125,-7886,-2711,-1081,-16,-3,-2
195793838,0.6259765625,-0.0233154296875,0.74951171875,-0.2138671875,-7838,-2707,-1087,-16,-3,0
195803819,0.626220703125,-0.02423095703125,0.749755859375,-0.21221923828125,-7801,-2716,-1086,-16,-3,3
195813803,0.62652587890625,-0.02496337890625,0.75,-0.21038818359375,-7763,-2716,-1092,-15,-3,5
195823785,0.62689208984375,-0.0255126953125,0.75018310546875,-0.20855712890625,-7746,-2724,-1086,-15,-3,6
195833767,0.6273193359375,-0.0260009765625,0.75030517578125,-0.2066650390625,-7720,-2731,-1094,-14,-4,7
195843743,0.6278076171875,-0.0263671875,0.75042724609375,-0.204833984375,-7701,-2715,-1100,-14,-4,7
195853727,0.62823486328125,-0.02679443359375,0.75054931640625,-0.20306396484375,-7670,-2713,-1098,-13,-4,6
195863708,0.628662109375,-0.02734375,0.7506103515625,-0.201416015625,-7650,-2691,-1089,-13,-4,5
195873690,0.6290283203125,-0.02789306640625,0.75067138671875,-0.20001220703125,-7643,-2672,-1078,-12,-4,3
195883672,0.62933349609375,-0.0286865234375,0.75067138671875,-0.19879150390625,-7623,-2667,-1077,-12,-4,1
195893657,0.629638671875,-0.029541015625,0.75067138671875,-0.19781494140625,-7616,-2653,-1074,-11,-4,-1
195903634,0.6298828125,-0.03045654296875,0.75067138671875,-0.19696044921875,-7615,-2664,-1066,-10,-4,-2
195913616,0.63006591796875,-0.03143310546875,0.7506103515625,-0.1962890625,-7612,-2679,-1076,-9,-4,-3
195923599,0.63031005859375,-0.0323486328125,0.75054931640625,-0.19561767578125,-7611,-2679,-1093,-9,-4,-3
195933582,0.63055419921875,-0.033203125,0.75048828125,-0.19500732421875,-7618,-2702,-1093,-8,-4,-2
195943565,0.63079833984375,-0.033935546875,0.7503662109375,-0.1944580078125,-7632,-2721,-1082,-7,-4,-2
195953547,0.63104248046875,-0.03460693359375,0.75030517578125,-0.19390869140625,-7650,-2730,-1088,-7,-4,-1
195963534,0.6312255859375,-0.03509521484375,0.750244140625,-0.193359375,-7653,-2748,-1094,-6,-3,0
195973513,0.63153076171875,-0.03558349609375,0.7501220703125,-0.1927490234375,-7632,-2754,-1073,-6,-4,1
195983496,0.63177490234375,-0.03582763671875,0.75006103515625,-0.192138671875,-7606,-2741,-1063,-5,-3,2
195993483,0.63201904296875,-0.03607177734375,0.75,-0.19158935546875,-7578,-2737,-1040,-5,-3,2
196003469,0.63226318359375,-0.0361328125,0.74993896484375,-0.19097900390625,-7569,-2739,-1038,-4,-2,3
196013452,0.63250732421875,-0.0361328125,0.7498779296875,-0.1903076171875,-7574,-2727,-1037,-4,-2,3
196023434,0.6326904296875,-0.03607177734375,0.7498779296875,-0.18975830078125,-7579,-2713,-1028,-3,-2,3
196033410,0.63287353515625,-0.03607177734375,0.7498779296875,-0.18927001953125,-7597,-2699,-1026,-3,-2,2
196043395,0.6329345703125,-0.03607177734375,0.7498779296875,-0.18890380859375,-7603,-2709,-1039,-2,-1,1
196053375,0.63299560546875,-0.0361328125,0.74993896484375,-0.18865966796875,-7612,-2721,-1056,-2,-1,0
196063357,0.6329345703125,-0.0362548828125,0.75,-0.18853759765625,-7625,-2709,-1068,-2,0,-1
196073334,0.63287353515625,-0.036376953125,0.75006103515625,-0.1884765625,-7632,-2718,-1075,-1,0,-1
196083315,0.63275146484375,-0.03656005859375,0.7501220703125,-0.18853759765625,-7637,-2712,-1072,-1,0,-2
196093299,0.63262939453125,-0.03668212890625,0.75018310546875,-0.18865966796875,-7657,-2711,-1071,-1,1,-2
196103290,0.6324462890625,-0.03680419921875,0.75030517578125,-0.18878173828125,-7671,-2719,-1069,0,1,-2
196113273,0.63226318359375,-0.03692626953125,0.75042724609375,-0.18890380859375,-7691,-2724,-1065,0,1,-2
196123253,0.632080078125,-0.03692626953125,0.75054931640625,-0.1890869140625,-7703,-2733,-1059,0,2,-2
196133240,0.6318359375,-0.036865234375,0.75067138671875,-0.1893310546875,-7712,-2733,-1049,1,2,-1
196143224,0.63153076171875,-0.03680419921875,0.7508544921875,-0.18951416015625,-7707,-2734,-1041,1,3,-1
196153210,0.63128662109375,-0.03656005859375,0.7510986328125,-0.18963623046875,-7691,-2715,-1037,1,3,0
196163189,0.6309814453125,-0.03619384765625,0.7513427734375,-0.18963623046875,-7691,-2709,-1031,1,3,1
196173158,0.63067626953125,-0.0357666015625,0.7515869140625,-0.18963623046875,-7680,-2697,-1040,1,4,2
196183138,0.63037109375,-0.03509521484375,0.751953125,-0.1895751953125,-7686,-2685,-1052,2,4,4
196193121,0.63006591796875,-0.03436279296875,0.75225830078125,-0.189453125,-7695,-2695,-1065,2,4,5
196203105,0.6297607421875,-0.0335693359375,0.75262451171875,-0.189208984375,-7720,-2708,-1072,2,4,5
196213086,0.62945556640625,-0.03265380859375,0.7529296875,-0.18902587890625,-7747,-2717,-1080,2,5,6
196223068,0.629150390625,-0.03173828125,0.7532958984375,-0.1888427734375,-7761,-2706,-1100,3,5,6
196233051,0.6287841796875,-0.03076171875,0.753662109375,-0.188720703125,-7752,-2695,-1121,3,5,5
196243032,0.62841796875,-0.02984619140625,0.7540283203125,-0.18865966796875,-7754,-2676,-1139,3,5,5
196253020,0.62799072265625,-0.02899169921875,0.75439453125,-0.18865966796875,-7759,-2656,-1147,4,5,4
196262995,0.6275634765625,-0.0281982421875,0.7547607421875,-0.18878173828125,-7761,-2646,-1141,4,5,3
196272979,0.62713623046875,-0.0274658203125,0.75506591796875,-0.18902587890625,-7779,-2643,-1149,4,5,2
196282961,0.626708984375,-0.02679443359375,0.75537109375,-0.1893310546875,-7803,-2627,-1169,5,5,1
196292945,0.62628173828125,-0.02618408203125,0.75567626953125,-0.189697265625,-7828,-2633,-1193,4,5,1
196302925,0.62579345703125,-0.02557373046875,0.7559814453125,-0.19012451171875,-7833,-2634,-1210,5,4,0
196312912,0.62542724609375,-0.0250244140625,0.75616455078125,-0.19061279296875,-7850,-2648,-1210,5,4,0
196322890,0.625,-0.02447509765625,0.75640869140625,-0.19110107421875,-7852,-2643,-1232,6,4,0
196332872,0.6246337890625,-0.02386474609375,0.756591796875,-0.191650390625,-7848,-2651,-1250,6,4,0
196342854,0.62432861328125,-0.02325439453125,0.75677490234375,-0.192138671875,-7850,-2641,-1257,6,3,0
196352838,0.6240234375,-0.02264404296875,0.75689697265625,-0.1927490234375,-7865,-2632,-1263,6,3,0
196362819,0.623779296875,-0.02203369140625,0.7569580078125,-0.19329833984375,-7856,-2623,-1263,6,2,0
196372808,0.6236572265625,-0.02130126953125,0.7569580078125,-0.19390869140625,-7855,-2614,-1254,7,2,0
196382792,0.62353515625,-0.02056884765625,0.75689697265625,-0.1944580078125,-7836,-2609,-1258,7,1,1
196392773,0.6234130859375,-0.019775390625,0.75689697265625,-0.195068359375,-7820,-2608,-1271,7,1,1
196402750,0.62335205078125,-0.01898193359375,0.75677490234375,-0.19561767578125,-7803,-2596,-1262,7,1,1
196412733,0.623291015625,-0.01812744140625,0.7567138671875,-0.1961669921875,-7785,-2583,-1273,8,0,1
196422714,0.623291015625,-0.017333984375,0.756591796875,-0.19683837890625,-7792,-2581,-1266,8,0,1
196432698,0.623291015625,-0.01666259765625,0.75640869140625,-0.197509765625,-7820,-2587,-1255,8,0,-1
196442678,0.623291015625,-0.01611328125,0.75616455078125,-0.1983642578125,-7855,-2592,-1233,8,-1,-2
196452660,0.62322998046875,-0.01568603515625,0.7559814453125,-0.19940185546875,-7861,-2597,-1225,8,0,-4
196462644,0.6231689453125,-0.015380859375,0.7557373046875,-0.20050048828125,-7867,-2603,-1208,8,-1,-5
196472622,0.62310791015625,-0.01519775390625,0.7554931640625,-0.20166015625,-7859,-2594,-1182,9,-1,-6
196482603,0.62298583984375,-0.0150146484375,0.7552490234375,-0.20294189453125,-7830,-2581,-1165,8,-1,-7
196492589,0.6229248046875,-0.014892578125,0.7550048828125,-0.2042236328125,-7797,-2575,-1152,9,0,-7
196502577,0.62274169921875,-0.01470947265625,0.7547607421875,-0.2054443359375,-7768,-2576,-1138,9,0,-6
196512552,0.6226806640625,-0.01446533203125,0.7545166015625,-0.2066650390625,-7756,-2584,-1124,8,0,-5
196522534,0.62255859375,-0.01409912109375,0.75433349609375,-0.207763671875,-7753,-2587,-1124,9,0,-4
196532516,0.6224365234375,-0.013671875,0.75408935546875,-0.20880126953125,-7744,-2604,-1120,9,0,-3
196542500,0.62237548828125,-0.0130615234375,0.75390625,-0.20977783203125,-7727,-2611,-1108,9,0,-2
196552483,0.622314453125,-0.012451171875,0.75372314453125,-0.210693359375,-7699,-2607,-1109,9,0,-1
196562468,0.622314453125,-0.01165771484375,0.7535400390625,-0.21148681640625,-7668,-2595,-1093,9,0,0
196572452,0.62225341796875,-0.01080322265625,0.75335693359375,-0.21221923828125,-7632,-2584,-1068,9,1,1
196582437,0.6221923828125,-0.0098876953125,0.75323486328125,-0.21295166015625,-7622,-2581,-1058,9,1,1
196592411,0.6220703125,-0.00897216796875,0.75311279296875,-0.21368408203125,-7618,-2588,-1045,9,2,1
196602394,0.6219482421875,-0.00811767578125,0.7530517578125,-0.21441650390625,-7640,-2582,-1034,9,2,0
196612385,0.62176513671875,-0.00726318359375,0.75299072265625,-0.2152099609375,-7661,-2591,-1032,9,2,-1
196622358,0.6214599609375,-0.006591796875,0.7529296875,-0.2161865234375,-7685,-2595,-1032,9,2,-2
196632340,0.62115478515625,-0.00592041015625,0.7529296875,-0.2171630859375,-7685,-2583,-1040,9,3,-3
196642321,0.62078857421875,-0.00543212890625,0.7529296875,-0.21826171875,-7671,-2585,-1037,9,3,-4
196652305,0.620361328125,-0.00494384765625,0.7529296875,-0.219482421875,-7672,-2587,-1024,9,4,-5
196662290,0.619873046875,-0.0045166015625,0.75299072265625,-0.22064208984375,-7685,-2589,-1025,9,3,-6
196672275,0.619384765625,-0.00408935546875,0.7530517578125,-0.221923828125,-7704,-2609,-1040,9,4,-6
196682257,0.61883544921875,-0.003662109375,0.75311279296875,-0.22314453125,-7712,-2619,-1035,9,4,-6
196692240,0.6182861328125,-0.0032958984375,0.753173828125,-0.22442626953125,-7714,-2629,-1043,9,5,-6
196702228,0.61773681640625,-0.0028076171875,0.75323486328125,-0.22564697265625,-7705,-2624,-1043,9,4,-5
196712208,0.61724853515625,-0.00225830078125,0.75335693359375,-0.226806640625,-7681,-2608,-1026,10,5,-5
196722190,0.61669921875,-0.0015869140625,0.75341796875,-0.22796630859375,-7671,-2612,-1031,10,5,-4
196732161,0.6162109375,-0.00091552734375,0.7535400390625,-0.22900390625,-7688,-2611,-1039,10,5,-3
196742145,0.61572265625,-0.0001220703125,0.75360107421875,-0.23004150390625,-7695,-2610,-1050,10,5,-3
196752127,0.615234375,0.000732421875,0.753662109375,-0.23101806640625,-7689,-2619,-1050,10,4,-2
196762109,0.6148681640625,0.00164794921875,0.75372314453125,-0.2320556640625,-7674,-2630,-1054,11,4,-1
196772098,0.61444091796875,0.002685546875,0.75372314453125,-0.23297119140625,-7666,-2636,-1063,11,4,0
196782076,0.61407470703125,0.00372314453125,0.75372314453125,-0.23394775390625,-7677,-2662,-1074,11,4,0
196792057,0.61370849609375,0.0048828125,0.75372314453125,-0.23486328125,-7693,-2669,-1087,11,4,0
196802043,0.61334228515625,0.00592041015625,0.753662109375,-0.2359619140625,-7749,-2693,-1098,12,3,-1
196812026,0.61297607421875,0.00689697265625,0.75360107421875,-0.23712158203125,-7787,-2698,-1117,12,3,-3
196822001,0.612548828125,0.00775146484375,0.7535400390625,-0.2384033203125,-7825,-2701,-1142,13,3,-4
196831985,0.6121826171875,0.00848388671875,0.75341796875,-0.23980712890625,-7844,-2712,-1156,13,3,-5
196841967,0.61175537109375,0.0091552734375,0.75323486328125,-0.2413330078125,-7843,-2714,-1163,13,3,-6
196851949,0.611328125,0.0098876953125,0.75311279296875,-0.24285888671875,-7841,-2710,-1176,13,2,-6
196861932,0.6109619140625,0.01068115234375,0.75286865234375,-0.244384765625,-7821,-2706,-1176,14,2,-5
196871918,0.610595703125,0.011474609375,0.75262451171875,-0.2459716796875,-7817,-2725,-1176,14,2,-5
196881899,0.61029052734375,0.01239013671875,0.75238037109375,-0.2474365234375,-7841,-2746,-1172,14,1,-4
196891882,0.61004638671875,0.0133056640625,0.7520751953125,-0.24896240234375,-7881,-2769,-1191,15,1,-4
196901863,0.60980224609375,0.0142822265625,0.75177001953125,-0.25054931640625,-7922,-2795,-1189,15,1,-4
196911844,0.60955810546875,0.01519775390625,0.7513427734375,-0.25213623046875,-7962,-2834,-1187,15,0,-4
196921827,0.609375,0.01611328125,0.7509765625,-0.2537841796875,-7977,-2857,-1182,16,0,-5
196931808,0.609130859375,0.0169677734375,0.75054931640625,-0.2554931640625,-7974,-2885,-1185,15,0,-4
196941799,0.60894775390625,0.01788330078125,0.7501220703125,-0.25714111328125,-7946,-2893,-1182,16,0,-4
196951782,0.6087646484375,0.01885986328125,0.74969482421875,-0.25885009765625,-7913,-2882,-1174,16,0,-4
196961756,0.608642578125,0.0198974609375,0.74920654296875,-0.26043701171875,-7840,-2864,-1135,16,0,-3
196971740,0.6085205078125,0.02105712890625,0.74871826171875,-0.261962890625,-7756,-2839,-1107,16,0,-1
196981728,0.60845947265625,0.02239990234375,0.74822998046875,-0.26336669921875,-7660,-2819,-1086,16,0,1
196991706,0.6085205078125,0.02392578125,0.74774169921875,-0.2645263671875,-7587,-2811,-1041,16,0,3
197001690,0.60858154296875,0.025634765625,0.74725341796875,-0.265625,-7508,-2802,-1020,16,1,5
197011670,0.608642578125,0.0274658203125,0.74676513671875,-0.26654052734375,-7420,-2788,-997,15,1,6
197021653,0.60870361328125,0.029541015625,0.74639892578125,-0.267333984375,-7345,-2773,-958,16,2,8
197031635,0.6087646484375,0.0316162109375,0.74603271484375,-0.26800537109375,-7273,-2768,-945,15,2,9
197041617,0.60870361328125,0.03375244140625,0.7457275390625,-0.2686767578125,-7235,-2770,-927,15,3,9
197051597,0.608642578125,0.035888671875,0.74542236328125,-0.269287109375,-7231,-2756,-910,14,3,9
197061581,0.6085205078125,0.037841796875,0.74517822265625,-0.27001953125,-7266,-2770,-905,14,4,7
197071565,0.60821533203125,0.03961181640625,0.74505615234375,-0.2708740234375,-7321,-2795,-913,14,4,5
197081546,0.6077880859375,0.0411376953125,0.744873046875,-0.27197265625,-7380,-2802,-924,14,4,2
197091532,0.607177734375,0.0423583984375,0.74481201171875,-0.27325439453125,-7449,-2828,-936,14,5,-2
197101508,0.6064453125,0.0433349609375,0.74481201171875,-0.27484130859375,-7500,-2848,-953,14,6,-5
197111491,0.6055908203125,0.0440673828125,0.74481201171875,-0.276611328125,-7548,-2877,-965,14,6,-7
197121471,0.6046142578125,0.044677734375,0.744873046875,-0.27850341796875,-7614,-2919,-991,15,6,-9
197131463,0.60357666015625,0.04522705078125,0.74493408203125,-0.2803955078125,-7663,-2966,-1002,15,6,-9
197141443,0.6025390625,0.0457763671875,0.7449951171875,-0.28240966796875,-7715,-3007,-1021,15,6,-9
197151426,0.60150146484375,0.04638671875,0.74505615234375,-0.28436279296875,-7765,-3035,-1034,15,6,-9
197161403,0.60052490234375,0.047119140625,0.74505615234375,-0.2862548828125,-7788,-3071,-1062,15,6,-8
197171385,0.599609375,0.0479736328125,0.74505615234375,-0.2880859375,-7784,-3077,-1075,16,6,-6
197181367,0.5987548828125,0.049072265625,0.74505615234375,-0.28973388671875,-7766,-3093,-1075,16,6,-3
197191356,0.59808349609375,0.0504150390625,0.74493408203125,-0.29119873046875,-7748,-3099,-1062,16,5,0
197201334,0.59747314453125,0.052001953125,0.7447509765625,-0.29248046875,-7715,-3094,-1052,16,5,2
197211314,0.5970458984375,0.05377197265625,0.7445068359375,-0.293701171875,-7680,-3096,-1026,16,5,4
197221298,0.5966796875,0.0556640625,0.7442626953125,-0.2947998046875,-7633,-3095,-1016,16,4,5
197231277,0.5963134765625,0.0576171875,0.74395751953125,-0.29583740234375,-7583,-3085,-1006,17,4,6
197241270,0.59600830078125,0.0595703125,0.74365234375,-0.29693603515625,-7525,-3060,-992,17,4,5
197251252,0.59564208984375,0.06146240234375,0.74334716796875,-0.298095703125,-7454,-3027,-972,17,4,5
197261231,0.59521484375,0.06329345703125,0.74298095703125,-0.29931640625,-7374,-3006,-964,17,4,4
197271221,0.5947265625,0.06500244140625,0.74267578125,-0.3006591796875,-7315,-2982,-953,17,5,2
197281208,0.5941162109375,0.06658935546875,0.742431640625,-0.3021240234375,-7278,-2975,-960,17,5,1
197291187,0.59344482421875,0.0679931640625,0.7421875,-0.30377197265625,-7250,-2985,-949,18,5,-2
197301156,0.5926513671875,0.0692138671875,0.74200439453125,-0.30560302734375,-7246,-2981,-949,18,5,-4
197311137,0.59173583984375,0.07025146484375,0.74176025390625,-0.30755615234375,-7248,-2986,-949,18,5,-6
197321118,0.59075927734375,0.0711669921875,0.7415771484375,-0.3096923828125,-7253,-2986,-930,18,5,-8
197331100,0.5897216796875,0.07196044921875,0.74139404296875,-0.3118896484375,-7264,-3004,-911,18,5,-9
197341085,0.588623046875,0.0726318359375,0.7412109375,-0.314208984375,-7292,-3014,-905,18,6,-10
197351066,0.5875244140625,0.07330322265625,0.74102783203125,-0.3165283203125,-7341,-3044,-902,18,6,-11
197361050,0.58636474609375,0.07391357421875,0.7408447265625,-0.3189697265625,-7395,-3080,-901,18,6,-11
197371031,0.585205078125,0.0745849609375,0.74072265625,-0.32135009765625,-7439,-3122,-903,18,6,-11
197381022,0.58404541015625,0.07525634765625,0.74053955078125,-0.32366943359375,-7460,-3170,-900,18,6,-10
197390996,0.5830078125,0.0760498046875,0.74029541015625,-0.325927734375,-7460,-3213,-880,18,6,-8
197400980,0.58197021484375,0.07708740234375,0.74005126953125,-0.32806396484375,-7470,-3226,-863,18,6,-6
197410962,0.58111572265625,0.07830810546875,0.73974609375,-0.33001708984375,-7472,-3251,-869,19,6,-4
197420943,0.58026123046875,0.07977294921875,0.73944091796875,-0.33184814453125,-7481,-3267,-874,19,6,-2
197430933,0.5794677734375,0.081298828125,0.7391357421875,-0.33349609375,-7495,-3292,-884,19,6,0
197440912,0.5787353515625,0.0830078125,0.73876953125,-0.3350830078125,-7528,-3303,-891,19,6,1
197450893,0.578125,0.08477783203125,0.7384033203125,-0.33660888671875,-7549,-3305,-872,19,5,2
197460875,0.5775146484375,0.08660888671875,0.73797607421875,-0.33807373046875,-7533,-3306,-876,19,5,3
197470857,0.57696533203125,0.0885009765625,0.737548828125,-0.3394775390625,-7519,-3304,-869,19,5,3
197480839,0.57647705078125,0.0904541015625,0.737060546875,-0.3408203125,-7530,-3305,-855,19,5,4
197490821,0.57598876953125,0.0924072265625,0.736572265625,-0.3421630859375,-7540,-3305,-838,18,5,4
197500801,0.57550048828125,0.09417724609375,0.736083984375,-0.34356689453125,-7535,-3295,-836,18,4,2
197510793,0.57489013671875,0.09588623046875,0.73565673828125,-0.3450927734375,-7569,-3297,-825,18,5,1
197520778,0.57427978515625,0.09747314453125,0.73516845703125,-0.3466796875,-7565,-3294,-833,18,4,-1
197530750,0.57354736328125,0.098876953125,0.7347412109375,-0.34832763671875,-7552,-3288,-831,18,5,-2
197540732,0.57281494140625,0.10015869140625,0.734375,-0.35003662109375,-7539,-3281,-826,18,5,-3
197550714,0.572021484375,0.1014404296875,0.7340087890625,-0.3516845703125,-7513,-3283,-827,17,4,-3
197560696,0.57135009765625,0.10272216796875,0.73358154296875,-0.353271484375,-7497,-3270,-820,17,4,-2
197570685,0.5706787109375,0.1041259765625,0.733154296875,-0.35479736328125,-7485,-3275,-827,17,4,0
197580663,0.570068359375,0.10552978515625,0.73272705078125,-0.356201171875,-7466,-3268,-833,16,4,1
197590644,0.569580078125,0.10711669921875,0.7322998046875,-0.357421875,-7432,-3253,-838,16,4,2
197600628,0.56915283203125,0.10870361328125,0.73187255859375,-0.35858154296875,-7410,-3252,-841,16,3,3
197610608,0.5687255859375,0.11041259765625,0.73138427734375,-0.359619140625,-7371,-3208,-838,16,3,4
197620591,0.56842041015625,0.11212158203125,0.73089599609375,-0.360595703125,-7331,-3183,-831,15,3,5
197630577,0.568115234375,0.11383056640625,0.73046875,-0.3614501953125,-7306,-3147,-827,15,3,5
197640556,0.5677490234375,0.115478515625,0.73004150390625,-0.36236572265625,-7305,-3129,-804,14,3,4
197650539,0.56744384765625,0.1170654296875,0.7296142578125,-0.36328125,-7316,-3117,-799,14,3,3
197660520,0.5670166015625,0.1185302734375,0.72918701171875,-0.36419677734375,-7323,-3096,-785,14,3,2
197670504,0.56658935546875,0.1197509765625,0.7288818359375,-0.36517333984375,-7338,-3083,-773,13,4,0
197680489,0.5660400390625,0.120849609375,0.72857666015625,-0.36614990234375,-7339,-3076,-770,12,3,-1
197690470,0.56549072265625,0.121826171875,0.72833251953125,-0.3671875,-7336,-3059,-775,11,4,-2
197700454,0.56488037109375,0.12261962890625,0.7281494140625,-0.36822509765625,-7327,-3056,-773,11,3,-2
197710436,0.5643310546875,0.1234130859375,0.72796630859375,-0.36920166015625,-7338,-3046,-770,10,3,-2
197720413,0.563720703125,0.12420654296875,0.72784423828125,-0.3701171875,-7356,-3057,-771,10,4,-2
197730393,0.56317138671875,0.12493896484375,0.72772216796875,-0.37091064453125,-7364,-3063,-771,9,3,-2
197740377,0.5626220703125,0.12554931640625,0.7276611328125,-0.3717041015625,-7358,-3062,-764,8,4,-2
197750359,0.56207275390625,0.12615966796875,0.72760009765625,-0.37237548828125,-7364,-3065,-753,7,3,-2
197760342,0.5615234375,0.126708984375,0.7275390625,-0.37310791015625,-7369,-3076,-752,7,4,-2
197770327,0.56103515625,0.1273193359375,0.72760009765625,-0.37359619140625,-7378,-3073,-753,6,4,-2
197780307,0.560546875,0.1278076171875,0.72760009765625,-0.37408447265625,-7364,-3076,-756,5,4,-1
197790290,0.56011962890625,0.12835693359375,0.7276611328125,-0.3743896484375,-7380,-3089,-754,4,4,-1
197800274,0.55975341796875,0.12890625,0.727783203125,-0.37469482421875,-7394,-3106,-764,4,3,0
197810264,0.559326171875,0.12939453125,0.72784423828125,-0.3748779296875,-7424,-3110,-766,3,4,0
197820246,0.5589599609375,0.1298828125,0.72802734375,-0.375,-7439,-3129,-770,3,4,0
197830226,0.55859375,0.13031005859375,0.7281494140625,-0.3751220703125,-7435,-3143,-768,2,4,0
197840217,0.55828857421875,0.1307373046875,0.72833251953125,-0.37518310546875,-7446,-3151,-775,2,4,0
197850199,0.55792236328125,0.13116455078125,0.728515625,-0.3751220703125,-7445,-3153,-792,1,3,1
197860173,0.5576171875,0.131591796875,0.72869873046875,-0.3751220703125,-7433,-3156,-787,1,3,0
197870148,0.557373046875,0.1319580078125,0.7288818359375,-0.375,-7426,-3162,-795,1,3,1
197880130,0.55712890625,0.13232421875,0.72906494140625,-0.3748779296875,-7421,-3155,-795,0,3,1
197890112,0.556884765625,0.1326904296875,0.729248046875,-0.37469482421875,-7433,-3173,-793,0,3,1
197900096,0.55670166015625,0.13299560546875,0.7293701171875,-0.37457275390625,-7439,-3175,-792,0,2,1
197910077,0.5565185546875,0.13323974609375,0.7296142578125,-0.3743896484375,-7426,-3182,-796,-1,3,1
197920058,0.5562744140625,0.1334228515625,0.72979736328125,-0.374267578125,-7434,-3181,-799,-1,2,0
197930041,0.5560302734375,0.13348388671875,0.73004150390625,-0.3741455078125,-7444,-3195,-813,-1,2,-1
197940026,0.5557861328125,0.13348388671875,0.730224609375,-0.3741455078125,-7449,-3200,-823,-1,2,-2
197950009,0.55548095703125,0.1334228515625,0.73046875,-0.37408447265625,-7452,-3197,-831,-1,2,-3
197959985,0.55517578125,0.13323974609375,0.73077392578125,-0.37408447265625,-7463,-3205,-844,-1,2,-3
197969969,0.554931640625,0.133056640625,0.73095703125,-0.37408447265625,-7486,-3231,-838,-2,2,-3
197979950,0.5546875,0.13287353515625,0.731201171875,-0.3741455078125,-7497,-3250,-838,-2,1,-3
197989933,0.554443359375,0.13262939453125,0.73138427734375,-0.3741455078125,-7501,-3276,-832,-2,1,-3
197999912,0.55426025390625,0.1324462890625,0.7315673828125,-0.37408447265625,-7496,-3278,-835,-2,1,-2
198009894,0.55413818359375,0.13226318359375,0.73175048828125,-0.37396240234375,-7492,-3269,-838,-2,1,-2
198019878,0.55401611328125,0.132080078125,0.73193359375,-0.3739013671875,-7494,-3274,-836,-2,1,-2
198029860,0.553955078125,0.1319580078125,0.73211669921875,-0.373779296875,-7479,-3279,-828,-2,1,-1
198039841,0.55389404296875,0.13177490234375,0.73223876953125,-0.3736572265625,-7465,-3283,-815,-2,0,-1
198049823,0.5538330078125,0.1317138671875,0.73236083984375,-0.37353515625,-7453,-3280,-803,-2,0,-1
198059806,0.5538330078125,0.131591796875,0.732421875,-0.37335205078125,-7439,-3287,-795,-2,0,0
198069796,0.5538330078125,0.1314697265625,0.7325439453125,-0.3731689453125,-7433,-3288,-794,-3,0,0
198079778,0.5538330078125,0.13134765625,0.732666015625,-0.37298583984375,-7441,-3281,-786,-3,0,-1
198089752,0.5538330078125,0.1312255859375,0.7327880859375,-0.37286376953125,-7433,-3285,-776,-2,0,-1
198099734,0.55377197265625,0.13104248046875,0.73291015625,-0.372802734375,-7433,-3284,-771,-2,1,-2
198109718,0.5537109375,0.13079833984375,0.7330322265625,-0.3726806640625,-7430,-3292,-768,-2,0,-2
198119701,0.5535888671875,0.13055419921875,0.73321533203125,-0.3726806640625,-7439,-3297,-779,-2,0,-2
198129683,0.553466796875,0.1302490234375,0.73333740234375,-0.37261962890625,-7446,-3307,-789,-2,0,-3
198139670,0.5533447265625,0.12994384765625,0.73345947265625,-0.3726806640625,-7454,-3304,-792,-2,0,-3
198153030,0.55322265625,0.12969970703125,0.73358154296875,-0.3726806640625,-7458,-3301,-799,-2,0,-3
198159630,0.55303955078125,0.12939453125,0.7337646484375,-0.37274169921875,-7472,-3307,-791,-2,0,-3
198169610,0.55291748046875,0.129150390625,0.73388671875,-0.372802734375,-7485,-3314,-809,-2,0,-3
198179591,0.55279541015625,0.12890625,0.7340087890625,-0.372802734375,-7495,-3309,-811,-2,0,-3
198189577,0.552734375,0.12872314453125,0.73406982421875,-0.37286376953125,-7513,-3316,-822,-1,0,-2
198199558,0.5526123046875,0.1285400390625,0.73419189453125,-0.37286376953125,-7513,-3320,-830,-1,0,-2
198209539,0.55255126953125,0.12847900390625,0.7342529296875,-0.37286376953125,-7505,-3316,-835,-1,0,-1
198219524,0.552490234375,0.12835693359375,0.73431396484375,-0.37286376953125,-7503,-3309,-834,-1,0,-1
198229506,0.552490234375,0.12835693359375,0.73431396484375,-0.372802734375,-7494,-3305,-830,-1,0,-1
198239485,0.552490234375,0.12835693359375,0.73431396484375,-0.372802734375,-7480,-3284,-829,-1,0,-1
198249471,0.552490234375,0.12835693359375,0.73431396484375,-0.372802734375,-7475,-3276,-823,0,0,-1
198259465,0.552490234375,0.12835693359375,0.73431396484375,-0.372802734375,-7463,-3267,-822,-1,0,0
198269446,0.55255126953125,0.12841796875,0.7342529296875,-0.372802734375,-7459,-3260,-822,0,0,0
198279426,0.55255126953125,0.12847900390625,0.7342529296875,-0.372802734375,-7448,-3255,-827,0,0,-1
198289401,0.55255126953125,0.12847900390625,0.7342529296875,-0.3729248046875,-7458,-3250,-837,0,0,-1
198299385,0.552490234375,0.12847900390625,0.73419189453125,-0.37298583984375,-7455,-3256,-862,0,0,-1
198309369,0.55242919921875,0.12841796875,0.73419189453125,-0.37310791015625,-7460,-3262,-878,1,-1,-2
