subject,Peter Cope
arm,right
label,3
hz,100.17620315322598
time,4.861434

timestamp_us,q0,q1,q2,q3,ax,ay,az,gx,gy,gz
172778693,-0.5076904296875,-0.5089111328125,0.4576416015625,-0.52337646484375,8150,291,501,0,0,2
172788677,-0.50750732421875,-0.50885009765625,0.4576416015625,-0.5235595703125,8119,295,506,1,0,1
172798658,-0.5074462890625,-0.5089111328125,0.45758056640625,-0.523681640625,8109,309,512,1,0,0
172808640,-0.5074462890625,-0.50897216796875,0.45745849609375,-0.523681640625,8100,307,505,0,-1,-2
172818617,-0.50762939453125,-0.50921630859375,0.45721435546875,-0.52349853515625,8081,320,510,1,-1,-4
172828601,-0.5078125,-0.509521484375,0.4569091796875,-0.5233154296875,8074,312,511,0,-1,-5
172838582,-0.508056640625,-0.50982666015625,0.45654296875,-0.5230712890625,8093,323,499,0,-1,-5
172848564,-0.50823974609375,-0.51019287109375,0.456298828125,-0.52276611328125,8123,332,480,0,-1,-5
172858548,-0.5084228515625,-0.510498046875,0.45599365234375,-0.52252197265625,8135,343,480,0,-1,-4
172868528,-0.50848388671875,-0.51068115234375,0.45587158203125,-0.52239990234375,8142,365,480,0,-1,-2
172878512,-0.508544921875,-0.51080322265625,0.455810546875,-0.52227783203125,8139,373,490,0,-1,-1
172888500,-0.50848388671875,-0.5108642578125,0.455810546875,-0.52227783203125,8122,372,492,0,-1,0
172898483,-0.50836181640625,-0.5108642578125,0.45587158203125,-0.52227783203125,8099,382,496,0,-1,0
172908466,-0.50830078125,-0.51092529296875,0.4559326171875,-0.52227783203125,8091,376,512,0,-1,0
172918450,-0.50830078125,-0.510986328125,0.4559326171875,-0.52215576171875,8116,374,507,-1,-1,-1
172928429,-0.50836181640625,-0.51116943359375,0.4559326171875,-0.52197265625,8121,377,493,-1,-2,-2
172938404,-0.50848388671875,-0.5113525390625,0.45587158203125,-0.521728515625,8140,370,482,-1,-1,-3
172948387,-0.508544921875,-0.51153564453125,0.455810546875,-0.52154541015625,8154,370,478,-1,-2,-3
172958369,-0.5086669921875,-0.51171875,0.4556884765625,-0.52130126953125,8170,383,473,-1,-1,-3
172968353,-0.5087890625,-0.51190185546875,0.4556884765625,-0.5211181640625,8191,386,472,-1,-1,-2
172978336,-0.50885009765625,-0.511962890625,0.4556884765625,-0.52099609375,8204,381,473,-1,-1,-2
172988316,-0.5089111328125,-0.51202392578125,0.45562744140625,-0.52081298828125,8207,380,476,-1,-1,-2
172998299,-0.50897216796875,-0.5120849609375,0.45562744140625,-0.52069091796875,8203,374,464,-1,-1,-2
173008290,-0.5091552734375,-0.51220703125,0.45556640625,-0.52056884765625,8196,374,458,-1,0,-3
173018276,-0.50927734375,-0.51226806640625,0.45550537109375,-0.5203857421875,8171,361,460,-1,-1,-2
173028259,-0.50946044921875,-0.5123291015625,0.45538330078125,-0.52020263671875,8157,357,464,-1,-1,-3
173038240,-0.50970458984375,-0.512451171875,0.4552001953125,-0.52001953125,8156,353,467,-1,0,-3
173048228,-0.5098876953125,-0.5125732421875,0.455078125,-0.51983642578125,8149,354,463,-1,-1,-4
173058212,-0.51007080078125,-0.51275634765625,0.45489501953125,-0.5196533203125,8148,362,483,-1,-1,-4
173068188,-0.51031494140625,-0.512939453125,0.4547119140625,-0.5194091796875,8156,382,483,-1,-1,-4
173078164,-0.51055908203125,-0.51312255859375,0.4544677734375,-0.5191650390625,8172,402,481,-1,-1,-4
173088150,-0.5107421875,-0.51336669921875,0.45428466796875,-0.5189208984375,8192,410,459,0,0,-4
173098130,-0.510986328125,-0.51348876953125,0.45416259765625,-0.5186767578125,8211,414,460,-1,-1,-3
173108110,-0.51116943359375,-0.51361083984375,0.45404052734375,-0.5185546875,8201,415,455,-1,0,-3
173118090,-0.51123046875,-0.513671875,0.4539794921875,-0.5184326171875,8197,409,446,-1,0,-2
173128073,-0.5113525390625,-0.51361083984375,0.4539794921875,-0.51837158203125,8171,415,463,-1,0,-1
173138064,-0.5113525390625,-0.5135498046875,0.45404052734375,-0.51837158203125,8142,406,475,-1,-1,0
173148040,-0.51141357421875,-0.51348876953125,0.4541015625,-0.518310546875,8115,409,479,-1,-1,0
173158029,-0.51141357421875,-0.51348876953125,0.45416259765625,-0.518310546875,8105,404,493,-1,-1,-1
173168012,-0.511474609375,-0.513427734375,0.45416259765625,-0.51824951171875,8107,402,479,-1,0,-1
173177984,-0.5115966796875,-0.51348876953125,0.4542236328125,-0.51806640625,8109,403,465,-2,-1,-2
173187966,-0.51171875,-0.5135498046875,0.4542236328125,-0.51788330078125,8115,399,457,-1,-1,-3
173197948,-0.5118408203125,-0.513671875,0.45416259765625,-0.51763916015625,8130,398,450,-1,-1,-3
173207930,-0.511962890625,-0.5137939453125,0.4541015625,-0.5174560546875,8146,401,440,-1,-1,-2
173217914,-0.51202392578125,-0.51385498046875,0.4541015625,-0.51727294921875,8159,398,427,-1,-1,-2
173227900,-0.51202392578125,-0.513916015625,0.45416259765625,-0.5172119140625,8218,405,413,0,-1,-1
173237879,-0.5120849609375,-0.51397705078125,0.45416259765625,-0.51715087890625,8320,408,396,-1,-1,-1
173247865,-0.51214599609375,-0.5140380859375,0.45416259765625,-0.5169677734375,8416,410,362,-1,0,-3
173257845,-0.5123291015625,-0.51416015625,0.45404052734375,-0.51678466796875,8509,397,354,-1,0,-4
173267827,-0.51263427734375,-0.5142822265625,0.453857421875,-0.5164794921875,8549,362,339,-2,1,-5
173277807,-0.51300048828125,-0.51434326171875,0.45367431640625,-0.5162353515625,8551,315,346,-2,2,-5
173287800,-0.513427734375,-0.5142822265625,0.45343017578125,-0.51617431640625,8583,257,391,-2,2,-4
173297785,-0.5137939453125,-0.5140380859375,0.4532470703125,-0.51617431640625,8701,190,431,-2,3,-4
173307768,-0.51416015625,-0.5137939453125,0.45306396484375,-0.5162353515625,8927,91,464,-2,3,-5
173317740,-0.5146484375,-0.51361083984375,0.4527587890625,-0.51617431640625,9194,-49,456,-2,4,-7
173327722,-0.51513671875,-0.51348876953125,0.45245361328125,-0.51605224609375,9409,-234,446,-2,4,-8
173337704,-0.51556396484375,-0.51318359375,0.452392578125,-0.5159912109375,9578,-512,476,-3,3,-7
173347691,-0.51568603515625,-0.51239013671875,0.45263671875,-0.51641845703125,9686,-869,551,-3,4,-3
173357670,-0.5152587890625,-0.51104736328125,0.4534912109375,-0.51739501953125,9707,-1267,653,-4,4,6
173367648,-0.51416015625,-0.50897216796875,0.455078125,-0.5191650390625,9655,-1635,750,-4,3,17
173377632,-0.51214599609375,-0.5062255859375,0.45758056640625,-0.521728515625,9612,-1914,787,-4,2,31
173387614,-0.50897216796875,-0.502685546875,0.46112060546875,-0.52508544921875,9586,-2120,770,-4,1,48
173397600,-0.504638671875,-0.498291015625,0.4658203125,-0.52923583984375,9544,-2258,730,-5,-1,65
173407578,-0.49920654296875,-0.492919921875,0.47174072265625,-0.5341796875,9523,-2380,720,-7,-3,82
173417560,-0.49267578125,-0.4866943359375,0.478759765625,-0.5396728515625,9543,-2512,714,-9,-5,97
173427543,-0.4853515625,-0.4796142578125,0.48663330078125,-0.54559326171875,9608,-2647,704,-12,-7,108
173437524,-0.4775390625,-0.47186279296875,0.49517822265625,-0.551513671875,9708,-2771,661,-15,-7,115
173447510,-0.46954345703125,-0.46356201171875,0.50408935546875,-0.55731201171875,9876,-2901,594,-19,-7,119
173457491,-0.4615478515625,-0.454833984375,0.51318359375,-0.56280517578125,10102,-3032,520,-23,-7,121
173467472,-0.45379638671875,-0.44580078125,0.5223388671875,-0.56793212890625,10393,-3188,436,-27,-5,120
173477464,-0.4464111328125,-0.4365234375,0.53131103515625,-0.5726318359375,10686,-3344,378,-30,-3,118
173487452,-0.43951416015625,-0.4268798828125,0.5401611328125,-0.57696533203125,10993,-3443,340,-34,0,118
173497431,-0.432861328125,-0.41668701171875,0.54901123046875,-0.5810546875,11252,-3523,288,-38,3,121
173507407,-0.426025390625,-0.40557861328125,0.55804443359375,-0.5853271484375,11517,-3587,241,-41,7,131
173517388,-0.41851806640625,-0.39306640625,0.567626953125,-0.590087890625,11719,-3662,179,-44,11,146
173527372,-0.40997314453125,-0.3787841796875,0.57781982421875,-0.59552001953125,11880,-3766,176,-46,14,167
173537356,-0.40008544921875,-0.362548828125,0.58868408203125,-0.60162353515625,12043,-3909,175,-48,17,189
173547338,-0.388916015625,-0.34442138671875,0.59991455078125,-0.60845947265625,12178,-4095,179,-49,21,208
173557320,-0.37677001953125,-0.32470703125,0.611328125,-0.6156005859375,12271,-4362,193,-50,24,223
173567302,-0.36383056640625,-0.3037109375,0.6224365234375,-0.6229248046875,12202,-4697,237,-50,28,231
173577281,-0.3504638671875,-0.28179931640625,0.63299560546875,-0.63018798828125,12010,-5081,296,-49,31,236
173587273,-0.336669921875,-0.25921630859375,0.6429443359375,-0.63726806640625,11705,-5468,371,-48,33,240
173597256,-0.3223876953125,-0.23602294921875,0.6522216796875,-0.64422607421875,11330,-5859,462,-46,35,244
173607240,-0.307373046875,-0.21234130859375,0.6607666015625,-0.65106201171875,10907,-6253,555,-43,35,249
173617227,-0.29156494140625,-0.1881103515625,0.66851806640625,-0.65777587890625,10398,-6643,682,-40,34,254
173627210,-0.27484130859375,-0.1634521484375,0.67547607421875,-0.6644287109375,9857,-6996,805,-36,33,261
173637190,-0.25714111328125,-0.138427734375,0.68157958984375,-0.67095947265625,9272,-7275,949,-33,30,268
173647165,-0.23828125,-0.113037109375,0.6868896484375,-0.67724609375,8658,-7518,1058,-29,27,274
173657147,-0.218505859375,-0.0875244140625,0.6912841796875,-0.68316650390625,8092,-7738,1141,-26,24,279
173667129,-0.19793701171875,-0.06219482421875,0.69482421875,-0.6885986328125,7566,-7954,1200,-24,20,281
173677111,-0.17669677734375,-0.037109375,0.697509765625,-0.6934814453125,7051,-8136,1226,-21,16,282
173687095,-0.15509033203125,-0.012451171875,0.69927978515625,-0.69775390625,6522,-8243,1230,-19,13,281
173697077,-0.13311767578125,0.01165771484375,0.70025634765625,-0.7012939453125,5967,-8321,1200,-17,9,279
173707059,-0.111083984375,0.0350341796875,0.700439453125,-0.70416259765625,5421,-8367,1160,-16,6,274
173717041,-0.08917236328125,0.0576171875,0.699951171875,-0.70623779296875,4874,-8361,1117,-16,3,268
173727027,-0.0672607421875,0.07958984375,0.69879150390625,-0.70770263671875,4338,-8312,1080,-15,0,265
173737009,-0.045166015625,0.10101318359375,0.6968994140625,-0.70855712890625,3783,-8248,1027,-14,-3,264
173746984,-0.022705078125,0.12200927734375,0.69439697265625,-0.70880126953125,3213,-8148,1012,-14,-6,263
173756966,6.103515625e-05,0.142578125,0.691162109375,-0.70849609375,2649,-8014,967,-14,-10,263
173766948,0.0230712890625,0.16253662109375,0.68743896484375,-0.70745849609375,2134,-7839,880,-14,-14,259
173776932,0.0460205078125,0.181640625,0.68328857421875,-0.7056884765625,1674,-7634,793,-16,-18,255
173786912,0.06866455078125,0.1998291015625,0.6788330078125,-0.7032470703125,1250,-7374,660,-18,-20,249
173796895,0.091064453125,0.21734619140625,0.67413330078125,-0.699951171875,823,-7071,511,-20,-22,244
173806877,0.11334228515625,0.234130859375,0.66925048828125,-0.69598388671875,395,-6744,378,-23,-24,239
173816859,0.13525390625,0.25018310546875,0.66424560546875,-0.6912841796875,-26,-6451,211,-25,-25,233
173826842,0.156494140625,0.26519775390625,0.65924072265625,-0.68597412109375,-392,-6198,91,-28,-27,223
173836825,0.1768798828125,0.2789306640625,0.654296875,-0.68023681640625,-724,-5939,-22,-30,-28,211
173846804,0.19635009765625,0.29156494140625,0.6495361328125,-0.67413330078125,-1008,-5643,-116,-33,-29,200
173856796,0.2152099609375,0.30328369140625,0.64483642578125,-0.667724609375,-1286,-5310,-195,-35,-29,192
173866778,0.23382568359375,0.31451416015625,0.6400146484375,-0.660888671875,-1550,-4938,-246,-36,-30,189
173876754,0.25244140625,0.32550048828125,0.63494873046875,-0.653564453125,-1815,-4581,-282,-38,-31,190
173886737,0.27117919921875,0.33636474609375,0.62945556640625,-0.64581298828125,-2084,-4245,-313,-39,-31,190
173896719,0.289794921875,0.34698486328125,0.62371826171875,-0.63763427734375,-2316,-3918,-365,-39,-32,190
173906703,0.30810546875,0.35723876953125,0.6177978515625,-0.62908935546875,-2552,-3593,-406,-39,-32,186
173916684,0.3258056640625,0.36700439453125,0.6116943359375,-0.62042236328125,-2792,-3233,-431,-39,-31,179
173926670,0.34283447265625,0.3759765625,0.6055908203125,-0.61181640625,-3004,-2861,-444,-39,-32,171
173936649,0.35888671875,0.38421630859375,0.599609375,-0.60333251953125,-3216,-2500,-460,-38,-31,159
173946632,0.3739013671875,0.391357421875,0.59393310546875,-0.59515380859375,-3416,-2133,-425,-38,-31,146
173956614,0.3876953125,0.39752197265625,0.5885009765625,-0.58758544921875,-3583,-1765,-379,-36,-31,131
173966596,0.4002685546875,0.40252685546875,0.58355712890625,-0.5806884765625,-3726,-1416,-311,-34,-31,115
173976582,0.41156005859375,0.406494140625,0.57891845703125,-0.57464599609375,-3887,-1050,-219,-31,-31,98
173986566,0.42156982421875,0.409423828125,0.57470703125,-0.56951904296875,-4048,-717,-95,-27,-31,82
173996547,0.43011474609375,0.41131591796875,0.5709228515625,-0.56549072265625,-4195,-410,56,-23,-30,64
174006531,0.437255859375,0.4122314453125,0.567626953125,-0.562744140625,-4347,-101,244,-18,-30,45
174016510,0.44281005859375,0.412109375,0.56475830078125,-0.56134033203125,-4547,207,448,-12,-29,26
174026493,0.44696044921875,0.41107177734375,0.56219482421875,-0.56134033203125,-4750,539,658,-6,-30,8
174036472,0.44964599609375,0.4093017578125,0.55999755859375,-0.56268310546875,-4958,877,866,0,-30,-10
174046458,0.4510498046875,0.40679931640625,0.5579833984375,-0.5654296875,-5159,1202,1044,7,-30,-26
174056442,0.4510498046875,0.40362548828125,0.55621337890625,-0.56939697265625,-5337,1505,1204,14,-30,-42
174066425,0.44964599609375,0.39984130859375,0.5546875,-0.57464599609375,-5449,1756,1331,21,-30,-57
174076401,0.44696044921875,0.3955078125,0.5533447265625,-0.58099365234375,-5517,1972,1426,27,-30,-71
174086385,0.44305419921875,0.3907470703125,0.5521240234375,-0.58831787109375,-5540,2138,1491,33,-28,-82
174096365,0.438232421875,0.38580322265625,0.5509033203125,-0.5963134765625,-5504,2273,1542,37,-28,-90
174106348,0.43255615234375,0.3807373046875,0.54962158203125,-0.60479736328125,-5406,2350,1556,42,-27,-95
174116331,0.4261474609375,0.3756103515625,0.54833984375,-0.6136474609375,-5236,2385,1527,45,-25,-100
174126317,0.4188232421875,0.3704833984375,0.5472412109375,-0.62274169921875,-4991,2359,1440,48,-22,-106
174136298,0.41033935546875,0.3651123046875,0.5465087890625,-0.63214111328125,-4686,2311,1318,51,-18,-114
174146277,0.400634765625,0.3594970703125,0.5462646484375,-0.6417236328125,-4378,2234,1203,52,-13,-123
174156269,0.3896484375,0.3536376953125,0.5465087890625,-0.65142822265625,-4086,2126,1091,53,-8,-132
174166250,0.37738037109375,0.347412109375,0.54736328125,-0.6612548828125,-3808,1992,977,52,-2,-142
174176240,0.36395263671875,0.341064453125,0.5487060546875,-0.6708984375,-3574,1831,870,52,3,-148
174186221,0.349609375,0.33453369140625,0.5504150390625,-0.6802978515625,-3382,1672,786,51,8,-153
174196208,0.3345947265625,0.327880859375,0.55242919921875,-0.68939208984375,-3224,1481,754,49,12,-156
174206189,0.3189697265625,0.32110595703125,0.5546875,-0.69818115234375,-3094,1285,730,47,16,-160
174216160,0.30230712890625,0.31378173828125,0.55743408203125,-0.7066650390625,-2946,1050,710,45,19,-169
174226143,0.2841796875,0.30548095703125,0.5609130859375,-0.71502685546875,-2737,785,715,41,23,-184
174236125,0.26409912109375,0.29583740234375,0.565185546875,-0.723388671875,-2492,511,726,38,26,-203
174246105,0.2418212890625,0.2845458984375,0.5704345703125,-0.73150634765625,-2260,229,721,33,29,-224
174256089,0.2177734375,0.271728515625,0.57635498046875,-0.7392578125,-2098,-41,732,29,30,-241
174266070,0.1925048828125,0.2578125,0.58251953125,-0.74639892578125,-2028,-300,788,24,30,-252
174276054,0.16680908203125,0.2430419921875,0.58868408203125,-0.752685546875,-1973,-581,864,19,29,-255
174286036,0.14117431640625,0.2275390625,0.59466552734375,-0.758056640625,-1855,-884,979,15,26,-255
174296027,0.11578369140625,0.2113037109375,0.600341796875,-0.7625732421875,-1673,-1180,1102,11,21,-254
174306001,0.0908203125,0.1943359375,0.605712890625,-0.76617431640625,-1416,-1536,1215,6,16,-253
174315984,0.06610107421875,0.1763916015625,0.6109619140625,-0.7689208984375,-1068,-1946,1289,2,10,-253
174325965,0.041748046875,0.157470703125,0.615966796875,-0.770751953125,-691,-2384,1338,-1,3,-252
174335948,0.01800537109375,0.137939453125,0.62066650390625,-0.77166748046875,-329,-2844,1385,-5,-4,-249
174345924,-0.0045166015625,0.11810302734375,0.624755859375,-0.77178955078125,13,-3396,1473,-6,-10,-239
174355912,-0.0255126953125,0.09832763671875,0.628173828125,-0.77142333984375,463,-3931,1538,-6,-18,-228
174365891,-0.04522705078125,0.078369140625,0.6309814453125,-0.7705078125,1085,-4466,1608,-5,-24,-217
174375872,-0.064208984375,0.05792236328125,0.63336181640625,-0.76898193359375,1807,-4960,1578,-6,-30,-215
174385856,-0.0831298828125,0.03668212890625,0.63555908203125,-0.7667236328125,2504,-5383,1539,-7,-34,-218
174395839,-0.102294921875,0.01458740234375,0.63751220703125,-0.76348876953125,3144,-5657,1463,-9,-38,-224
174405822,-0.1212158203125,-0.00775146484375,0.63909912109375,-0.75946044921875,3677,-5846,1422,-11,-40,-222
174415800,-0.13897705078125,-0.02960205078125,0.6402587890625,-0.7548828125,4120,-6027,1387,-12,-42,-212
174425791,-0.15484619140625,-0.050048828125,0.64093017578125,-0.7501220703125,4538,-6200,1375,-10,-43,-193
174435774,-0.1688232421875,-0.069091796875,0.64111328125,-0.7454833984375,5154,-6447,1341,-7,-43,-172
174445753,-0.181640625,-0.087158203125,0.640869140625,-0.74072265625,6017,-6805,1227,-5,-42,-161
174455736,-0.19464111328125,-0.1053466796875,0.64031982421875,-0.73553466796875,6938,-7185,1122,-5,-40,-165
174465718,-0.20880126953125,-0.12420654296875,0.63934326171875,-0.72955322265625,7723,-7492,1020,-6,-39,-178
174475701,-0.22393798828125,-0.1436767578125,0.637939453125,-0.72271728515625,8179,-7623,947,-8,-37,-190
174485684,-0.23895263671875,-0.16278076171875,0.6361083984375,-0.71539306640625,8303,-7587,945,-9,-37,-189
174495670,-0.25250244140625,-0.18048095703125,0.6341552734375,-0.70819091796875,8283,-7445,986,-9,-37,-173
174505648,-0.2640380859375,-0.19635009765625,0.632080078125,-0.70159912109375,8448,-7311,1026,-6,-37,-151
174515629,-0.27392578125,-0.21075439453125,0.62994384765625,-0.69549560546875,8920,-7353,946,-4,-34,-134
174525612,-0.2835693359375,-0.2244873046875,0.62774658203125,-0.6893310546875,9654,-7566,790,-3,-30,-132
174535595,-0.2945556640625,-0.2386474609375,0.62481689453125,-0.68255615234375,10573,-7889,618,-4,-24,-148
174545578,-0.30792236328125,-0.25408935546875,0.6209716796875,-0.67462158203125,11432,-8180,436,-5,-18,-176
174555559,-0.3233642578125,-0.2706298828125,0.615966796875,-0.6654052734375,11944,-8304,302,-7,-13,-198
174565544,-0.3394775390625,-0.2872314453125,0.6103515625,-0.65557861328125,12100,-8270,221,-8,-11,-204
174575525,-0.3544921875,-0.30255126953125,0.60455322265625,-0.64605712890625,12088,-8169,226,-7,-10,-191
174585507,-0.36761474609375,-0.31597900390625,0.59906005859375,-0.63726806640625,12130,-8090,224,-6,-9,-169
174595489,-0.37860107421875,-0.32745361328125,0.59423828125,-0.62957763671875,12307,-8136,209,-5,-9,-146
174605468,-0.387939453125,-0.33734130859375,0.58990478515625,-0.6226806640625,12645,-8269,192,-4,-7,-130
174615459,-0.39654541015625,-0.34613037109375,0.5858154296875,-0.61627197265625,13064,-8467,135,-4,-4,-124
174625439,-0.4052734375,-0.3544921875,0.5816650390625,-0.6097412109375,13335,-8623,55,-6,-1,-125
174635426,-0.41400146484375,-0.36212158203125,0.57757568359375,-0.603271484375,13326,-8713,-14,-9,3,-123
174645401,-0.4219970703125,-0.3685302734375,0.573974609375,-0.59722900390625,13047,-8756,-15,-11,4,-110
174655384,-0.4283447265625,-0.373046875,0.5714111328125,-0.59234619140625,12521,-8793,28,-12,4,-86
174665367,-0.43243408203125,-0.37530517578125,0.57025146484375,-0.58905029296875,11894,-8835,103,-13,3,-56
174675347,-0.4339599609375,-0.375244140625,0.57073974609375,-0.5875244140625,11180,-8925,228,-12,1,-24
174685334,-0.43304443359375,-0.3731689453125,0.57257080078125,-0.58770751953125,10412,-9065,439,-12,-2,4
174695307,-0.4302978515625,-0.36968994140625,0.575439453125,-0.589111328125,9673,-9223,652,-11,-6,23
174705291,-0.42633056640625,-0.3656005859375,0.5789794921875,-0.59112548828125,9015,-9336,807,-9,-9,33
174715271,-0.42181396484375,-0.361328125,0.58270263671875,-0.59332275390625,8508,-9431,889,-9,-11,37
174725265,-0.4169921875,-0.35736083984375,0.58648681640625,-0.5953369140625,8139,-9519,896,-8,-14,35
174735247,-0.41217041015625,-0.35369873046875,0.59033203125,-0.59716796875,7909,-9559,873,-8,-16,35
174745227,-0.40704345703125,-0.3499755859375,0.59417724609375,-0.5989990234375,7796,-9599,853,-7,-17,39
174755219,-0.40142822265625,-0.3460693359375,0.5982666015625,-0.60107421875,7812,-9652,795,-7,-18,45
174765208,-0.39520263671875,-0.3416748046875,0.6025390625,-0.6033935546875,7988,-9736,735,-6,-18,53
174775179,-0.38836669921875,-0.33685302734375,0.60699462890625,-0.60601806640625,8243,-9822,655,-5,-18,61
174785155,-0.38092041015625,-0.33148193359375,0.6116943359375,-0.6090087890625,8557,-9871,556,-4,-18,72
174795137,-0.37255859375,-0.32537841796875,0.61663818359375,-0.61248779296875,8929,-9885,459,-3,-18,85
174805119,-0.3629150390625,-0.31805419921875,0.62200927734375,-0.61663818359375,9359,-9882,325,-2,-17,104
174815105,-0.3519287109375,-0.309326171875,0.62786865234375,-0.62152099609375,9821,-9869,175,-1,-16,126
174825092,-0.33941650390625,-0.2989501953125,0.6341552734375,-0.62713623046875,10289,-9857,10,0,-13,148
174835071,-0.3258056640625,-0.286865234375,0.64068603515625,-0.63336181640625,10688,-9841,-129,0,-9,167
174845053,-0.311279296875,-0.2733154296875,0.647216796875,-0.63995361328125,10945,-9849,-227,0,-5,182
174855033,-0.296142578125,-0.25848388671875,0.653564453125,-0.64678955078125,11026,-9869,-260,1,-1,193
174865026,-0.2806396484375,-0.24273681640625,0.6595458984375,-0.65374755859375,11012,-9890,-279,1,2,201
174875000,-0.26483154296875,-0.2261962890625,0.6650390625,-0.66064453125,10940,-9924,-244,2,5,207
174884982,-0.24884033203125,-0.2091064453125,0.67010498046875,-0.6673583984375,10817,-9934,-234,2,8,211
174894964,-0.23272705078125,-0.19171142578125,0.6746826171875,-0.67376708984375,10644,-9906,-229,3,10,214
174904948,-0.21649169921875,-0.173828125,0.67877197265625,-0.67987060546875,10392,-9855,-182,3,12,218
174914930,-0.2000732421875,-0.155517578125,0.682373046875,-0.6856689453125,10084,-9761,-98,3,12,223
174924912,-0.1832275390625,-0.13665771484375,0.685546875,-0.69122314453125,9686,-9706,13,3,14,227
174934893,-0.1658935546875,-0.1171875,0.68829345703125,-0.6964111328125,9269,-9706,134,2,14,233
174944877,-0.148193359375,-0.0972900390625,0.69061279296875,-0.701171875,8799,-9693,232,2,15,238
174954859,-0.1298828125,-0.07684326171875,0.69244384765625,-0.70550537109375,8275,-9649,310,2,15,243
174964841,-0.1109619140625,-0.05596923828125,0.69384765625,-0.7093505859375,7713,-9578,367,2,14,248
174974824,-0.09149169921875,-0.03485107421875,0.6947021484375,-0.71258544921875,7140,-9461,417,2,12,252
174984804,-0.07159423828125,-0.0135498046875,0.695068359375,-0.7152099609375,6594,-9296,461,1,11,255
174994795,-0.051513671875,0.007568359375,0.6949462890625,-0.7171630859375,6053,-9143,481,0,9,255
175004778,-0.031494140625,0.02838134765625,0.6943359375,-0.7183837890625,5515,-8997,515,-1,8,251
175014750,-0.01165771484375,0.048583984375,0.6932373046875,-0.718994140625,4941,-8815,588,-2,6,247
175024734,0.00830078125,0.06854248046875,0.691650390625,-0.71893310546875,4360,-8567,635,-4,4,245
175034716,0.02850341796875,0.0882568359375,0.68951416015625,-0.71826171875,3797,-8304,670,-4,2,246
175044700,0.049072265625,0.10791015625,0.68695068359375,-0.71697998046875,3270,-8040,686,-5,-1,248
175054678,0.06982421875,0.12738037109375,0.683837890625,-0.7149658203125,2775,-7765,655,-6,-2,248
175064660,0.09063720703125,0.14654541015625,0.68035888671875,-0.71234130859375,2307,-7477,597,-7,-4,246
175074645,0.11102294921875,0.16510009765625,0.676513671875,-0.708984375,1855,-7217,517,-8,-4,240
175084625,0.1304931640625,0.1826171875,0.672607421875,-0.70513916015625,1499,-6948,396,-10,-5,228
175094609,0.1488037109375,0.198974609375,0.66864013671875,-0.7008056640625,1167,-6676,253,-11,-4,215
175104590,0.166015625,0.21429443359375,0.66485595703125,-0.696044921875,842,-6395,107,-13,-5,204
175114577,0.1826171875,0.2288818359375,0.6610107421875,-0.69091796875,463,-6116,18,-15,-5,197
175124557,0.19903564453125,0.24310302734375,0.656982421875,-0.68536376953125,24,-5852,-60,-16,-5,194
175134538,0.21539306640625,0.25701904296875,0.652587890625,-0.67938232421875,-458,-5602,-99,-17,-7,192
175144522,0.23187255859375,0.27056884765625,0.64788818359375,-0.6732177734375,-934,-5338,-115,-18,-9,190
175154504,0.2481689453125,0.28350830078125,0.6429443359375,-0.66680908203125,-1355,-5078,-98,-18,-13,186
175164485,0.26422119140625,0.295654296875,0.6376953125,-0.660400390625,-1725,-4786,-72,-18,-15,179
175174465,0.2799072265625,0.306884765625,0.63238525390625,-0.65386962890625,-2022,-4470,-71,-19,-18,172
175184457,0.295166015625,0.3172607421875,0.62701416015625,-0.6473388671875,-2239,-4141,-69,-20,-21,165
175194439,0.31011962890625,0.326904296875,0.62152099609375,-0.6407470703125,-2397,-3827,-79,-20,-23,160
175204415,0.32489013671875,0.336181640625,0.615966796875,-0.634033203125,-2555,-3516,-125,-21,-25,158
175214397,0.33966064453125,0.34521484375,0.61016845703125,-0.62701416015625,-2688,-3217,-165,-22,-25,158
175224384,0.3544921875,0.3541259765625,0.60406494140625,-0.61968994140625,-2850,-2922,-185,-22,-27,159
175234365,0.36920166015625,0.36285400390625,0.59765625,-0.6121826171875,-3012,-2635,-199,-21,-27,158
175244349,0.3837890625,0.3714599609375,0.59088134765625,-0.6046142578125,-3189,-2324,-183,-20,-28,157
175254334,0.3980712890625,0.3798828125,0.58380126953125,-0.59698486328125,-3348,-1988,-170,-18,-28,154
175264317,0.411865234375,0.38800048828125,0.57647705078125,-0.58941650390625,-3487,-1653,-146,-17,-28,150
175274298,0.4251708984375,0.39581298828125,0.56903076171875,-0.58203125,-3602,-1303,-84,-15,-28,145
175284277,0.437744140625,0.4031982421875,0.5614013671875,-0.57489013671875,-3733,-953,35,-12,-27,137
175294268,0.4493408203125,0.41009521484375,0.55389404296875,-0.568359375,-3858,-597,182,-9,-26,126
175304251,0.4595947265625,0.41619873046875,0.54669189453125,-0.56268310546875,-3977,-251,337,-4,-24,110
175314240,0.46844482421875,0.42144775390625,0.53985595703125,-0.55804443359375,-4083,135,492,0,-23,93
175324223,0.47564697265625,0.4259033203125,0.5335693359375,-0.5545654296875,-4218,538,659,5,-21,74
175334208,0.4814453125,0.42950439453125,0.52783203125,-0.55230712890625,-4382,974,824,9,-21,55
175344187,0.48583984375,0.43231201171875,0.52252197265625,-0.55133056640625,-4608,1415,990,14,-20,37
175354158,0.4888916015625,0.434326171875,0.5177001953125,-0.55157470703125,-4842,1854,1151,19,-20,19
175364141,0.4906005859375,0.435546875,0.5133056640625,-0.55322265625,-5014,2279,1315,24,-21,1
175374117,0.4908447265625,0.43597412109375,0.509521484375,-0.55615234375,-5125,2667,1428,29,-21,-17
175384098,0.48980712890625,0.43560791015625,0.50628662109375,-0.560302734375,-5207,2990,1520,33,-21,-34
175394085,0.487548828125,0.43438720703125,0.50360107421875,-0.56561279296875,-5274,3264,1591,36,-22,-50
175404064,0.4842529296875,0.43255615234375,0.50128173828125,-0.5718994140625,-5312,3468,1625,38,-23,-62
175414048,0.4798583984375,0.4300537109375,0.49951171875,-0.5789794921875,-5302,3583,1642,41,-23,-75
175424030,0.47442626953125,0.42694091796875,0.4981689453125,-0.58685302734375,-5232,3641,1619,42,-23,-87
175434017,0.4677734375,0.423095703125,0.49749755859375,-0.595458984375,-5114,3613,1566,44,-21,-100
175443993,0.4598388671875,0.41851806640625,0.49761962890625,-0.60479736328125,-4991,3513,1498,45,-20,-115
175453978,0.450439453125,0.4130859375,0.4984130859375,-0.61480712890625,-4843,3375,1426,45,-18,-129
175463960,0.4395751953125,0.4068603515625,0.50006103515625,-0.6253662109375,-4696,3199,1331,45,-15,-144
175473942,0.42742919921875,0.39990234375,0.50238037109375,-0.63641357421875,-4537,3010,1213,45,-13,-157
175483925,0.41387939453125,0.39208984375,0.50537109375,-0.647705078125,-4364,2790,1132,45,-11,-169
175493912,0.399169921875,0.383544921875,0.50885009765625,-0.65924072265625,-4143,2525,1057,44,-9,-180
175503893,0.38330078125,0.374267578125,0.51287841796875,-0.6707763671875,-3870,2233,980,43,-7,-188
175513874,0.3663330078125,0.3642578125,0.51739501953125,-0.68218994140625,-3588,1932,887,41,-4,-197
175523856,0.348388671875,0.3536376953125,0.5223388671875,-0.693359375,-3293,1618,831,39,-1,-204
175533842,0.3294677734375,0.34246826171875,0.52752685546875,-0.70416259765625,-3040,1279,797,36,1,-210
175543822,0.30975341796875,0.3306884765625,0.53302001953125,-0.71453857421875,-2819,933,786,34,4,-215
175553800,0.289306640625,0.31829833984375,0.53875732421875,-0.724365234375,-2628,586,801,31,5,-221
175563792,0.26824951171875,0.3052978515625,0.5445556640625,-0.733642578125,-2478,242,829,28,6,-226
175573775,0.24658203125,0.29150390625,0.55047607421875,-0.74237060546875,-2318,-107,871,24,5,-230
175583752,0.224609375,0.27685546875,0.55645751953125,-0.75048828125,-2165,-442,928,20,3,-234
175593735,0.202392578125,0.26129150390625,0.56231689453125,-0.75799560546875,-2013,-787,1038,16,0,-238
175603717,0.179931640625,0.24481201171875,0.56805419921875,-0.76483154296875,-1814,-1177,1123,13,-4,-240
175613697,0.15740966796875,0.227294921875,0.57366943359375,-0.77099609375,-1547,-1606,1193,9,-8,-242
175623688,0.13482666015625,0.20880126953125,0.5792236328125,-0.7763671875,-1215,-2046,1274,5,-13,-244
175633670,0.1123046875,0.18939208984375,0.58453369140625,-0.7808837890625,-839,-2582,1343,2,-18,-245
175643648,0.08966064453125,0.16888427734375,0.5897216796875,-0.78466796875,-369,-3168,1398,-1,-22,-247
175653628,0.066650390625,0.147216796875,0.59466552734375,-0.78759765625,157,-3884,1478,-3,-27,-252
175663610,0.04339599609375,0.12445068359375,0.5992431640625,-0.7896728515625,752,-4445,1526,-5,-31,-256
175673592,0.01983642578125,0.10064697265625,0.603515625,-0.790771484375,1416,-4938,1538,-7,-35,-260
175683577,-0.00372314453125,0.0762939453125,0.6072998046875,-0.79083251953125,2036,-5328,1523,-9,-38,-260
175693556,-0.02655029296875,0.05194091796875,0.610595703125,-0.789794921875,2619,-5632,1488,-12,-40,-253
175703539,-0.048095703125,0.02813720703125,0.6134033203125,-0.78778076171875,3184,-5854,1445,-14,-42,-240
175713522,-0.06768798828125,0.005615234375,0.61566162109375,-0.78509521484375,3638,-6063,1433,-15,-44,-220
175723504,-0.0849609375,-0.0152587890625,0.61749267578125,-0.78179931640625,4064,-6323,1402,-15,-45,-197
175733490,-0.10003662109375,-0.0345458984375,0.61895751953125,-0.77825927734375,4460,-6604,1399,-14,-45,-176
175743467,-0.113525390625,-0.0526123046875,0.62005615234375,-0.7745361328125,4883,-6912,1420,-14,-46,-162
175753462,-0.12615966796875,-0.0701904296875,0.62078857421875,-0.77056884765625,5311,-7237,1424,-13,-46,-157
175763443,-0.138916015625,-0.08795166015625,0.6212158203125,-0.7662353515625,5714,-7469,1448,-13,-47,-162
175773425,-0.1519775390625,-0.1060791015625,0.62127685546875,-0.7613525390625,5982,-7545,1434,-13,-48,-167
175783402,-0.1650390625,-0.1241455078125,0.62103271484375,-0.756103515625,6155,-7503,1386,-13,-48,-168
175793385,-0.1773681640625,-0.1417236328125,0.62054443359375,-0.75054931640625,6209,-7411,1372,-13,-49,-162
175803367,-0.18853759765625,-0.158447265625,0.619873046875,-0.7451171875,6272,-7322,1381,-12,-50,-151
175813351,-0.19866943359375,-0.17437744140625,0.61883544921875,-0.73974609375,6501,-7354,1392,-9,-50,-142
175823333,-0.20843505859375,-0.190185546875,0.617431640625,-0.73431396484375,7001,-7589,1386,-7,-50,-142
175833315,-0.21917724609375,-0.206787109375,0.61529541015625,-0.72845458984375,7766,-7989,1313,-4,-48,-157
175843298,-0.23236083984375,-0.22515869140625,0.61212158203125,-0.7215576171875,8738,-8444,1182,-2,-44,-186
175853277,-0.24871826171875,-0.2457275390625,0.60748291015625,-0.7132568359375,9728,-8797,1026,-2,-40,-221
175863269,-0.26763916015625,-0.26776123046875,0.601318359375,-0.70361328125,10501,-8959,912,-2,-36,-248
175873250,-0.2872314453125,-0.289794921875,0.5941162109375,-0.6932373046875,11000,-8936,868,-2,-32,-253
175883240,-0.3056640625,-0.31024169921875,0.58648681640625,-0.68292236328125,11304,-8831,881,0,-29,-237
175893224,-0.3216552734375,-0.328125,0.57904052734375,-0.67352294921875,11459,-8774,941,2,-26,-210
175903208,-0.3345947265625,-0.34307861328125,0.57232666015625,-0.66546630859375,11615,-8798,1013,5,-23,-176
175913188,-0.34466552734375,-0.35516357421875,0.56646728515625,-0.658935546875,11816,-8865,1089,8,-20,-143
175923159,-0.35247802734375,-0.36492919921875,0.5614013671875,-0.65380859375,12017,-8936,1152,9,-16,-119
175933141,-0.35888671875,-0.37298583984375,0.55682373046875,-0.64971923828125,12089,-8930,1211,11,-12,-102
175943122,-0.3643798828125,-0.3798828125,0.552490234375,-0.64630126953125,12046,-8907,1246,12,-9,-91
175953105,-0.36920166015625,-0.3857421875,0.5484619140625,-0.6435546875,11913,-8880,1233,12,-6,-83
175963088,-0.37353515625,-0.39080810546875,0.54473876953125,-0.64111328125,11669,-8844,1215,12,-3,-76
175973069,-0.3773193359375,-0.39520263671875,0.541259765625,-0.63916015625,11373,-8805,1220,12,-2,-69
175983048,-0.38055419921875,-0.39898681640625,0.53814697265625,-0.63751220703125,11010,-8804,1244,12,-2,-64
175993036,-0.3834228515625,-0.4024658203125,0.53509521484375,-0.63616943359375,10577,-8761,1331,12,-3,-61
176003024,-0.38592529296875,-0.40582275390625,0.5321044921875,-0.635009765625,10080,-8670,1446,14,-4,-59
176013000,-0.38824462890625,-0.40924072265625,0.52911376953125,-0.6339111328125,9584,-8493,1541,15,-6,-59
176022982,-0.39044189453125,-0.41278076171875,0.52606201171875,-0.6328125,9158,-8245,1597,16,-7,-58
176032965,-0.39227294921875,-0.41632080078125,0.5230712890625,-0.6318359375,8791,-7963,1603,17,-8,-54
176042948,-0.3934326171875,-0.41943359375,0.52044677734375,-0.6312255859375,8508,-7716,1614,17,-8,-44
176052929,-0.39373779296875,-0.42181396484375,0.51837158203125,-0.63116455078125,8390,-7570,1630,17,-8,-32
176062912,-0.3931884765625,-0.42340087890625,0.51690673828125,-0.63165283203125,8442,-7515,1652,17,-7,-21
176072893,-0.391845703125,-0.42425537109375,0.51605224609375,-0.63262939453125,8625,-7515,1699,16,-7,-11
176082878,-0.3900146484375,-0.424560546875,0.515625,-0.6339111328125,8914,-7545,1739,16,-7,-3
176092859,-0.3875732421875,-0.42425537109375,0.515625,-0.63555908203125,9271,-7580,1738,14,-6,6
176102843,-0.38433837890625,-0.423095703125,0.51641845703125,-0.6376953125,9646,-7626,1726,13,-5,19
176112825,-0.3800048828125,-0.4207763671875,0.51812744140625,-0.64044189453125,9995,-7656,1686,11,-4,38
176122806,-0.3740234375,-0.4168701171875,0.52105712890625,-0.64410400390625,10322,-7705,1658,9,-2,62
176136030,-0.3662109375,-0.4110107421875,0.525390625,-0.64886474609375,10543,-7772,1653,7,-1,90
176142779,-0.356201171875,-0.40313720703125,0.53106689453125,-0.65472412109375,10685,-7852,1685,4,0,119
176152753,-0.3441162109375,-0.3931884765625,0.5379638671875,-0.66156005859375,10748,-7955,1748,3,1,147
176162735,-0.3302001953125,-0.38140869140625,0.54583740234375,-0.66900634765625,10821,-8108,1798,1,2,169
176172715,-0.31500244140625,-0.3682861328125,0.55426025390625,-0.6767578125,10939,-8280,1822,0,3,185
176182697,-0.29888916015625,-0.35406494140625,0.56292724609375,-0.68450927734375,11087,-8458,1796,-1,6,197
176192679,-0.2822265625,-0.33892822265625,0.571533203125,-0.69195556640625,11219,-8627,1752,-3,9,205
176202659,-0.2655029296875,-0.32305908203125,0.57989501953125,-0.69921875,11318,-8779,1734,-4,13,210
176212642,-0.2486572265625,-0.3065185546875,0.587890625,-0.70611572265625,11367,-8913,1726,-5,17,215
176222624,-0.23175048828125,-0.2891845703125,0.5955810546875,-0.7127685546875,11303,-9043,1727,-6,21,220
176232608,-0.214599609375,-0.2711181640625,0.60284423828125,-0.71905517578125,11177,-9147,1729,-6,24,225
176242589,-0.19720458984375,-0.2523193359375,0.60980224609375,-0.72503662109375,10945,-9218,1710,-7,27,231
176252577,-0.1793212890625,-0.23260498046875,0.6163330078125,-0.73065185546875,10613,-9266,1715,-7,30,238
176262555,-0.16082763671875,-0.2120361328125,0.62255859375,-0.7359619140625,10212,-9283,1745,-7,32,246
176272536,-0.141845703125,-0.1907958984375,0.62823486328125,-0.7408447265625,9762,-9320,1784,-6,33,252
176282518,-0.12255859375,-0.169189453125,0.63336181640625,-0.74517822265625,9341,-9342,1836,-6,34,255
176292500,-0.1031494140625,-0.14715576171875,0.63787841796875,-0.7489013671875,8907,-9401,1857,-6,36,257
176302484,-0.083740234375,-0.12493896484375,0.641845703125,-0.751953125,8459,-9450,1839,-5,37,258
176312472,-0.06427001953125,-0.10247802734375,0.6451416015625,-0.75439453125,7926,-9447,1807,-5,38,259
176322455,-0.04449462890625,-0.0797119140625,0.6478271484375,-0.75634765625,7335,-9418,1798,-3,38,261
176332438,-0.0242919921875,-0.05670166015625,0.6497802734375,-0.75762939453125,6753,-9345,1773,-2,37,266
176342413,-0.00360107421875,-0.033447265625,0.65106201171875,-0.75823974609375,6165,-9216,1731,-1,36,269
176352400,0.01751708984375,-0.01007080078125,0.65167236328125,-0.75823974609375,5557,-9073,1683,0,34,272
176362384,0.03900146484375,0.01324462890625,0.651611328125,-0.75738525390625,4983,-8922,1630,0,32,274
176372362,0.060546875,0.036376953125,0.65087890625,-0.755859375,4448,-8751,1527,1,30,273
176382343,0.08197021484375,0.05902099609375,0.64947509765625,-0.753662109375,3916,-8562,1432,1,27,270
176392328,0.1029052734375,0.08099365234375,0.6474609375,-0.75079345703125,3436,-8338,1328,2,26,263
176402312,0.12322998046875,0.10223388671875,0.64495849609375,-0.74725341796875,2963,-8063,1214,1,24,256
176412294,0.1431884765625,0.1226806640625,0.64202880859375,-0.7431640625,2471,-7707,1102,1,22,250
176422273,0.1629638671875,0.14276123046875,0.63861083984375,-0.7384033203125,1946,-7285,1011,0,19,248
176432266,0.1829833984375,0.1624755859375,0.6346435546875,-0.7330322265625,1420,-6881,918,-2,16,247
176442246,0.2030029296875,0.1817626953125,0.63031005859375,-0.7269287109375,887,-6508,810,-3,13,244
176452227,0.22265625,0.2003173828125,0.625732421875,-0.72021484375,382,-6156,691,-5,10,238
176462217,0.24163818359375,0.21771240234375,0.6209716796875,-0.713134765625,-48,-5843,580,-7,7,227
176472200,0.259521484375,0.233642578125,0.6162109375,-0.7059326171875,-386,-5566,485,-8,4,213
176482177,0.27630615234375,0.24810791015625,0.61151123046875,-0.69866943359375,-664,-5297,405,-10,2,200
176492151,0.29217529296875,0.2613525390625,0.60687255859375,-0.69134521484375,-888,-5036,316,-12,-1,188
176502130,0.307373046875,0.27362060546875,0.60235595703125,-0.6839599609375,-1066,-4791,220,-13,-3,180
176512112,0.32208251953125,0.28515625,0.5977783203125,-0.67645263671875,-1225,-4538,139,-14,-4,176
176522095,0.336669921875,0.29638671875,0.593017578125,-0.66864013671875,-1392,-4284,60,-15,-6,174
176532077,0.35125732421875,0.307373046875,0.58807373046875,-0.6605224609375,-1554,-4018,-27,-16,-7,174
176542060,0.36578369140625,0.31829833984375,0.5828857421875,-0.65203857421875,-1699,-3746,-114,-16,-7,174
176552042,0.38018798828125,0.32904052734375,0.57745361328125,-0.64324951171875,-1851,-3476,-211,-17,-7,174
176562030,0.3941650390625,0.33953857421875,0.57183837890625,-0.63427734375,-2010,-3199,-284,-16,-8,170
176572014,0.40777587890625,0.34967041015625,0.56610107421875,-0.625244140625,-2177,-2889,-326,-16,-8,165
176581990,0.42083740234375,0.35931396484375,0.560302734375,-0.61627197265625,-2338,-2584,-321,-16,-8,158
176591971,0.43304443359375,0.3682861328125,0.55462646484375,-0.60760498046875,-2489,-2290,-294,-15,-8,149
176601955,0.44451904296875,0.37652587890625,0.549072265625,-0.5992431640625,-2632,-2014,-232,-15,-8,140
176611936,0.45513916015625,0.3841552734375,0.543701171875,-0.59130859375,-2779,-1774,-172,-14,-7,129
176621919,0.46490478515625,0.39111328125,0.53857421875,-0.583740234375,-2947,-1537,-88,-13,-7,121
176631900,0.4739990234375,0.397705078125,0.53350830078125,-0.57659912109375,-3133,-1292,29,-11,-6,114
176641884,0.4825439453125,0.40399169921875,0.5284423828125,-0.5697021484375,-3361,-1031,141,-10,-6,108
176651865,0.49066162109375,0.41021728515625,0.52325439453125,-0.56317138671875,-3603,-744,254,-7,-5,103
176661849,0.498291015625,0.41632080078125,0.51788330078125,-0.556884765625,-3853,-427,382,-3,-5,100
176671836,0.50543212890625,0.4224853515625,0.5123291015625,-0.5509033203125,-4125,-82,504,0,-4,95
176681818,0.51202392578125,0.428466796875,0.5067138671875,-0.54534912109375,-4390,226,643,4,-4,89
176691804,0.51788330078125,0.43426513671875,0.5010986328125,-0.5404052734375,-4588,547,796,8,-3,81
176701787,0.52294921875,0.4398193359375,0.49554443359375,-0.53619384765625,-4709,847,949,12,-3,72
176711770,0.52728271484375,0.44500732421875,0.489990234375,-0.53277587890625,-4803,1162,1108,17,-4,64
176721746,0.531005859375,0.45013427734375,0.4842529296875,-0.5299072265625,-4949,1514,1284,22,-4,59
176731727,0.53448486328125,0.45538330078125,0.47808837890625,-0.52752685546875,-5150,1919,1472,26,-5,57
176741710,0.53759765625,0.460693359375,0.47161865234375,-0.52557373046875,-5337,2343,1624,31,-6,52
176751693,0.54010009765625,0.4656982421875,0.46502685546875,-0.5245361328125,-5587,2761,1806,36,-9,41
176761675,0.54144287109375,0.47003173828125,0.458740234375,-0.5247802734375,-5870,3199,1948,41,-11,25
176771658,0.5416259765625,0.4736328125,0.45294189453125,-0.5263671875,-6096,3630,2035,45,-13,7
176781639,0.54046630859375,0.47637939453125,0.44793701171875,-0.5294189453125,-6252,4011,2059,48,-14,-12
176791619,0.53790283203125,0.478271484375,0.44378662109375,-0.5338134765625,-6300,4334,2001,50,-15,-32
176801603,0.533935546875,0.479248046875,0.4405517578125,-0.53948974609375,-6251,4587,1899,51,-16,-51
176811589,0.5286865234375,0.479248046875,0.4384765625,-0.54638671875,-6141,4736,1762,52,-15,-69
176821577,0.5220947265625,0.47833251953125,0.43743896484375,-0.55419921875,-5985,4792,1614,51,-14,-86
176831552,0.51446533203125,0.4765625,0.4375,-0.56280517578125,-5810,4789,1456,49,-14,-101
176841534,0.50567626953125,0.47393798828125,0.43853759765625,-0.57208251953125,-5626,4713,1305,47,-12,-115
176851516,0.49591064453125,0.47052001953125,0.44061279296875,-0.581787109375,-5435,4575,1172,45,-10,-128
176861502,0.48516845703125,0.46624755859375,0.44366455078125,-0.5919189453125,-5205,4364,1062,42,-8,-140
176871484,0.473388671875,0.46112060546875,0.44775390625,-0.602294921875,-4979,4111,949,39,-6,-152
176881472,0.4605712890625,0.4552001953125,0.45281982421875,-0.61285400390625,-4775,3826,832,35,-3,-162
176891456,0.4468994140625,0.4483642578125,0.4588623046875,-0.62347412109375,-4580,3515,738,31,-1,-173
176901442,0.4322509765625,0.44061279296875,0.4658203125,-0.634033203125,-4428,3178,653,26,1,-184
176911416,0.4166259765625,0.431884765625,0.4736328125,-0.64459228515625,-4289,2806,592,22,3,-195
176921398,0.39996337890625,0.422119140625,0.48236083984375,-0.65509033203125,-4178,2421,520,17,4,-206
176931384,0.38226318359375,0.41119384765625,0.4918212890625,-0.66546630859375,-4075,2002,497,13,5,-218
176941363,0.36322021484375,0.39892578125,0.5020751953125,-0.67584228515625,-3889,1557,478,9,6,-232
176951346,0.3428955078125,0.38525390625,0.51318359375,-0.68603515625,-3611,1127,432,4,7,-245
176961327,0.3211669921875,0.3701171875,0.52490234375,-0.6959228515625,-3305,705,397,0,7,-258
176971305,0.29827880859375,0.35369873046875,0.537109375,-0.70526123046875,-3029,301,370,-5,7,-269
176981290,0.27459716796875,0.3360595703125,0.5494384765625,-0.71392822265625,-2787,-82,367,-9,6,-276
176991275,0.25054931640625,0.3175048828125,0.5616455078125,-0.72174072265625,-2593,-448,374,-14,5,-278
177001258,0.226318359375,0.29815673828125,0.57366943359375,-0.72857666015625,-2438,-809,372,-18,2,-280
177011242,0.2021484375,0.27801513671875,0.58526611328125,-0.734375,-2281,-1182,400,-21,-1,-279
177021225,0.17803955078125,0.2569580078125,0.596435546875,-0.7392578125,-2016,-1628,467,-25,-5,-279
177031209,0.1539306640625,0.2349853515625,0.607177734375,-0.7432861328125,-1629,-2133,502,-28,-9,-278
177041190,0.12994384765625,0.21209716796875,0.61737060546875,-0.74627685546875,-1166,-2613,519,-31,-14,-277
177051161,0.1063232421875,0.1885986328125,0.62701416015625,-0.748291015625,-686,-3056,503,-33,-18,-273
177061142,0.0833740234375,0.16485595703125,0.63592529296875,-0.74932861328125,-214,-3443,501,-34,-22,-266
177071126,0.06146240234375,0.14117431640625,0.6439208984375,-0.74945068359375,239,-3807,521,-35,-26,-257
177081109,0.04034423828125,0.11767578125,0.65106201171875,-0.748779296875,715,-4203,538,-35,-28,-249
177091091,0.01983642578125,0.09423828125,0.65753173828125,-0.74725341796875,1267,-4637,518,-35,-31,-244
177101073,-0.0008544921875,0.0701904296875,0.663330078125,-0.74505615234375,1893,-5132,498,-35,-33,-247
177111055,-0.022216796875,0.0450439453125,0.66839599609375,-0.7420654296875,2608,-5655,502,-34,-35,-255
177121038,-0.04425048828125,0.01885986328125,0.672607421875,-0.73846435546875,3265,-6106,524,-32,-37,-262
177131028,-0.06622314453125,-0.007568359375,0.67572021484375,-0.734130859375,3744,-6396,545,-29,-38,-263
177141010,-0.087158203125,-0.03326416015625,0.677734375,-0.7293701171875,4129,-6532,599,-25,-39,-252
177150986,-0.1064453125,-0.0574951171875,0.6787109375,-0.72442626953125,4523,-6606,629,-22,-40,-233
177160971,-0.1239013671875,-0.080078125,0.67889404296875,-0.71929931640625,5017,-6667,639,-19,-39,-214
177170954,-0.13995361328125,-0.101318359375,0.678466796875,-0.71405029296875,5569,-6759,616,-16,-38,-199
177180935,-0.15533447265625,-0.12188720703125,0.67755126953125,-0.70849609375,6074,-6903,607,-15,-38,-194
177190917,-0.1705322265625,-0.142333984375,0.67608642578125,-0.70257568359375,6477,-7067,609,-14,-38,-197
177200901,-0.1859130859375,-0.16302490234375,0.673828125,-0.6962890625,6858,-7197,653,-12,-39,-203
177210884,-0.2012939453125,-0.183837890625,0.6707763671875,-0.6898193359375,7265,-7216,650,-8,-38,-204
177220866,-0.2161865234375,-0.20416259765625,0.6669921875,-0.68316650390625,7846,-7219,577,-5,-37,-198
177230847,-0.23077392578125,-0.2239990234375,0.66265869140625,-0.6763916015625,8594,-7241,428,-2,-34,-194
177240837,-0.24542236328125,-0.24334716796875,0.65771484375,-0.6693115234375,9403,-7279,226,0,-29,-194
177250819,-0.26055908203125,-0.26251220703125,0.65203857421875,-0.661865234375,10140,-7280,48,0,-25,-199
177260805,-0.2762451171875,-0.281494140625,0.64569091796875,-0.65386962890625,10715,-7240,-107,0,-20,-205
177270789,-0.29217529296875,-0.3001708984375,0.63873291015625,-0.6453857421875,11005,-7158,-193,-1,-18,-209
177280769,-0.30792236328125,-0.31829833984375,0.63134765625,-0.63665771484375,11111,-7067,-161,-2,-17,-210
177290749,-0.322998046875,-0.33563232421875,0.62353515625,-0.6279296875,11315,-6967,-68,0,-16,-205
177300729,-0.3372802734375,-0.35223388671875,0.61541748046875,-0.6192626953125,11744,-6832,-80,2,-15,-196
177310711,-0.35064697265625,-0.3677978515625,0.60723876953125,-0.61077880859375,12319,-6700,-179,4,-12,-186
177320693,-0.36334228515625,-0.3822021484375,0.5989990234375,-0.60260009765625,12929,-6597,-296,4,-8,-177
177330675,-0.37542724609375,-0.39532470703125,0.5906982421875,-0.59490966796875,13445,-6497,-380,4,-2,-169
177340657,-0.38690185546875,-0.40704345703125,0.58251953125,-0.58758544921875,13770,-6353,-452,3,3,-159
177350638,-0.397705078125,-0.41717529296875,0.57470703125,-0.58099365234375,13821,-6168,-463,2,8,-146
177360620,-0.4073486328125,-0.42547607421875,0.56756591796875,-0.5753173828125,13614,-5992,-395,1,11,-127
177370605,-0.41552734375,-0.43182373046875,0.56134033203125,-0.57080078125,13254,-5812,-272,0,13,-105
177380587,-0.42218017578125,-0.43634033203125,0.55615234375,-0.56756591796875,12875,-5648,-139,1,14,-83
177390570,-0.42730712890625,-0.43939208984375,0.55194091796875,-0.5654296875,12505,-5552,9,1,15,-65
177400552,-0.4315185546875,-0.44140625,0.54840087890625,-0.5640869140625,12179,-5492,162,2,15,-53
177410534,-0.43524169921875,-0.44287109375,0.54522705078125,-0.563232421875,11920,-5472,295,2,16,-48
177420516,-0.43896484375,-0.44427490234375,0.54205322265625,-0.56231689453125,11632,-5460,440,1,16,-50
177430499,-0.44305419921875,-0.44573974609375,0.53863525390625,-0.56121826171875,11280,-5407,570,0,17,-56
177440483,-0.447509765625,-0.44744873046875,0.53497314453125,-0.559814453125,10881,-5313,684,-1,17,-59
177450470,-0.4520263671875,-0.44915771484375,0.5313720703125,-0.5582275390625,10422,-5175,776,-1,16,-59
177460451,-0.456298828125,-0.45062255859375,0.5279541015625,-0.55682373046875,9951,-5040,860,-1,16,-55
177470432,-0.45989990234375,-0.45166015625,0.5250244140625,-0.5557861328125,9516,-4890,929,-1,14,-46
177480413,-0.4627685546875,-0.45233154296875,0.5225830078125,-0.55517578125,9171,-4718,970,0,13,-37
177490394,-0.4649658203125,-0.45263671875,0.5206298828125,-0.55499267578125,8879,-4542,966,1,11,-28
177500376,-0.46649169921875,-0.45263671875,0.51910400390625,-0.5550537109375,8643,-4386,958,2,10,-23
177510357,-0.46771240234375,-0.45269775390625,0.517822265625,-0.55523681640625,8442,-4222,910,2,8,-20
177520342,-0.46868896484375,-0.452880859375,0.51666259765625,-0.55535888671875,8291,-4034,821,3,6,-19
177530327,-0.46966552734375,-0.45330810546875,0.5155029296875,-0.55523681640625,8204,-3825,727,3,5,-21
177540306,-0.47064208984375,-0.4539794921875,0.514404296875,-0.5548095703125,8134,-3613,606,2,3,-22
177550290,-0.4716796875,-0.45501708984375,0.51324462890625,-0.55419921875,8086,-3388,489,3,2,-24
177560277,-0.47271728515625,-0.45635986328125,0.51202392578125,-0.5533447265625,8054,-3173,394,3,0,-25
177570261,-0.47357177734375,-0.4578857421875,0.51092529296875,-0.55230712890625,8046,-2946,270,4,-2,-24
177580240,-0.474365234375,-0.45965576171875,0.5098876953125,-0.5511474609375,8065,-2703,134,4,-3,-24
177590229,-0.47503662109375,-0.46148681640625,0.50885009765625,-0.54998779296875,8076,-2462,1,4,-4,-23
177600212,-0.4755859375,-0.46337890625,0.5079345703125,-0.54876708984375,8101,-2228,-143,5,-4,-22
177610194,-0.47601318359375,-0.46539306640625,0.507080078125,-0.54754638671875,8118,-2016,-258,5,-5,-21
177620163,-0.47637939453125,-0.4674072265625,0.50616455078125,-0.54632568359375,8121,-1810,-364,6,-5,-20
177630145,-0.4766845703125,-0.469482421875,0.5052490234375,-0.5450439453125,8102,-1622,-435,6,-6,-20
177640127,-0.47711181640625,-0.47174072265625,0.50421142578125,-0.54376220703125,8087,-1456,-486,7,-6,-22
