subject,Peter Cope
arm,left
label,0
hz,100.1747556200789
time,5.270789

timestamp_us,q0,q1,q2,q3,ax,ay,az,gx,gy,gz
18824074,0.59271240234375,0.30377197265625,0.74163818359375,-0.07891845703125,-7506,2005,-2030,16,-1,-12
18834057,0.59222412109375,0.3040771484375,0.74169921875,-0.08111572265625,-7543,2040,-2038,16,-2,-10
18844043,0.59173583984375,0.30450439453125,0.74169921875,-0.083251953125,-7618,2061,-2055,16,-2,-8
18854025,0.59130859375,0.30517578125,0.7415771484375,-0.08514404296875,-7700,2086,-2085,16,-1,-5
18864007,0.59088134765625,0.30615234375,0.74127197265625,-0.08673095703125,-7799,2112,-2112,16,-2,-2
18873995,0.59051513671875,0.3074951171875,0.7408447265625,-0.08807373046875,-7897,2136,-2128,16,-2,2
18883981,0.5902099609375,0.30908203125,0.74029541015625,-0.08917236328125,-7944,2157,-2138,16,-2,5
18893957,0.5899658203125,0.31085205078125,0.73968505859375,-0.0899658203125,-7989,2179,-2146,15,-2,8
18903940,0.5897216796875,0.31280517578125,0.73895263671875,-0.09063720703125,-8007,2189,-2149,15,-2,10
18913922,0.58953857421875,0.31488037109375,0.7381591796875,-0.0911865234375,-8015,2194,-2146,14,-2,11
18923905,0.58935546875,0.3170166015625,0.7373046875,-0.091552734375,-8031,2209,-2155,14,-2,12
18933887,0.58917236328125,0.3192138671875,0.73651123046875,-0.09173583984375,-8039,2227,-2183,13,-1,14
18943869,0.58905029296875,0.32147216796875,0.735595703125,-0.0916748046875,-8072,2258,-2227,12,-2,15
18953852,0.5889892578125,0.3238525390625,0.73468017578125,-0.091552734375,-8094,2289,-2256,11,-1,16
18963836,0.58892822265625,0.32611083984375,0.7337646484375,-0.09130859375,-8096,2315,-2277,10,-2,16
18973818,0.5888671875,0.32830810546875,0.73284912109375,-0.09100341796875,-8073,2339,-2280,9,-1,16
18983801,0.5888671875,0.33026123046875,0.73199462890625,-0.09075927734375,-8017,2338,-2276,8,-1,14
18993784,0.58880615234375,0.3319091796875,0.7313232421875,-0.09063720703125,-7954,2341,-2276,7,-2,11
19003771,0.5887451171875,0.33331298828125,0.73077392578125,-0.09063720703125,-7872,2354,-2266,7,-1,7
19013754,0.588623046875,0.334228515625,0.7303466796875,-0.0908203125,-7792,2353,-2260,6,-1,4
19023736,0.58856201171875,0.3348388671875,0.7301025390625,-0.0911865234375,-7750,2347,-2262,5,-1,1
19033718,0.58843994140625,0.335205078125,0.72998046875,-0.0916748046875,-7725,2347,-2277,5,-1,-2
19043696,0.58831787109375,0.33538818359375,0.72998046875,-0.09210205078125,-7719,2357,-2301,4,-1,-3
19053678,0.588134765625,0.33544921875,0.72998046875,-0.09259033203125,-7719,2356,-2344,3,-1,-4
19063663,0.5880126953125,0.3353271484375,0.7301025390625,-0.093017578125,-7702,2342,-2372,2,-1,-4
19073642,0.58795166015625,0.33514404296875,0.73016357421875,-0.0933837890625,-7678,2306,-2378,1,-1,-4
19083623,0.58795166015625,0.3349609375,0.730224609375,-0.09368896484375,-7653,2284,-2386,0,-1,-3
19093606,0.58795166015625,0.33477783203125,0.73028564453125,-0.0938720703125,-7639,2254,-2402,0,-1,-3
19103590,0.5880126953125,0.33465576171875,0.73028564453125,-0.09381103515625,-7655,2237,-2412,-1,-1,-1
19113574,0.588134765625,0.33465576171875,0.730224609375,-0.0936279296875,-7695,2219,-2436,-2,-2,1
19123554,0.58837890625,0.3348388671875,0.73004150390625,-0.09320068359375,-7743,2198,-2461,-3,-1,4
19133532,0.588623046875,0.33526611328125,0.72967529296875,-0.0924072265625,-7779,2177,-2485,-4,-2,8
19143517,0.5889892578125,0.33599853515625,0.729248046875,-0.09130859375,-7829,2162,-2508,-4,-1,12
19153499,0.58941650390625,0.33685302734375,0.72869873046875,-0.09002685546875,-7851,2134,-2516,-6,-2,14
19163482,0.58978271484375,0.33782958984375,0.72802734375,-0.0885009765625,-7865,2129,-2533,-6,-1,16
19173464,0.5902099609375,0.3388671875,0.7274169921875,-0.0869140625,-7873,2127,-2544,-6,-1,16
19183449,0.59063720703125,0.33984375,0.72686767578125,-0.0853271484375,-7879,2103,-2537,-6,-1,16
19193435,0.59100341796875,0.34063720703125,0.726318359375,-0.08380126953125,-7885,2089,-2561,-7,-1,15
19203417,0.59136962890625,0.34136962890625,0.72589111328125,-0.082275390625,-7889,2095,-2587,-7,-1,13
19213404,0.5916748046875,0.34185791015625,0.7255859375,-0.08087158203125,-7883,2083,-2599,-8,0,11
19223377,0.59197998046875,0.3421630859375,0.725341796875,-0.07952880859375,-7895,2090,-2617,-8,0,10
19233362,0.59228515625,0.34228515625,0.72515869140625,-0.07830810546875,-7947,2100,-2635,-9,0,8
19243344,0.592529296875,0.34228515625,0.72503662109375,-0.0771484375,-7993,2129,-2667,-9,0,7
19253330,0.59283447265625,0.3421630859375,0.7249755859375,-0.07598876953125,-8071,2164,-2689,-9,0,6
19263313,0.59320068359375,0.34197998046875,0.724853515625,-0.0748291015625,-8136,2211,-2711,-10,-1,6
19273297,0.59356689453125,0.341796875,0.72479248046875,-0.07366943359375,-8156,2242,-2724,-10,0,5
19283277,0.59393310546875,0.34149169921875,0.7247314453125,-0.072509765625,-8121,2264,-2709,-10,-1,5
19293258,0.5943603515625,0.341064453125,0.7247314453125,-0.0714111328125,-8052,2277,-2677,-11,-1,3
19303236,0.5948486328125,0.3404541015625,0.7247314453125,-0.0704345703125,-7942,2283,-2630,-11,-1,2
19313225,0.5953369140625,0.33966064453125,0.7247314453125,-0.069580078125,-7793,2274,-2573,-11,-2,0
19323208,0.5958251953125,0.33868408203125,0.724853515625,-0.06884765625,-7632,2291,-2518,-11,-2,-3
19333195,0.5963134765625,0.33746337890625,0.72509765625,-0.068359375,-7467,2291,-2457,-11,-2,-6
19343177,0.5968017578125,0.3359375,0.72540283203125,-0.06805419921875,-7325,2296,-2413,-11,-3,-9
19353160,0.59735107421875,0.334228515625,0.72576904296875,-0.06793212890625,-7218,2300,-2384,-11,-3,-12
19363138,0.59783935546875,0.33233642578125,0.72625732421875,-0.06793212890625,-7127,2316,-2360,-12,-3,-13
19373112,0.59844970703125,0.330322265625,0.7266845703125,-0.06793212890625,-7058,2335,-2338,-12,-4,-14
19383096,0.5989990234375,0.3282470703125,0.72711181640625,-0.06793212890625,-7034,2339,-2321,-12,-4,-14
19393076,0.5997314453125,0.326171875,0.72747802734375,-0.06793212890625,-7025,2368,-2283,-13,-4,-14
19403061,0.6004638671875,0.32421875,0.727783203125,-0.06781005859375,-7036,2402,-2276,-13,-5,-12
19413041,0.60125732421875,0.32244873046875,0.72796630859375,-0.06744384765625,-7054,2435,-2270,-13,-5,-10
19423025,0.60211181640625,0.3209228515625,0.72796630859375,-0.06695556640625,-7074,2485,-2262,-13,-6,-7
19433006,0.60302734375,0.3197021484375,0.727783203125,-0.06610107421875,-7098,2547,-2274,-14,-6,-4
19442998,0.60400390625,0.31878662109375,0.72747802734375,-0.0650634765625,-7134,2596,-2294,-14,-7,0
19452982,0.60504150390625,0.318115234375,0.72705078125,-0.06365966796875,-7172,2631,-2322,-14,-7,3
19462958,0.6060791015625,0.317626953125,0.72650146484375,-0.06207275390625,-7204,2643,-2336,-15,-7,6
19472940,0.607177734375,0.3173828125,0.725830078125,-0.06024169921875,-7218,2668,-2329,-15,-7,9
19482922,0.60833740234375,0.3172607421875,0.72509765625,-0.05828857421875,-7221,2701,-2332,-15,-7,10
19492905,0.6094970703125,0.317138671875,0.724365234375,-0.0562744140625,-7231,2744,-2326,-15,-7,10
19502888,0.610595703125,0.317138671875,0.72357177734375,-0.05419921875,-7212,2789,-2301,-15,-7,10
19512870,0.61175537109375,0.31695556640625,0.72283935546875,-0.05224609375,-7170,2853,-2253,-15,-6,8
19522853,0.61285400390625,0.31658935546875,0.72222900390625,-0.0504150390625,-7110,2895,-2208,-15,-6,6
19532836,0.6138916015625,0.31591796875,0.7216796875,-0.04876708984375,-7053,2919,-2162,-15,-6,2
19542821,0.61492919921875,0.31494140625,0.72137451171875,-0.0474853515625,-7003,2936,-2113,-15,-6,-2
19552799,0.61590576171875,0.3135986328125,0.72119140625,-0.0465087890625,-6993,2936,-2085,-15,-6,-5
19562784,0.61676025390625,0.31207275390625,0.72113037109375,-0.045654296875,-7005,2937,-2073,-15,-5,-7
19572769,0.61761474609375,0.3104248046875,0.72113037109375,-0.04498291015625,-7036,2941,-2049,-15,-5,-8
19582751,0.618408203125,0.30877685546875,0.72125244140625,-0.0443115234375,-7075,2958,-2041,-15,-5,-9
19592735,0.619140625,0.30712890625,0.72137451171875,-0.04364013671875,-7161,2980,-2035,-14,-3,-8
19602711,0.61981201171875,0.3056640625,0.721435546875,-0.04278564453125,-7258,3007,-2020,-14,-3,-6
19612693,0.62030029296875,0.304443359375,0.7215576171875,-0.0418701171875,-7351,3031,-2031,-13,-1,-5
19622680,0.62078857421875,0.30340576171875,0.7216796875,-0.040771484375,-7456,3066,-2002,-13,0,-2
19632666,0.62109375,0.3026123046875,0.7218017578125,-0.03955078125,-7533,3104,-1954,-12,1,0
19642646,0.62139892578125,0.30206298828125,0.72186279296875,-0.0382080078125,-7601,3129,-1887,-11,2,2
19652628,0.62158203125,0.30169677734375,0.721923828125,-0.03680419921875,-7649,3143,-1829,-10,3,3
19662611,0.62164306640625,0.301513671875,0.72198486328125,-0.03533935546875,-7689,3165,-1751,-9,4,5
19672593,0.6217041015625,0.30157470703125,0.72198486328125,-0.0338134765625,-7714,3184,-1684,-8,5,7
19682579,0.62164306640625,0.3018798828125,0.72198486328125,-0.0322265625,-7734,3193,-1625,-7,5,8
19692561,0.62158203125,0.3023681640625,0.721923828125,-0.03070068359375,-7764,3207,-1571,-6,5,9
19702543,0.62158203125,0.30303955078125,0.72174072265625,-0.02911376953125,-7780,3221,-1522,-5,4,10
19712525,0.62152099609375,0.3038330078125,0.72149658203125,-0.0277099609375,-7781,3234,-1458,-3,4,10
19722506,0.62158203125,0.3046875,0.72113037109375,-0.0263671875,-7788,3252,-1397,-2,3,11
19732488,0.62164306640625,0.30560302734375,0.720703125,-0.02532958984375,-7798,3251,-1356,-1,2,10
19742473,0.621826171875,0.306640625,0.72015380859375,-0.02435302734375,-7815,3264,-1319,1,1,11
19752455,0.6220703125,0.3079833984375,0.7193603515625,-0.02349853515625,-7835,3261,-1274,2,-2,13
19762431,0.6224365234375,0.3095703125,0.7183837890625,-0.02276611328125,-7877,3264,-1265,4,-3,15
19772425,0.62298583984375,0.31158447265625,0.71710205078125,-0.02203369140625,-7924,3273,-1252,6,-6,18
19782408,0.62371826171875,0.31390380859375,0.7154541015625,-0.0213623046875,-7933,3272,-1231,8,-9,22
19792391,0.62457275390625,0.316650390625,0.71356201171875,-0.020751953125,-7928,3286,-1205,10,-11,24
19802369,0.6256103515625,0.319580078125,0.7113037109375,-0.02020263671875,-7903,3300,-1162,11,-14,25
19812351,0.62677001953125,0.32275390625,0.7088623046875,-0.0198974609375,-7854,3314,-1125,13,-16,26
19822335,0.62811279296875,0.3260498046875,0.70611572265625,-0.01971435546875,-7809,3347,-1080,14,-19,27
19832316,0.62957763671875,0.32952880859375,0.7032470703125,-0.01971435546875,-7760,3393,-1044,15,-21,27
19842299,0.63116455078125,0.3330078125,0.70013427734375,-0.0198974609375,-7717,3433,-1019,17,-23,26
19852281,0.63287353515625,0.3365478515625,0.6968994140625,-0.0203857421875,-7670,3472,-998,18,-25,26
19862263,0.6346435546875,0.340087890625,0.69354248046875,-0.02105712890625,-7620,3508,-962,19,-27,25
19872242,0.6365966796875,0.34368896484375,0.68994140625,-0.0218505859375,-7579,3549,-922,20,-30,25
19882235,0.6385498046875,0.3472900390625,0.686279296875,-0.02288818359375,-7549,3596,-921,20,-32,24
19892219,0.6407470703125,0.35101318359375,0.682373046875,-0.0240478515625,-7570,3639,-927,21,-34,25
19902205,0.64312744140625,0.35479736328125,0.6781005859375,-0.02508544921875,-7601,3716,-946,21,-37,28
19912192,0.6456298828125,0.35882568359375,0.67352294921875,-0.026123046875,-7643,3781,-964,21,-40,30
19922175,0.6483154296875,0.363037109375,0.66864013671875,-0.02703857421875,-7692,3848,-981,21,-42,33
19932156,0.651123046875,0.36737060546875,0.6634521484375,-0.0277099609375,-7765,3922,-1009,20,-44,36
19942127,0.65411376953125,0.371826171875,0.65802001953125,-0.0283203125,-7852,3994,-1042,19,-46,38
19952109,0.6572265625,0.3763427734375,0.65234375,-0.02874755859375,-7945,4076,-1053,18,-48,40
19962093,0.66046142578125,0.380859375,0.6463623046875,-0.029052734375,-8017,4153,-1043,17,-50,41
19972075,0.663818359375,0.3853759765625,0.64019775390625,-0.02923583984375,-8058,4243,-1010,16,-51,43
19982057,0.6673583984375,0.38983154296875,0.6337890625,-0.029296875,-8046,4319,-960,15,-53,43
19992040,0.67108154296875,0.39410400390625,0.62713623046875,-0.029296875,-8047,4386,-909,13,-55,44
20002022,0.67498779296875,0.39825439453125,0.62030029296875,-0.0291748046875,-8003,4453,-851,11,-57,45
20012006,0.67901611328125,0.4022216796875,0.61334228515625,-0.02899169921875,-7920,4516,-789,9,-58,44
20024995,0.68316650390625,0.40594482421875,0.60626220703125,-0.0286865234375,-7812,4566,-725,7,-59,44
20031977,0.6873779296875,0.4093017578125,0.59918212890625,-0.02838134765625,-7698,4620,-644,3,-59,42
20041952,0.69171142578125,0.41229248046875,0.5921630859375,-0.0281982421875,-7536,4644,-596,2,-60,38
20051935,0.69610595703125,0.41473388671875,0.58526611328125,-0.028076171875,-7351,4662,-515,0,-60,35
20061918,0.70050048828125,0.41668701171875,0.57861328125,-0.0281982421875,-7150,4679,-433,-3,-60,29
20071898,0.70489501953125,0.4180908203125,0.57220458984375,-0.028564453125,-6945,4682,-362,-5,-59,25
20081881,0.70928955078125,0.41900634765625,0.56610107421875,-0.02911376953125,-6767,4691,-280,-7,-58,20
20091864,0.713623046875,0.41937255859375,0.5601806640625,-0.02984619140625,-6617,4709,-200,-9,-58,16
20101846,0.718017578125,0.41937255859375,0.5545654296875,-0.03070068359375,-6516,4737,-133,-11,-57,13
20111830,0.72235107421875,0.41888427734375,0.5491943359375,-0.0316162109375,-6475,4779,-77,-14,-56,9
20121812,0.72674560546875,0.41815185546875,0.54388427734375,-0.032470703125,-6490,4840,-11,-16,-56,9
20131796,0.731201171875,0.4171142578125,0.5386962890625,-0.03326416015625,-6533,4900,49,-18,-55,7
20141774,0.73565673828125,0.415771484375,0.53363037109375,-0.033935546875,-6557,4945,121,-21,-54,7
20151766,0.74017333984375,0.4141845703125,0.528564453125,-0.034423828125,-6535,4974,218,-23,-54,7
20161748,0.74468994140625,0.412353515625,0.5235595703125,-0.03466796875,-6512,5000,325,-26,-53,7
20171732,0.74920654296875,0.4102783203125,0.5186767578125,-0.03485107421875,-6476,5016,443,-28,-51,6
20181707,0.75372314453125,0.407958984375,0.513916015625,-0.03485107421875,-6452,5051,554,-30,-50,5
20191689,0.75823974609375,0.40545654296875,0.50927734375,-0.03466796875,-6433,5081,645,-32,-49,5
20201673,0.76275634765625,0.4027099609375,0.50469970703125,-0.03436279296875,-6411,5086,732,-34,-48,5
20211655,0.76727294921875,0.39971923828125,0.50030517578125,-0.033935546875,-6363,5078,801,-36,-47,4
20221636,0.771728515625,0.3966064453125,0.4959716796875,-0.033203125,-6313,5060,864,-39,-46,5
20231619,0.77618408203125,0.39324951171875,0.49169921875,-0.03228759765625,-6258,5033,942,-40,-44,6
20241602,0.78057861328125,0.3897705078125,0.487548828125,-0.03106689453125,-6231,5009,1019,-42,-43,7
20251586,0.78497314453125,0.38616943359375,0.4833984375,-0.02960205078125,-6210,5005,1117,-44,-42,7
20261570,0.789306640625,0.38238525390625,0.4794921875,-0.02801513671875,-6200,5006,1212,-46,-40,7
20271552,0.7935791015625,0.37841796875,0.47564697265625,-0.02618408203125,-6186,5024,1342,-48,-38,8
20281536,0.7978515625,0.374267578125,0.47186279296875,-0.024169921875,-6168,5033,1475,-49,-37,8
20291518,0.802001953125,0.37005615234375,0.46820068359375,-0.02191162109375,-6113,5030,1584,-50,-35,9
20301500,0.80615234375,0.3658447265625,0.464599609375,-0.019287109375,-6040,5034,1701,-52,-34,10
20311484,0.81011962890625,0.361572265625,0.4610595703125,-0.01629638671875,-5980,5035,1811,-53,-31,13
20321464,0.8140869140625,0.35736083984375,0.45751953125,-0.0128173828125,-5913,5015,1933,-54,-29,17
20331450,0.81787109375,0.35333251953125,0.45391845703125,-0.0086669921875,-5868,4987,2045,-55,-27,22
20341437,0.82159423828125,0.34942626953125,0.4503173828125,-0.00390625,-5824,4950,2161,-56,-25,28
20351420,0.8251953125,0.34564208984375,0.4466552734375,0.00146484375,-5768,4898,2268,-57,-23,32
20361402,0.82855224609375,0.3419189453125,0.44317626953125,0.00732421875,-5698,4831,2367,-58,-20,35
20371379,0.831787109375,0.33819580078125,0.43988037109375,0.013427734375,-5621,4780,2456,-58,-17,36
20381360,0.83477783203125,0.33441162109375,0.4368896484375,0.01971435546875,-5545,4736,2549,-58,-14,36
20391343,0.8375244140625,0.33056640625,0.43408203125,0.0260009765625,-5466,4698,2656,-58,-11,34
20401326,0.84014892578125,0.32666015625,0.43170166015625,0.0322265625,-5412,4652,2764,-58,-8,33
20411308,0.842529296875,0.3226318359375,0.4295654296875,0.0384521484375,-5372,4620,2859,-57,-5,32
20421293,0.8447265625,0.31854248046875,0.42767333984375,0.04461669921875,-5351,4595,2976,-57,-3,32
20431277,0.8466796875,0.31451416015625,0.42608642578125,0.05084228515625,-5363,4578,3072,-56,0,31
20441256,0.84844970703125,0.3104248046875,0.42474365234375,0.05706787109375,-5380,4569,3171,-55,2,31
20451244,0.85003662109375,0.3065185546875,0.423583984375,0.06341552734375,-5368,4566,3254,-55,4,33
20461226,0.85137939453125,0.30267333984375,0.42254638671875,0.07000732421875,-5364,4563,3310,-54,7,34
20471209,0.8525390625,0.2989501953125,0.421630859375,0.07696533203125,-5375,4587,3369,-54,9,37
20481188,0.85345458984375,0.29547119140625,0.42083740234375,0.084228515625,-5403,4602,3407,-53,11,41
20491180,0.85418701171875,0.2921142578125,0.420166015625,0.09185791015625,-5434,4624,3452,-53,12,44
20501161,0.85467529296875,0.28887939453125,0.4195556640625,0.09979248046875,-5479,4657,3502,-52,15,45
20511138,0.85498046875,0.28570556640625,0.41912841796875,0.10784912109375,-5513,4715,3547,-52,17,46
20521116,0.8551025390625,0.28253173828125,0.4189453125,0.1158447265625,-5534,4769,3576,-52,18,45
20531097,0.85504150390625,0.27923583984375,0.4189453125,0.1236572265625,-5522,4818,3624,-51,20,42
20541080,0.85491943359375,0.27569580078125,0.41925048828125,0.13104248046875,-5500,4816,3662,-51,22,38
20551063,0.854736328125,0.27191162109375,0.41986083984375,0.13800048828125,-5455,4791,3680,-50,24,33
20561051,0.8544921875,0.2679443359375,0.42083740234375,0.14447021484375,-5409,4744,3713,-49,26,29
20571028,0.85406494140625,0.2637939453125,0.42205810546875,0.15069580078125,-5355,4691,3743,-49,28,26
20581010,0.85357666015625,0.25958251953125,0.42352294921875,0.15667724609375,-5319,4644,3758,-48,29,25
20590996,0.8529052734375,0.25543212890625,0.42510986328125,0.16265869140625,-5300,4591,3771,-47,31,26
20600982,0.85205078125,0.2513427734375,0.42694091796875,0.16876220703125,-5258,4538,3766,-46,33,26
20610959,0.8509521484375,0.2474365234375,0.42889404296875,0.1749267578125,-5226,4515,3755,-44,35,27
20620942,0.84967041015625,0.24359130859375,0.43109130859375,0.18109130859375,-5192,4503,3762,-43,37,27
20630924,0.84820556640625,0.23980712890625,0.4334716796875,0.187255859375,-5174,4494,3750,-43,39,26
20640907,0.8465576171875,0.2359619140625,0.43609619140625,0.1932373046875,-5157,4509,3728,-42,41,25
20650889,0.84478759765625,0.23211669921875,0.43902587890625,0.1990966796875,-5173,4535,3709,-41,43,23
20660870,0.84283447265625,0.2281494140625,0.442138671875,0.2047119140625,-5168,4556,3668,-40,45,21
20670854,0.8408203125,0.22412109375,0.445556640625,0.2100830078125,-5153,4558,3634,-40,47,18
20680840,0.83868408203125,0.219970703125,0.44915771484375,0.21533203125,-5128,4553,3596,-39,49,16
20690822,0.83636474609375,0.2156982421875,0.45306396484375,0.220458984375,-5109,4527,3536,-39,51,15
20700805,0.83392333984375,0.21142578125,0.4571533203125,0.22552490234375,-5090,4503,3499,-38,53,15
20710786,0.8311767578125,0.20709228515625,0.46148681640625,0.2305908203125,-5090,4483,3462,-37,56,15
20720766,0.82830810546875,0.20269775390625,0.46600341796875,0.23565673828125,-5111,4480,3416,-37,58,15
20730756,0.8251953125,0.1983642578125,0.4708251953125,0.2406005859375,-5135,4488,3372,-36,61,14
20740740,0.8218994140625,0.19390869140625,0.4759521484375,0.24542236328125,-5170,4477,3315,-35,63,12
20750723,0.8184814453125,0.1893310546875,0.48126220703125,0.25,-5217,4473,3262,-34,64,10
20760706,0.81494140625,0.18463134765625,0.48681640625,0.25439453125,-5269,4465,3220,-34,67,8
20770689,0.81121826171875,0.17974853515625,0.4925537109375,0.258544921875,-5321,4418,3204,-33,69,6
20780672,0.807373046875,0.17486572265625,0.49853515625,0.26251220703125,-5406,4396,3163,-31,70,5
20790654,0.8033447265625,0.169921875,0.50482177734375,0.2662353515625,-5490,4370,3114,-30,73,4
20800637,0.799072265625,0.1649169921875,0.5113525390625,0.2696533203125,-5557,4330,3067,-28,75,1
20810618,0.79461669921875,0.159912109375,0.5181884765625,0.27276611328125,-5587,4263,3013,-25,78,-2
20820595,0.78997802734375,0.1546630859375,0.525390625,0.27532958984375,-5601,4171,2943,-23,81,-5
20830576,0.78521728515625,0.14935302734375,0.53302001953125,0.27734375,-5624,4082,2841,-21,84,-10
20840560,0.78033447265625,0.143798828125,0.5408935546875,0.27874755859375,-5665,3970,2724,-18,86,-15
20850542,0.7752685546875,0.13818359375,0.54913330078125,0.27960205078125,-5738,3884,2598,-15,88,-18
20860524,0.77008056640625,0.1324462890625,0.55767822265625,0.2799072265625,-5850,3801,2439,-13,89,-21
20870508,0.76470947265625,0.126708984375,0.56640625,0.27978515625,-6002,3712,2268,-10,90,-23
20880489,0.7591552734375,0.12103271484375,0.57525634765625,0.279296875,-6170,3639,2110,-8,91,-25
20890473,0.75341796875,0.115478515625,0.584228515625,0.27850341796875,-6329,3574,1950,-6,91,-26
20900455,0.74761962890625,0.1099853515625,0.59326171875,0.27734375,-6481,3499,1807,-3,92,-26
20910438,0.74169921875,0.1046142578125,0.60223388671875,0.27593994140625,-6628,3435,1673,-1,92,-28
20920425,0.73565673828125,0.09930419921875,0.61126708984375,0.27410888671875,-6777,3367,1514,2,91,-29
20930406,0.7296142578125,0.0941162109375,0.62030029296875,0.27191162109375,-6935,3290,1351,4,91,-31
20940382,0.72357177734375,0.08892822265625,0.629150390625,0.26934814453125,-7105,3193,1176,6,90,-32
20950364,0.717529296875,0.08404541015625,0.637939453125,0.2664794921875,-7284,3134,1013,9,88,-32
20960350,0.71148681640625,0.07940673828125,0.64654541015625,0.26336669921875,-7461,3058,848,11,86,-31
20970329,0.7054443359375,0.0750732421875,0.655029296875,0.260009765625,-7629,3014,682,14,84,-31
20980312,0.69940185546875,0.071044921875,0.66326904296875,0.25640869140625,-7780,2955,506,17,82,-31
20990294,0.6934814453125,0.0673828125,0.67132568359375,0.25250244140625,-7932,2918,334,19,80,-31
21000277,0.6876220703125,0.0638427734375,0.67919921875,0.248291015625,-8088,2855,179,22,78,-31
21010260,0.6820068359375,0.06060791015625,0.68682861328125,0.24371337890625,-8233,2788,26,25,74,-32
21020235,0.67657470703125,0.0576171875,0.69415283203125,0.23883056640625,-8372,2730,-130,27,71,-33
21030230,0.67132568359375,0.05474853515625,0.701171875,0.23345947265625,-8489,2663,-298,30,67,-35
21040211,0.6663818359375,0.0521240234375,0.70794677734375,0.227783203125,-8564,2570,-453,33,64,-36
21050195,0.66168212890625,0.0496826171875,0.71441650390625,0.2216796875,-8615,2476,-601,35,60,-37
21060185,0.65728759765625,0.047607421875,0.7205810546875,0.21527099609375,-8660,2396,-738,38,56,-37
21070174,0.65313720703125,0.0457763671875,0.7264404296875,0.20855712890625,-8705,2329,-872,41,52,-37
21080144,0.64935302734375,0.0443115234375,0.73187255859375,0.20159912109375,-8771,2264,-983,43,48,-37
21090121,0.645751953125,0.04339599609375,0.73699951171875,0.194580078125,-8847,2215,-1126,46,43,-34
21100103,0.6424560546875,0.04302978515625,0.74169921875,0.1875,-8916,2170,-1238,49,39,-31
21110086,0.63958740234375,0.04327392578125,0.74591064453125,0.18048095703125,-8989,2102,-1346,50,33,-27
21120068,0.636962890625,0.04425048828125,0.74969482421875,0.17352294921875,-9025,2038,-1471,53,28,-22
21130054,0.63482666015625,0.04595947265625,0.75299072265625,0.16680908203125,-9058,1972,-1574,54,21,-17
21140036,0.633056640625,0.04852294921875,0.75567626953125,0.16033935546875,-9091,1924,-1654,57,15,-11
21150019,0.63177490234375,0.05194091796875,0.75787353515625,0.154052734375,-9131,1890,-1710,59,9,-5
21160005,0.63092041015625,0.056396484375,0.7593994140625,0.14825439453125,-9173,1869,-1764,61,2,3
21169987,0.63043212890625,0.0618896484375,0.76043701171875,0.14276123046875,-9211,1875,-1828,63,-5,11
21179959,0.63043212890625,0.068359375,0.76080322265625,0.1375732421875,-9222,1892,-1878,65,-12,19
21189941,0.630859375,0.0758056640625,0.7606201171875,0.13287353515625,-9210,1965,-1913,67,-18,26
21199925,0.63165283203125,0.08404541015625,0.75982666015625,0.12841796875,-9180,2027,-1959,68,-24,32
21209907,0.63287353515625,0.09283447265625,0.75848388671875,0.12420654296875,-9114,2110,-1979,69,-30,35
21219890,0.63446044921875,0.10205078125,0.75665283203125,0.12005615234375,-9024,2204,-2000,69,-36,38
21229871,0.63641357421875,0.11151123046875,0.75433349609375,0.115966796875,-8920,2282,-2027,70,-41,39
21239856,0.63873291015625,0.12109375,0.75152587890625,0.11175537109375,-8816,2365,-2053,70,-45,39
21249836,0.64129638671875,0.13067626953125,0.748291015625,0.1075439453125,-8728,2454,-2064,69,-50,38
21259820,0.64422607421875,0.14019775390625,0.74468994140625,0.10321044921875,-8658,2539,-2072,69,-54,37
21269802,0.64739990234375,0.14959716796875,0.74072265625,0.09869384765625,-8567,2614,-2057,68,-58,36
21279785,0.65087890625,0.158935546875,0.736328125,0.0941162109375,-8523,2718,-2021,68,-62,35
21289773,0.654541015625,0.1680908203125,0.73162841796875,0.08941650390625,-8479,2826,-1977,68,-64,33
21299755,0.65838623046875,0.1771240234375,0.7265625,0.08465576171875,-8441,2948,-1916,67,-67,32
21309740,0.662353515625,0.18603515625,0.72125244140625,0.07989501953125,-8394,3067,-1869,65,-70,31
21319716,0.66650390625,0.19482421875,0.715576171875,0.0750732421875,-8338,3166,-1793,64,-72,30
21329700,0.6707763671875,0.203369140625,0.709716796875,0.07025146484375,-8273,3242,-1713,63,-74,29
21339683,0.675048828125,0.21173095703125,0.70367431640625,0.0653076171875,-8196,3278,-1642,62,-75,28
21349664,0.67938232421875,0.21990966796875,0.6973876953125,0.06036376953125,-8110,3294,-1564,61,-76,27
21359649,0.68377685546875,0.2279052734375,0.69091796875,0.05535888671875,-8020,3297,-1459,60,-78,27
21369635,0.688232421875,0.23583984375,0.68414306640625,0.05035400390625,-7931,3293,-1365,60,-79,27
21379616,0.6927490234375,0.2437744140625,0.6771240234375,0.04547119140625,-7859,3338,-1265,59,-81,28
21389598,0.6973876953125,0.25177001953125,0.669677734375,0.04083251953125,-7843,3425,-1166,58,-84,30
21399581,0.70208740234375,0.259765625,0.6619873046875,0.03631591796875,-7859,3536,-1063,56,-86,32
21409565,0.7069091796875,0.2677001953125,0.65380859375,0.03204345703125,-7900,3664,-928,55,-88,34
21419549,0.7117919921875,0.275634765625,0.6453857421875,0.028076171875,-7917,3798,-811,53,-89,35
21429527,0.716796875,0.283447265625,0.63653564453125,0.02423095703125,-7882,3907,-689,51,-92,36
21439513,0.72186279296875,0.29107666015625,0.62744140625,0.02056884765625,-7820,3999,-561,49,-93,36
21449496,0.7269287109375,0.29852294921875,0.61810302734375,0.0169677734375,-7754,4054,-437,47,-94,36
21459477,0.7320556640625,0.3056640625,0.60858154296875,0.0133056640625,-7663,4120,-310,45,-96,35
21469463,0.73724365234375,0.3125,0.598876953125,0.0096435546875,-7534,4196,-180,44,-96,33
21479449,0.74237060546875,0.3189697265625,0.58905029296875,0.005859375,-7386,4260,-39,42,-98,30
21489433,0.74761962890625,0.324951171875,0.5791015625,0.00189208984375,-7246,4344,121,40,-98,27
21499417,0.7528076171875,0.33050537109375,0.56915283203125,-0.002197265625,-7149,4451,267,37,-99,24
21509398,0.7579345703125,0.3355712890625,0.55926513671875,-0.0064697265625,-7069,4558,416,35,-98,20
21519374,0.76300048828125,0.34014892578125,0.5494384765625,-0.01092529296875,-6970,4656,567,33,-98,16
21529358,0.76806640625,0.3441162109375,0.539794921875,-0.01568603515625,-6862,4725,705,31,-97,11
21539339,0.77294921875,0.3475341796875,0.53033447265625,-0.02069091796875,-6741,4782,852,29,-96,6
21549316,0.7777099609375,0.35040283203125,0.52117919921875,-0.0260009765625,-6595,4835,999,27,-94,1
21559301,0.7823486328125,0.352783203125,0.51220703125,-0.031494140625,-6470,4903,1169,26,-93,-4
21569280,0.78680419921875,0.354736328125,0.5035400390625,-0.03717041015625,-6338,4930,1336,24,-90,-7
21579262,0.7911376953125,0.3564453125,0.4951171875,-0.042724609375,-6202,4952,1505,22,-88,-8
21589245,0.7952880859375,0.35784912109375,0.48681640625,-0.0482177734375,-6087,4958,1677,20,-85,-8
21599232,0.79931640625,0.359130859375,0.47869873046875,-0.0533447265625,-5979,4972,1835,19,-83,-7
21609216,0.80316162109375,0.36029052734375,0.47076416015625,-0.0582275390625,-5896,4973,1994,17,-80,-7
21619205,0.80682373046875,0.36138916015625,0.4630126953125,-0.06280517578125,-5834,4996,2155,16,-77,-5
21629188,0.8104248046875,0.36236572265625,0.45538330078125,-0.06695556640625,-5756,5025,2308,14,-74,-3
21639174,0.81378173828125,0.36334228515625,0.44793701171875,-0.07061767578125,-5645,5058,2460,13,-70,-2
21649159,0.8170166015625,0.36419677734375,0.4407958984375,-0.0738525390625,-5471,5061,2615,11,-66,0
21659126,0.820068359375,0.36505126953125,0.43389892578125,-0.07666015625,-5293,5024,2766,10,-62,2
21669106,0.82293701171875,0.3658447265625,0.42730712890625,-0.07904052734375,-5107,5000,2907,9,-57,3
21679090,0.8255615234375,0.36663818359375,0.421142578125,-0.08099365234375,-4971,4976,3039,7,-53,5
21689069,0.8280029296875,0.36737060546875,0.41534423828125,-0.0826416015625,-4895,4967,3152,6,-48,5
21699053,0.83026123046875,0.36798095703125,0.4100341796875,-0.08404541015625,-4846,4969,3254,5,-44,5
21709036,0.832275390625,0.36846923828125,0.40521240234375,-0.08526611328125,-4808,4999,3337,4,-40,4
21719018,0.83416748046875,0.36871337890625,0.40081787109375,-0.08642578125,-4768,5028,3429,2,-36,2
21729001,0.8358154296875,0.368896484375,0.39697265625,-0.08746337890625,-4709,5044,3505,1,-31,1
21738988,0.8372802734375,0.368896484375,0.3936767578125,-0.08837890625,-4605,5047,3586,0,-26,0
21748965,0.83856201171875,0.36883544921875,0.390869140625,-0.0889892578125,-4482,5021,3659,-1,-21,-1
21758943,0.83966064453125,0.36871337890625,0.38861083984375,-0.08941650390625,-4370,4977,3702,-1,-15,-1
21768933,0.8404541015625,0.36859130859375,0.3868408203125,-0.08953857421875,-4299,4938,3741,-2,-10,0
21778909,0.84112548828125,0.3685302734375,0.38555908203125,-0.0892333984375,-4283,4933,3793,-3,-5,1
21788899,0.841552734375,0.36859130859375,0.384765625,-0.0885009765625,-4318,4961,3828,-3,0,3
21798878,0.84173583984375,0.36871337890625,0.38446044921875,-0.08734130859375,-4339,4991,3860,-4,5,5
21808858,0.84173583984375,0.3687744140625,0.38470458984375,-0.0858154296875,-4330,5000,3885,-5,11,5
21818839,0.8414306640625,0.368896484375,0.38568115234375,-0.0841064453125,-4276,4992,3874,-5,17,3
21828821,0.84088134765625,0.368896484375,0.38726806640625,-0.0823974609375,-4228,5002,3848,-6,23,0
21838806,0.84002685546875,0.36865234375,0.3896484375,-0.080810546875,-4226,5011,3819,-7,28,-4
21848785,0.8388671875,0.3682861328125,0.392822265625,-0.07928466796875,-4278,5028,3762,-7,34,-7
21858773,0.83740234375,0.36773681640625,0.396728515625,-0.07781982421875,-4357,5043,3709,-8,39,-10
21868756,0.83563232421875,0.36700439453125,0.40130615234375,-0.076416015625,-4420,5049,3648,-8,44,-13
21878739,0.8336181640625,0.36614990234375,0.4066162109375,-0.07501220703125,-4470,5054,3572,-9,50,-17
21888716,0.83123779296875,0.36505126953125,0.41265869140625,-0.07366943359375,-4492,5026,3491,-10,56,-20
21898699,0.8284912109375,0.36376953125,0.41943359375,-0.07244873046875,-4501,4959,3383,-10,62,-24
21908679,0.82537841796875,0.3623046875,0.42694091796875,-0.0712890625,-4527,4901,3260,-11,67,-27
21918663,0.82196044921875,0.36065673828125,0.43505859375,-0.070068359375,-4581,4818,3128,-11,72,-29
21928645,0.81817626953125,0.35888671875,0.44384765625,-0.06878662109375,-4702,4770,2985,-12,77,-30
21938635,0.81402587890625,0.35699462890625,0.45306396484375,-0.0673828125,-4865,4719,2833,-13,82,-31
21948614,0.80950927734375,0.35504150390625,0.46282958984375,-0.06573486328125,-5005,4662,2663,-13,86,-31
21958595,0.8046875,0.35284423828125,0.4730224609375,-0.06396484375,-5098,4585,2480,-15,91,-32
21968579,0.79949951171875,0.3505859375,0.483642578125,-0.06201171875,-5182,4490,2272,-15,95,-33
21978561,0.79400634765625,0.3480224609375,0.4947509765625,-0.05999755859375,-5269,4403,2064,-17,99,-35
21988544,0.7880859375,0.3453369140625,0.50616455078125,-0.057861328125,-5380,4309,1851,-17,102,-36
21998525,0.7818603515625,0.34234619140625,0.51800537109375,-0.05572509765625,-5497,4204,1627,-18,106,-38
22008508,0.77520751953125,0.33917236328125,0.5301513671875,-0.05340576171875,-5607,4105,1403,-19,109,-39
22018491,0.76824951171875,0.3358154296875,0.54254150390625,-0.051025390625,-5698,3995,1160,-20,112,-40
22028474,0.76092529296875,0.33221435546875,0.55511474609375,-0.0484619140625,-5794,3886,930,-21,115,-40
22038455,0.75323486328125,0.3284912109375,0.56793212890625,-0.0457763671875,-5920,3782,704,-22,117,-40
22048439,0.7452392578125,0.3245849609375,0.580810546875,-0.04296875,-6093,3691,479,-23,120,-40
22058430,0.73687744140625,0.32049560546875,0.59381103515625,-0.03997802734375,-6300,3618,253,-24,122,-40
22068411,0.72821044921875,0.3162841796875,0.6068115234375,-0.03692626953125,-6524,3560,-9,-25,123,-40
22078395,0.71929931640625,0.31182861328125,0.6197509765625,-0.0338134765625,-6766,3487,-265,-25,124,-41
22088371,0.710205078125,0.30712890625,0.63262939453125,-0.03070068359375,-6995,3414,-515,-26,124,-41
22098353,0.700927734375,0.30224609375,0.6453857421875,-0.02752685546875,-7178,3335,-750,-27,124,-42
22108335,0.6915283203125,0.297119140625,0.65789794921875,-0.0244140625,-7345,3247,-993,-28,123,-43
22118317,0.68212890625,0.291748046875,0.67010498046875,-0.02130126953125,-7510,3147,-1213,-29,121,-42
22128299,0.67279052734375,0.28631591796875,0.681884765625,-0.01812744140625,-7696,3057,-1432,-31,118,-41
22138282,0.66357421875,0.28076171875,0.69317626953125,-0.01483154296875,-7882,2979,-1631,-32,115,-40
22148266,0.65460205078125,0.27520751953125,0.7039794921875,-0.01141357421875,-8050,2889,-1820,-33,111,-37
22158256,0.64593505859375,0.2696533203125,0.714111328125,-0.0078125,-8218,2820,-1983,-34,107,-34
22168240,0.6376953125,0.2642822265625,0.72344970703125,-0.0040283203125,-8425,2784,-2114,-35,101,-30
22178222,0.62994384765625,0.259033203125,0.73211669921875,-6.103515625e-05,-8671,2767,-2214,-36,95,-27
22188205,0.62286376953125,0.25408935546875,0.7398681640625,0.004150390625,-8905,2756,-2320,-38,88,-21
22198192,0.616455078125,0.24945068359375,0.74676513671875,0.008544921875,-9109,2756,-2401,-38,80,-17
22208177,0.61077880859375,0.2451171875,0.75274658203125,0.01312255859375,-9307,2745,-2467,-39,72,-12
22218158,0.60589599609375,0.24102783203125,0.75787353515625,0.01788330078125,-9496,2755,-2514,-40,63,-8
22228128,0.6019287109375,0.2373046875,0.7620849609375,0.022705078125,-9659,2762,-2556,-41,54,-4
22238114,0.59881591796875,0.23382568359375,0.76544189453125,0.02764892578125,-9792,2769,-2586,-42,45,0
22248094,0.59661865234375,0.2305908203125,0.7679443359375,0.0325927734375,-9898,2775,-2624,-43,35,3
22258075,0.59527587890625,0.2274169921875,0.76971435546875,0.03741455078125,-9960,2765,-2652,-44,26,4
22268056,0.5947265625,0.22430419921875,0.770751953125,0.0421142578125,-9952,2751,-2674,-44,17,3
22278040,0.594970703125,0.22088623046875,0.7713623046875,0.04632568359375,-9894,2700,-2682,-44,9,0
22288023,0.59588623046875,0.2171630859375,0.771484375,0.050048828125,-9782,2657,-2677,-45,2,-4
22298001,0.597412109375,0.21307373046875,0.771240234375,0.05328369140625,-9658,2598,-2656,-44,-4,-8
22307988,0.59942626953125,0.208740234375,0.77069091796875,0.05596923828125,-9503,2550,-2604,-43,-10,-12
22317966,0.60174560546875,0.2042236328125,0.76983642578125,0.05828857421875,-9319,2509,-2557,-42,-14,-15
22327948,0.6044921875,0.19964599609375,0.768798828125,0.06024169921875,-9132,2466,-2507,-41,-18,-16
22337931,0.607421875,0.19500732421875,0.76751708984375,0.0618896484375,-8959,2424,-2454,-39,-21,-18
22347915,0.6104736328125,0.19049072265625,0.76611328125,0.06341552734375,-8767,2387,-2403,-38,-23,-18
22357897,0.6136474609375,0.18603515625,0.7645263671875,0.06475830078125,-8579,2360,-2349,-37,-25,-19
22367879,0.61688232421875,0.18170166015625,0.76287841796875,0.06591796875,-8392,2331,-2281,-36,-25,-19
22377862,0.6201171875,0.17742919921875,0.76116943359375,0.0670166015625,-8211,2300,-2205,-35,-26,-18
22387845,0.623291015625,0.17340087890625,0.7593994140625,0.068115234375,-8038,2250,-2120,-34,-26,-17
22397826,0.62640380859375,0.16961669921875,0.75762939453125,0.0692138671875,-7877,2213,-2027,-32,-26,-15
22407809,0.62939453125,0.16619873046875,0.7557373046875,0.07049560546875,-7756,2189,-1950,-31,-25,-12
22417792,0.6322021484375,0.1632080078125,0.75396728515625,0.0718994140625,-7641,2189,-1881,-30,-24,-9
22427772,0.63482666015625,0.1605224609375,0.75213623046875,0.073486328125,-7523,2171,-1817,-29,-23,-6
22437763,0.63720703125,0.158203125,0.75048828125,0.0751953125,-7410,2149,-1738,-27,-21,-3
22447744,0.63934326171875,0.1561279296875,0.7489013671875,0.0770263671875,-7292,2136,-1664,-26,-19,-1
22457733,0.64129638671875,0.154296875,0.7474365234375,0.07891845703125,-7189,2123,-1587,-25,-17,0
22467702,0.6429443359375,0.15264892578125,0.74609375,0.08087158203125,-7106,2114,-1517,-24,-14,1
22477685,0.64434814453125,0.15106201171875,0.7449951171875,0.082763671875,-7032,2111,-1449,-23,-11,2
22487669,0.6455078125,0.149658203125,0.74407958984375,0.0845947265625,-6972,2104,-1369,-21,-8,2
22497652,0.6463623046875,0.14837646484375,0.743408203125,0.08648681640625,-6939,2111,-1306,-20,-6,3
22507635,0.64697265625,0.14727783203125,0.74285888671875,0.0882568359375,-6929,2135,-1250,-18,-3,4
22517617,0.64727783203125,0.14630126953125,0.7425537109375,0.09014892578125,-6961,2178,-1232,-17,-1,4
22527604,0.64739990234375,0.1455078125,0.742431640625,0.09197998046875,-7022,2242,-1208,-16,1,5
22537582,0.64727783203125,0.1446533203125,0.742431640625,0.0938720703125,-7086,2306,-1217,-16,3,5
22547564,0.64697265625,0.14385986328125,0.74261474609375,0.095703125,-7126,2367,-1230,-15,5,4
22557549,0.64654541015625,0.1429443359375,0.74298095703125,0.09735107421875,-7159,2393,-1221,-15,7,3
22567530,0.64593505859375,0.14190673828125,0.74346923828125,0.098876953125,-7181,2421,-1221,-14,8,1
22577517,0.64532470703125,0.14068603515625,0.7440185546875,0.100341796875,-7211,2468,-1199,-14,9,-1
22587495,0.64459228515625,0.139404296875,0.7447509765625,0.10162353515625,-7263,2509,-1193,-14,11,-2
22597476,0.643798828125,0.13800048828125,0.7454833984375,0.10296630859375,-7342,2575,-1197,-14,11,-2
22607458,0.64288330078125,0.1365966796875,0.746337890625,0.10430908203125,-7432,2646,-1223,-14,12,-3
22617439,0.6419677734375,0.13519287109375,0.74725341796875,0.10565185546875,-7510,2710,-1251,-15,13,-3
22627429,0.6409912109375,0.1336669921875,0.74810791015625,0.1070556640625,-7580,2752,-1282,-15,13,-3
22637411,0.6400146484375,0.13214111328125,0.7490234375,0.1083984375,-7637,2767,-1298,-15,13,-3
22647394,0.63909912109375,0.13055419921875,0.74993896484375,0.10980224609375,-7682,2769,-1312,-16,13,-4
22657372,0.63818359375,0.12884521484375,0.75079345703125,0.1112060546875,-7698,2747,-1297,-16,13,-3
22667353,0.6373291015625,0.1270751953125,0.7515869140625,0.11260986328125,-7719,2739,-1284,-16,12,-4
22677336,0.636474609375,0.1253662109375,0.75238037109375,0.11395263671875,-7748,2720,-1279,-16,12,-4
22687320,0.6357421875,0.12359619140625,0.75311279296875,0.1153564453125,-7775,2698,-1280,-16,11,-3
22697302,0.635009765625,0.1219482421875,0.7537841796875,0.11676025390625,-7794,2680,-1285,-17,10,-2
22707284,0.63433837890625,0.12042236328125,0.75439453125,0.11822509765625,-7816,2673,-1276,-16,10,-2
22717273,0.6336669921875,0.1190185546875,0.7548828125,0.1197509765625,-7820,2684,-1285,-16,9,0
22727256,0.633056640625,0.11773681640625,0.75537109375,0.121337890625,-7834,2683,-1309,-16,9,1
22737239,0.6324462890625,0.1165771484375,0.75579833984375,0.12298583984375,-7884,2707,-1326,-15,8,2
22747224,0.6318359375,0.1156005859375,0.75616455078125,0.1246337890625,-7979,2719,-1369,-15,8,3
22757205,0.63128662109375,0.11468505859375,0.75653076171875,0.12628173828125,-8034,2722,-1404,-14,7,4
22767194,0.63079833984375,0.1138916015625,0.75677490234375,0.12786865234375,-8061,2719,-1407,-14,6,4
22777176,0.63037109375,0.11309814453125,0.7569580078125,0.1292724609375,-8062,2688,-1391,-12,5,3
22787158,0.630126953125,0.11236572265625,0.757080078125,0.1304931640625,-8049,2658,-1367,-11,4,2
22797131,0.62994384765625,0.1116943359375,0.75714111328125,0.13153076171875,-8018,2653,-1340,-10,3,1
22807113,0.6298828125,0.1109619140625,0.75714111328125,0.13238525390625,-7979,2655,-1299,-9,2,0
22817093,0.62994384765625,0.11029052734375,0.75714111328125,0.133056640625,-7916,2672,-1272,-8,1,-1
22827074,0.6300048828125,0.10943603515625,0.757080078125,0.13348388671875,-7863,2680,-1257,-7,1,-3
22837056,0.630126953125,0.1085205078125,0.757080078125,0.1336669921875,-7820,2695,-1253,-6,0,-5
22847040,0.63037109375,0.1075439453125,0.75701904296875,0.1336669921875,-7789,2693,-1252,-6,0,-7
22857023,0.630615234375,0.10638427734375,0.75701904296875,0.13348388671875,-7788,2700,-1235,-5,-1,-9
22867002,0.6309814453125,0.1051025390625,0.7569580078125,0.13311767578125,-7819,2696,-1236,-5,-1,-10
22876991,0.63140869140625,0.1038818359375,0.75689697265625,0.13262939453125,-7873,2681,-1233,-4,-2,-10
22886974,0.6318359375,0.102783203125,0.7567138671875,0.13214111328125,-7935,2684,-1223,-3,-3,-9
22896950,0.6324462890625,0.10186767578125,0.75640869140625,0.13165283203125,-8027,2666,-1189,-3,-5,-8
22906930,0.6331787109375,0.101318359375,0.7559814453125,0.1312255859375,-8139,2660,-1188,-1,-6,-5
22916913,0.63397216796875,0.10107421875,0.75537109375,0.1309814453125,-8263,2654,-1188,-1,-8,-1
22926898,0.63494873046875,0.10125732421875,0.75457763671875,0.13092041015625,-8373,2655,-1195,-1,-10,2
22936885,0.6361083984375,0.1016845703125,0.75347900390625,0.1309814453125,-8475,2649,-1200,0,-14,4
22946864,0.6375732421875,0.10247802734375,0.75213623046875,0.131103515625,-8591,2649,-1218,0,-17,7
22956847,0.63922119140625,0.10345458984375,0.75054931640625,0.13128662109375,-8678,2636,-1230,1,-20,8
22966831,0.64117431640625,0.10467529296875,0.7486572265625,0.1314697265625,-8757,2622,-1252,1,-24,10
22976812,0.64349365234375,0.10614013671875,0.74652099609375,0.131591796875,-8806,2597,-1253,2,-28,11
22986796,0.64605712890625,0.1077880859375,0.7440185546875,0.13165283203125,-8833,2578,-1240,3,-32,12
22996784,0.64898681640625,0.109619140625,0.7412109375,0.13165283203125,-8835,2565,-1234,4,-37,13
23006765,0.65228271484375,0.11163330078125,0.738037109375,0.13153076171875,-8801,2549,-1196,5,-41,13
23016749,0.6558837890625,0.11370849609375,0.73455810546875,0.13116455078125,-8784,2535,-1160,6,-44,12
23026732,0.6597900390625,0.1158447265625,0.7308349609375,0.130615234375,-8770,2551,-1128,7,-48,10
23036709,0.6639404296875,0.117919921875,0.72686767578125,0.1297607421875,-8734,2563,-1090,8,-52,9
23046689,0.66839599609375,0.1201171875,0.72259521484375,0.12872314453125,-8675,2599,-1034,9,-55,8
23056674,0.673095703125,0.12225341796875,0.71807861328125,0.12744140625,-8635,2623,-984,9,-58,6
23066658,0.677978515625,0.12445068359375,0.71337890625,0.1259765625,-8598,2649,-925,10,-61,6
23076641,0.6829833984375,0.12677001953125,0.70843505859375,0.12432861328125,-8525,2673,-874,11,-63,5
23086625,0.6881103515625,0.12921142578125,0.70330810546875,0.12255859375,-8430,2683,-803,13,-65,5
23096606,0.69342041015625,0.13177490234375,0.697998046875,0.1207275390625,-8322,2692,-733,14,-68,6
23106590,0.69866943359375,0.134521484375,0.6925048828125,0.11883544921875,-8235,2704,-679,15,-69,7
23116573,0.7039794921875,0.13751220703125,0.686767578125,0.11700439453125,-8148,2705,-595,15,-71,9
23126554,0.7093505859375,0.1407470703125,0.680908203125,0.11529541015625,-8046,2725,-502,16,-72,11
23136542,0.714599609375,0.14422607421875,0.6749267578125,0.11370849609375,-7937,2747,-396,16,-72,13
23146521,0.7198486328125,0.14788818359375,0.66876220703125,0.11224365234375,-7828,2768,-282,17,-72,15
23156501,0.7249755859375,0.1517333984375,0.66259765625,0.11090087890625,-7685,2791,-160,17,-72,16
23166485,0.72991943359375,0.15570068359375,0.6563720703125,0.10968017578125,-7557,2816,-28,18,-71,17
23176468,0.73480224609375,0.15972900390625,0.650146484375,0.10845947265625,-7446,2834,94,18,-70,17
23186450,0.739501953125,0.16375732421875,0.64404296875,0.10711669921875,-7326,2850,228,19,-69,17
23196430,0.74407958984375,0.16766357421875,0.637939453125,0.105712890625,-7216,2891,365,19,-68,15
23206422,0.74853515625,0.17144775390625,0.6319580078125,0.1041259765625,-7106,2935,490,19,-66,13
23216404,0.75286865234375,0.1751708984375,0.6259765625,0.1024169921875,-7034,3000,619,19,-66,12
23226380,0.7572021484375,0.1787109375,0.6201171875,0.1005859375,-7019,3083,753,19,-65,10
23236362,0.7613525390625,0.1822509765625,0.61419677734375,0.0987548828125,-7012,3167,889,20,-64,10
23246350,0.765380859375,0.185791015625,0.6083984375,0.0970458984375,-6963,3231,1011,19,-63,11
23256328,0.769287109375,0.1893310546875,0.60260009765625,0.09539794921875,-6926,3282,1138,19,-61,12
23266311,0.7730712890625,0.19293212890625,0.59686279296875,0.09393310546875,-6869,3359,1266,19,-60,13
23276294,0.77667236328125,0.196533203125,0.5911865234375,0.092529296875,-6822,3421,1390,19,-59,14
23286275,0.78009033203125,0.2001953125,0.58563232421875,0.09130859375,-6767,3489,1504,18,-57,14
23296258,0.78338623046875,0.2037353515625,0.5802001953125,0.090087890625,-6733,3556,1617,18,-55,14
23306237,0.78656005859375,0.20721435546875,0.57476806640625,0.08892822265625,-6694,3637,1727,18,-54,13
23316229,0.78961181640625,0.2105712890625,0.5694580078125,0.087890625,-6685,3734,1844,17,-53,13
23326212,0.7926025390625,0.21392822265625,0.56427001953125,0.0869140625,-6651,3812,1956,16,-51,14
23336191,0.79534912109375,0.21722412109375,0.5592041015625,0.08612060546875,-6555,3856,2078,16,-49,14
23346183,0.79791259765625,0.22052001953125,0.5543212890625,0.08551025390625,-6434,3881,2185,15,-46,15
23356164,0.80029296875,0.2237548828125,0.54962158203125,0.08514404296875,-6301,3910,2306,15,-43,16
23366141,0.802490234375,0.22686767578125,0.545166015625,0.0848388671875,-6173,3924,2423,14,-39,16
23376119,0.804443359375,0.22991943359375,0.54107666015625,0.08453369140625,-6047,3947,2528,14,-36,14
23386103,0.80621337890625,0.23272705078125,0.537353515625,0.08416748046875,-5941,3967,2616,14,-33,12
23396084,0.8077392578125,0.23529052734375,0.533935546875,0.083740234375,-5827,3992,2676,14,-30,10
23406067,0.80914306640625,0.2376708984375,0.5308837890625,0.0831298828125,-5734,4033,2731,13,-26,7
23416051,0.810302734375,0.2398681640625,0.52813720703125,0.08245849609375,-5682,4068,2752,13,-24,5
23426034,0.81134033203125,0.24188232421875,0.52581787109375,0.081787109375,-5660,4102,2774,12,-21,5
23436016,0.81219482421875,0.2437744140625,0.523681640625,0.08123779296875,-5653,4130,2806,11,-18,5
23446000,0.8128662109375,0.2457275390625,0.521728515625,0.0809326171875,-5685,4163,2845,11,-16,8
23455988,0.8134765625,0.24774169921875,0.51983642578125,0.08111572265625,-5708,4199,2888,10,-14,11
23465967,0.8138427734375,0.25,0.51806640625,0.08172607421875,-5751,4255,2917,10,-12,15
23475946,0.81402587890625,0.25238037109375,0.51641845703125,0.0828857421875,-5797,4350,2958,9,-10,19
23485930,0.81414794921875,0.2548828125,0.5147705078125,0.08447265625,-5846,4433,2982,8,-8,22
23495914,0.8140869140625,0.25750732421875,0.51324462890625,0.08642578125,-5879,4507,2997,7,-6,24
23505894,0.81390380859375,0.26007080078125,0.5118408203125,0.08856201171875,-5890,4567,3008,7,-4,25
23515878,0.81365966796875,0.262451171875,0.5106201171875,0.0908203125,-5913,4621,3008,5,-3,25
23525858,0.81329345703125,0.2646484375,0.5096435546875,0.093017578125,-5932,4659,3007,5,-1,23
23535845,0.81292724609375,0.2666015625,0.50885009765625,0.0950927734375,-5929,4697,2998,4,1,21
23545825,0.81243896484375,0.26824951171875,0.50836181640625,0.0970458984375,-5921,4702,2986,3,3,18
23555808,0.81195068359375,0.26953125,0.5081787109375,0.09869384765625,-5892,4688,2981,2,5,14
23565791,0.81134033203125,0.2705078125,0.50836181640625,0.10009765625,-5853,4672,2973,2,7,10
23575769,0.81072998046875,0.2711181640625,0.50885009765625,0.10107421875,-5830,4667,2966,1,9,5
23585758,0.81005859375,0.2713623046875,0.50958251953125,0.101806640625,-5809,4653,2971,1,11,2
23595742,0.809326171875,0.27142333984375,0.5106201171875,0.10235595703125,-5819,4658,2974,0,13,-1
23605711,0.8084716796875,0.27130126953125,0.51190185546875,0.102783203125,-5832,4683,2970,0,14,-2
23615696,0.80755615234375,0.27117919921875,0.513427734375,0.10321044921875,-5866,4705,2955,0,16,-3
23625679,0.8065185546875,0.2708740234375,0.51507568359375,0.10369873046875,-5919,4726,2931,-1,17,-3
23635658,0.805419921875,0.27056884765625,0.516845703125,0.104248046875,-5974,4748,2894,-1,19,-3
23645641,0.80426025390625,0.2701416015625,0.518798828125,0.10479736328125,-6019,4748,2844,-2,20,-4
23655624,0.80303955078125,0.26953125,0.52081298828125,0.1053466796875,-6064,4735,2795,-2,21,-4
23665607,0.8017578125,0.2689208984375,0.52301025390625,0.1058349609375,-6097,4720,2742,-3,22,-5
23675588,0.80047607421875,0.2681884765625,0.52520751953125,0.1064453125,-6099,4680,2705,-3,22,-4
23685572,0.79913330078125,0.26739501953125,0.52752685546875,0.10711669921875,-6097,4626,2666,-4,24,-4
23695553,0.7977294921875,0.2666015625,0.52984619140625,0.10797119140625,-6084,4583,2638,-4,25,-3
23705536,0.7962646484375,0.26593017578125,0.5322265625,0.10906982421875,-6080,4553,2596,-4,25,-1
23715523,0.79461669921875,0.26531982421875,0.53466796875,0.11041259765625,-6119,4540,2572,-4,27,2
23725503,0.79290771484375,0.2647705078125,0.53717041015625,0.1119384765625,-6196,4526,2538,-5,28,3
23735485,0.79107666015625,0.26434326171875,0.5396728515625,0.1136474609375,-6272,4531,2492,-4,29,4
23745468,0.78924560546875,0.26385498046875,0.542236328125,0.11541748046875,-6319,4543,2455,-5,29,5
23755451,0.787353515625,0.263427734375,0.54486083984375,0.11724853515625,-6371,4540,2400,-5,30,5
23765432,0.785400390625,0.26287841796875,0.54754638671875,0.1190185546875,-6405,4519,2347,-5,30,4
23775423,0.783447265625,0.2623291015625,0.55023193359375,0.12066650390625,-6437,4489,2290,-5,30,4
23785404,0.78143310546875,0.26171875,0.552978515625,0.122314453125,-6456,4477,2231,-5,30,3
23795381,0.7794189453125,0.2611083984375,0.55572509765625,0.1239013671875,-6479,4453,2176,-4,31,3
23805364,0.77740478515625,0.260498046875,0.55853271484375,0.12548828125,-6513,4432,2135,-4,31,3
23815350,0.77520751953125,0.25994873046875,0.5614013671875,0.12713623046875,-6540,4400,2059,-4,32,4
23825330,0.77301025390625,0.25946044921875,0.5643310546875,0.1287841796875,-6569,4376,2028,-3,33,4
23835314,0.77069091796875,0.259033203125,0.56732177734375,0.13043212890625,-6606,4365,1977,-2,33,5
23845296,0.76824951171875,0.2586669921875,0.5704345703125,0.13201904296875,-6637,4362,1928,-2,35,4
23855279,0.76568603515625,0.25823974609375,0.57366943359375,0.1334228515625,-6654,4359,1868,-1,35,3
23865264,0.76312255859375,0.25775146484375,0.5770263671875,0.13470458984375,-6686,4362,1808,0,36,1
23875246,0.760498046875,0.25714111328125,0.58050537109375,0.13568115234375,-6705,4363,1750,1,37,-2
23885232,0.7578125,0.2564697265625,0.58416748046875,0.1363525390625,-6726,4360,1692,2,38,-4
23895216,0.7550048828125,0.25567626953125,0.58807373046875,0.13677978515625,-6685,4323,1639,3,39,-7
23905194,0.7520751953125,0.25469970703125,0.5921630859375,0.13690185546875,-6614,4257,1590,5,41,-10
23915187,0.74908447265625,0.25360107421875,0.59649658203125,0.1365966796875,-6539,4175,1507,6,43,-14
23925174,0.745849609375,0.2523193359375,0.60113525390625,0.135986328125,-6468,4101,1420,7,44,-17
23935153,0.7425537109375,0.25091552734375,0.6060791015625,0.135009765625,-6417,4032,1321,8,46,-20
23945122,0.73907470703125,0.24932861328125,0.61126708984375,0.13372802734375,-6432,3997,1213,10,48,-23
23955104,0.7353515625,0.2476806640625,0.61669921875,0.13214111328125,-6470,3980,1098,11,49,-26
23965088,0.73150634765625,0.245849609375,0.62237548828125,0.1302490234375,-6521,3944,982,12,51,-28
23975070,0.7275390625,0.24395751953125,0.628173828125,0.128173828125,-6573,3912,876,13,53,-30
23985053,0.723388671875,0.241943359375,0.63421630859375,0.1258544921875,-6604,3875,755,14,55,-32
23995035,0.718994140625,0.2398681640625,0.6405029296875,0.1234130859375,-6639,3840,641,15,57,-33
24005020,0.71441650390625,0.23773193359375,0.6468505859375,0.12078857421875,-6687,3799,522,16,58,-35
24015002,0.70965576171875,0.23553466796875,0.6533203125,0.1180419921875,-6756,3767,387,17,59,-36
24027995,0.7047119140625,0.23333740234375,0.659912109375,0.11517333984375,-6824,3729,239,18,60,-36
24034973,0.69964599609375,0.23114013671875,0.66656494140625,0.1123046875,-6870,3694,89,17,61,-36
24044950,0.6944580078125,0.22894287109375,0.6732177734375,0.109375,-6935,3640,-51,18,62,-36
24054931,0.68914794921875,0.226806640625,0.6798095703125,0.10650634765625,-6978,3585,-186,19,62,-36
24064914,0.68377685546875,0.2247314453125,0.6864013671875,0.1036376953125,-7042,3525,-313,19,62,-34
24074897,0.67828369140625,0.2227783203125,0.69281005859375,0.1009521484375,-7123,3477,-453,19,61,-32
24084880,0.67279052734375,0.2210693359375,0.69903564453125,0.09844970703125,-7210,3435,-593,19,61,-29
24094863,0.667236328125,0.2196044921875,0.70513916015625,0.09619140625,-7325,3410,-740,19,60,-26
