subject,Peter Cope
arm,right
label,3
hz,100.17604065102842
time,5.869667

timestamp_us,q0,q1,q2,q3,ax,ay,az,gx,gy,gz
197355433,-0.54632568359375,-0.42791748046875,0.44476318359375,-0.56622314453125,7925,-368,1945,9,-1,0
197365408,-0.54571533203125,-0.42852783203125,0.44415283203125,-0.56683349609375,7918,-347,1941,9,-1,1
197375391,-0.545166015625,-0.4290771484375,0.443603515625,-0.56744384765625,7908,-326,1938,9,-1,1
197385377,-0.5445556640625,-0.42962646484375,0.44305419921875,-0.56805419921875,7923,-308,1940,9,0,1
197395358,-0.54400634765625,-0.4300537109375,0.4425048828125,-0.56866455078125,7925,-296,1959,9,0,2
197405340,-0.54345703125,-0.4305419921875,0.44189453125,-0.56927490234375,7939,-295,1958,8,0,0
197415327,-0.5430908203125,-0.4310302734375,0.4412841796875,-0.56976318359375,7967,-284,1966,8,0,-1
197425303,-0.54278564453125,-0.43157958984375,0.44061279296875,-0.57012939453125,7993,-272,1975,8,0,-2
197435290,-0.5426025390625,-0.43212890625,0.43988037109375,-0.57049560546875,8009,-263,1995,7,1,-3
197445274,-0.54241943359375,-0.4326171875,0.439208984375,-0.57080078125,8031,-253,2004,6,0,-2
197455258,-0.54217529296875,-0.43304443359375,0.4385986328125,-0.57110595703125,8019,-247,2016,6,0,-1
197465247,-0.54193115234375,-0.433349609375,0.43804931640625,-0.571533203125,7999,-229,2017,6,1,0
197475229,-0.5416259765625,-0.43359375,0.4376220703125,-0.572021484375,7964,-213,2012,5,1,2
197485212,-0.541259765625,-0.43365478515625,0.43731689453125,-0.57257080078125,7940,-206,2013,5,1,3
197495194,-0.540771484375,-0.43365478515625,0.43707275390625,-0.57318115234375,7911,-196,2001,4,1,4
197505165,-0.540283203125,-0.43365478515625,0.43695068359375,-0.57373046875,7880,-187,1993,4,1,4
197515149,-0.53985595703125,-0.43353271484375,0.43682861328125,-0.5743408203125,7870,-203,2012,3,1,4
197525133,-0.53948974609375,-0.43341064453125,0.436767578125,-0.5748291015625,7865,-188,2018,2,1,4
197535115,-0.5391845703125,-0.43328857421875,0.436767578125,-0.57525634765625,7878,-180,2012,1,0,4
197545097,-0.53887939453125,-0.43310546875,0.436767578125,-0.57562255859375,7890,-170,2003,1,1,4
197555085,-0.5386962890625,-0.4329833984375,0.436767578125,-0.575927734375,7894,-170,1977,0,0,3
197565063,-0.53851318359375,-0.43280029296875,0.43682861328125,-0.576171875,7906,-168,1953,0,1,3
197575044,-0.53839111328125,-0.43255615234375,0.4368896484375,-0.57635498046875,7880,-169,1938,-1,1,2
197585031,-0.53839111328125,-0.43231201171875,0.4368896484375,-0.5765380859375,7846,-170,1937,-1,1,2
197595013,-0.5384521484375,-0.43206787109375,0.43695068359375,-0.57659912109375,7819,-172,1933,-2,1,1
197604989,-0.53863525390625,-0.431884765625,0.43695068359375,-0.57659912109375,7809,-172,1922,-2,1,0
197614974,-0.53887939453125,-0.4317626953125,0.43701171875,-0.576416015625,7804,-183,1894,-3,1,-2
197624953,-0.53924560546875,-0.431640625,0.43707275390625,-0.576171875,7810,-178,1888,-4,1,-2
197634937,-0.53961181640625,-0.4315185546875,0.4371337890625,-0.57586669921875,7832,-184,1872,-4,1,-3
197644917,-0.53997802734375,-0.431396484375,0.43719482421875,-0.5755615234375,7843,-186,1865,-4,0,-2
197654900,-0.540283203125,-0.43115234375,0.43743896484375,-0.57525634765625,7847,-201,1862,-5,0,-1
197664884,-0.54052734375,-0.430908203125,0.43768310546875,-0.57501220703125,7839,-216,1872,-5,0,-1
197674873,-0.54071044921875,-0.4305419921875,0.4381103515625,-0.57476806640625,7827,-228,1883,-5,-1,1
197684848,-0.54083251953125,-0.43017578125,0.4385986328125,-0.5745849609375,7834,-254,1878,-5,-1,2
197694830,-0.5408935546875,-0.42987060546875,0.4390869140625,-0.57440185546875,7838,-251,1880,-5,-1,2
197704807,-0.54083251953125,-0.4295654296875,0.439697265625,-0.57421875,7860,-264,1881,-5,-2,2
197714796,-0.54083251953125,-0.42919921875,0.4403076171875,-0.57403564453125,7865,-290,1879,-5,-2,2
197724779,-0.54071044921875,-0.42889404296875,0.44091796875,-0.5738525390625,7863,-312,1886,-5,-3,2
197734767,-0.5406494140625,-0.42864990234375,0.4415283203125,-0.5736083984375,7855,-353,1897,-5,-3,2
197744743,-0.54052734375,-0.42840576171875,0.44219970703125,-0.57342529296875,7846,-378,1903,-5,-3,2
197754722,-0.5404052734375,-0.42816162109375,0.44281005859375,-0.5732421875,7830,-391,1922,-5,-4,2
197764704,-0.54022216796875,-0.427978515625,0.4434814453125,-0.57305908203125,7824,-398,1924,-4,-4,2
197774686,-0.5400390625,-0.427734375,0.444091796875,-0.5728759765625,7811,-404,1921,-4,-4,3
197784670,-0.539794921875,-0.42755126953125,0.44476318359375,-0.57275390625,7801,-422,1913,-4,-4,3
197794653,-0.53955078125,-0.42742919921875,0.44537353515625,-0.57257080078125,7799,-446,1909,-3,-4,2
197804637,-0.539306640625,-0.42742919921875,0.44598388671875,-0.5723876953125,7799,-459,1889,-3,-4,1
197814619,-0.53912353515625,-0.42742919921875,0.44647216796875,-0.5721435546875,7813,-482,1887,-3,-4,0
197824604,-0.53900146484375,-0.42755126953125,0.4468994140625,-0.5718994140625,7815,-501,1888,-2,-4,-1
197834581,-0.5389404296875,-0.42779541015625,0.44720458984375,-0.571533203125,7833,-507,1877,-2,-4,-2
197844565,-0.53887939453125,-0.4281005859375,0.44744873046875,-0.5711669921875,7848,-529,1857,-1,-5,-3
197854547,-0.538818359375,-0.428466796875,0.44757080078125,-0.57073974609375,7859,-554,1841,-1,-4,-4
197864531,-0.53887939453125,-0.42889404296875,0.44769287109375,-0.57037353515625,7857,-565,1821,-1,-4,-4
197874518,-0.538818359375,-0.42938232421875,0.44775390625,-0.5699462890625,7876,-566,1804,0,-4,-5
197884496,-0.538818359375,-0.429931640625,0.44781494140625,-0.569580078125,7923,-557,1793,1,-4,-4
197894483,-0.5386962890625,-0.430419921875,0.44781494140625,-0.56927490234375,7953,-545,1780,1,-4,-3
197904469,-0.53839111328125,-0.43084716796875,0.44793701171875,-0.56915283203125,7988,-536,1748,2,-4,-1
197914455,-0.5380859375,-0.43121337890625,0.447998046875,-0.569091796875,8010,-525,1737,2,-3,0
197924434,-0.53765869140625,-0.43145751953125,0.4481201171875,-0.5692138671875,8004,-528,1723,3,-3,1
197934410,-0.53717041015625,-0.43170166015625,0.44818115234375,-0.5694580078125,7988,-536,1730,3,-2,2
197944394,-0.53668212890625,-0.431884765625,0.4482421875,-0.56976318359375,7975,-558,1744,3,-2,2
197954375,-0.53619384765625,-0.43212890625,0.44818115234375,-0.570068359375,7956,-572,1743,4,-2,1
197964361,-0.5357666015625,-0.432373046875,0.4481201171875,-0.5703125,7946,-576,1741,4,-1,0
197974344,-0.535400390625,-0.4327392578125,0.4478759765625,-0.57049560546875,7949,-578,1749,4,-2,-1
197984317,-0.53515625,-0.4332275390625,0.44757080078125,-0.5706787109375,7962,-566,1751,5,-2,-2
197994300,-0.53485107421875,-0.43377685546875,0.44720458984375,-0.57086181640625,7973,-546,1766,5,-2,-3
198004279,-0.53466796875,-0.434326171875,0.44671630859375,-0.57098388671875,7976,-540,1783,6,-1,-3
198014271,-0.534423828125,-0.4349365234375,0.4461669921875,-0.57110595703125,7978,-528,1797,6,-1,-4
198024255,-0.53424072265625,-0.43560791015625,0.44561767578125,-0.5712890625,7986,-522,1795,7,-1,-4
198034240,-0.533935546875,-0.436279296875,0.44500732421875,-0.57147216796875,7986,-511,1804,7,-1,-3
198044223,-0.53369140625,-0.43695068359375,0.44439697265625,-0.5716552734375,7999,-495,1813,7,-2,-3
198054208,-0.5333251953125,-0.43768310546875,0.44378662109375,-0.57196044921875,7989,-483,1823,8,-1,-2
198064189,-0.53289794921875,-0.43829345703125,0.44317626953125,-0.57232666015625,7974,-478,1830,8,-1,-2
198074173,-0.5323486328125,-0.43890380859375,0.442626953125,-0.57281494140625,7968,-477,1840,9,-1,0
198084144,-0.53173828125,-0.43951416015625,0.44207763671875,-0.5733642578125,7966,-446,1856,9,-1,1
198094126,-0.53106689453125,-0.44012451171875,0.4415283203125,-0.57391357421875,7955,-421,1872,9,-2,1
198104108,-0.5303955078125,-0.440673828125,0.44091796875,-0.5745849609375,7949,-407,1878,10,-1,1
198114091,-0.5296630859375,-0.4412841796875,0.44036865234375,-0.5751953125,7931,-386,1870,10,-2,1
198124074,-0.52899169921875,-0.44195556640625,0.43975830078125,-0.5758056640625,7917,-376,1873,10,-2,1
198134056,-0.5283203125,-0.44268798828125,0.4390869140625,-0.57635498046875,7909,-353,1875,11,-2,0
198144042,-0.52764892578125,-0.4434814453125,0.4383544921875,-0.576904296875,7912,-333,1865,11,-2,-1
198154025,-0.5269775390625,-0.44439697265625,0.4376220703125,-0.577392578125,7920,-331,1852,11,-2,-2
198164008,-0.52642822265625,-0.44537353515625,0.436767578125,-0.5777587890625,7933,-308,1845,11,-2,-2
198173986,-0.52587890625,-0.44635009765625,0.43597412109375,-0.57818603515625,7950,-289,1836,11,-2,-3
198183968,-0.52532958984375,-0.44732666015625,0.43511962890625,-0.5784912109375,7959,-264,1805,11,-2,-3
198193949,-0.5247802734375,-0.44830322265625,0.43426513671875,-0.57891845703125,7970,-243,1797,11,-2,-2
198203933,-0.52423095703125,-0.44921875,0.43341064453125,-0.57928466796875,7966,-217,1783,11,-1,-2
198213915,-0.52362060546875,-0.4500732421875,0.4326171875,-0.57977294921875,7963,-186,1771,11,-1,-1
198223902,-0.52301025390625,-0.4508056640625,0.431884765625,-0.580322265625,7951,-172,1773,11,-1,0
198233881,-0.5223388671875,-0.4515380859375,0.43115234375,-0.5809326171875,7953,-144,1762,10,-1,1
198243863,-0.52166748046875,-0.45220947265625,0.43048095703125,-0.58148193359375,7951,-135,1744,10,-1,1
198253852,-0.52105712890625,-0.452880859375,0.42974853515625,-0.58203125,7945,-117,1736,10,0,0
198263830,-0.5206298828125,-0.45361328125,0.428955078125,-0.58245849609375,7950,-110,1729,9,0,-1
198273807,-0.520263671875,-0.454345703125,0.4281005859375,-0.58282470703125,7944,-107,1728,9,0,-3
198283799,-0.52008056640625,-0.45513916015625,0.42724609375,-0.58306884765625,7938,-107,1725,9,0,-5
198293781,-0.5198974609375,-0.45599365234375,0.42633056640625,-0.58319091796875,7934,-129,1708,8,0,-6
198303756,-0.51983642578125,-0.456787109375,0.4254150390625,-0.583251953125,7915,-134,1711,8,0,-6
198313741,-0.519775390625,-0.4576416015625,0.42449951171875,-0.58331298828125,7902,-145,1701,7,0,-6
198323723,-0.51971435546875,-0.45843505859375,0.42364501953125,-0.5833740234375,7902,-159,1693,7,0,-6
198333706,-0.51959228515625,-0.45916748046875,0.42291259765625,-0.58343505859375,7938,-182,1691,7,-1,-6
198343685,-0.51953125,-0.4599609375,0.42218017578125,-0.58343505859375,7973,-206,1686,7,-1,-6
198353670,-0.5194091796875,-0.460693359375,0.42144775390625,-0.58343505859375,8015,-235,1689,6,-1,-6
198363654,-0.51934814453125,-0.46148681640625,0.42083740234375,-0.58331298828125,8048,-274,1688,6,-2,-7
198373635,-0.519287109375,-0.4622802734375,0.420166015625,-0.58319091796875,8085,-345,1706,6,-2,-8
198383619,-0.51922607421875,-0.463134765625,0.41961669921875,-0.58294677734375,8131,-438,1717,6,-3,-9
198393600,-0.5191650390625,-0.46405029296875,0.419189453125,-0.5826416015625,8174,-534,1704,5,-4,-9
198403582,-0.51904296875,-0.4649658203125,0.4188232421875,-0.582275390625,8214,-637,1697,5,-5,-8
198413564,-0.5186767578125,-0.46575927734375,0.418701171875,-0.58209228515625,8218,-759,1721,5,-6,-6
198423548,-0.5179443359375,-0.46630859375,0.4188232421875,-0.58221435546875,8197,-878,1744,5,-6,-1
198433534,-0.5167236328125,-0.46661376953125,0.4193115234375,-0.5826416015625,8177,-999,1779,5,-7,5
198443516,-0.5150146484375,-0.46661376953125,0.42022705078125,-0.58349609375,8185,-1126,1802,6,-7,11
198453495,-0.51287841796875,-0.46630859375,0.4215087890625,-0.584716796875,8220,-1215,1831,6,-8,17
198463483,-0.51031494140625,-0.4658203125,0.423095703125,-0.58624267578125,8264,-1294,1866,6,-9,22
198473468,-0.50750732421875,-0.46514892578125,0.4248046875,-0.58795166015625,8331,-1375,1922,6,-9,25
198483449,-0.5045166015625,-0.46435546875,0.42669677734375,-0.58978271484375,8421,-1476,1967,6,-9,26
198493433,-0.50152587890625,-0.46356201171875,0.42864990234375,-0.591552734375,8547,-1582,2021,5,-10,26
198503409,-0.49853515625,-0.462646484375,0.4306640625,-0.59332275390625,8682,-1712,2057,5,-10,26
198513392,-0.49542236328125,-0.461669921875,0.432861328125,-0.5950927734375,8845,-1863,2085,4,-10,27
198523374,-0.49224853515625,-0.46044921875,0.43524169921875,-0.596923828125,9023,-1997,2133,3,-10,30
198533357,-0.48870849609375,-0.45892333984375,0.43798828125,-0.5989990234375,9281,-2119,2158,1,-10,36
198543338,-0.48468017578125,-0.45684814453125,0.4412841796875,-0.6014404296875,9556,-2210,2162,-1,-10,45
198553319,-0.47991943359375,-0.4539794921875,0.4453125,-0.6043701171875,9813,-2268,2146,-3,-9,57
198563300,-0.47430419921875,-0.4501953125,0.45025634765625,-0.6080322265625,10024,-2329,2138,-5,-8,73
198573281,-0.46759033203125,-0.44512939453125,0.4561767578125,-0.61248779296875,10219,-2406,2137,-8,-7,91
198583274,-0.4598388671875,-0.4388427734375,0.463134765625,-0.61773681640625,10420,-2502,2133,-11,-5,108
198593256,-0.4510498046875,-0.4312744140625,0.47088623046875,-0.62359619140625,10593,-2614,2125,-15,-3,123
198603244,-0.44158935546875,-0.42242431640625,0.4793701171875,-0.62994384765625,10734,-2770,2113,-18,0,136
198613229,-0.4315185546875,-0.4124755859375,0.48828125,-0.6365966796875,10873,-2945,2118,-22,3,146
198623212,-0.4212646484375,-0.40167236328125,0.4974365234375,-0.643310546875,11034,-3142,2145,-26,6,152
198633195,-0.41094970703125,-0.3900146484375,0.50665283203125,-0.64990234375,11163,-3365,2180,-29,10,156
198643164,-0.40069580078125,-0.3775634765625,0.51580810546875,-0.6563720703125,11260,-3614,2212,-33,14,158
198653146,-0.390625,-0.3643798828125,0.52496337890625,-0.66265869140625,11324,-3870,2218,-36,18,161
198663128,-0.38055419921875,-0.35040283203125,0.53399658203125,-0.66876220703125,11361,-4161,2234,-39,23,164
198673112,-0.37042236328125,-0.33551025390625,0.5430908203125,-0.6748046875,11384,-4484,2238,-42,27,170
198683095,-0.35992431640625,-0.3197021484375,0.55218505859375,-0.68072509765625,11426,-4794,2241,-44,31,177
198693076,-0.34893798828125,-0.30267333984375,0.561279296875,-0.686767578125,11445,-5101,2245,-46,36,188
198703058,-0.33721923828125,-0.2843017578125,0.57037353515625,-0.69293212890625,11414,-5422,2258,-48,41,200
198713040,-0.3245849609375,-0.2645263671875,0.5794677734375,-0.69921875,11289,-5773,2275,-49,45,212
198723030,-0.31109619140625,-0.24334716796875,0.58843994140625,-0.70556640625,11018,-6108,2297,-50,49,224
198733012,-0.296630859375,-0.220947265625,0.59710693359375,-0.7117919921875,10650,-6432,2304,-50,51,234
198742991,-0.28118896484375,-0.19757080078125,0.60546875,-0.7178955078125,10273,-6739,2296,-50,53,245
198752976,-0.26507568359375,-0.17327880859375,0.61334228515625,-0.72357177734375,9834,-7075,2284,-49,55,251
198762958,-0.248291015625,-0.1483154296875,0.62060546875,-0.72882080078125,9285,-7403,2295,-49,56,255
198772942,-0.23095703125,-0.12298583984375,0.627197265625,-0.733642578125,8659,-7690,2312,-48,56,259
198782922,-0.212890625,-0.09722900390625,0.63299560546875,-0.7379150390625,8026,-7948,2369,-46,55,263
198792905,-0.1942138671875,-0.0714111328125,0.6380615234375,-0.74163818359375,7388,-8177,2393,-44,53,266
198802889,-0.175048828125,-0.04559326171875,0.64239501953125,-0.74468994140625,6749,-8387,2380,-43,51,267
198812871,-0.15545654296875,-0.0198974609375,0.64593505859375,-0.74713134765625,6153,-8538,2359,-41,49,268
198822853,-0.13555908203125,0.0054931640625,0.64874267578125,-0.74884033203125,5599,-8701,2288,-40,47,268
198832836,-0.1153564453125,0.030517578125,0.65081787109375,-0.74981689453125,5025,-8787,2173,-38,44,267
198842818,-0.0948486328125,0.0552978515625,0.65216064453125,-0.75006103515625,4443,-8804,2055,-37,41,268
198852806,-0.0738525390625,0.07989501953125,0.65277099609375,-0.74969482421875,3848,-8805,1933,-36,39,270
198862788,-0.05224609375,0.1043701171875,0.65252685546875,-0.74871826171875,3206,-8733,1830,-34,36,272
198872770,-0.030029296875,0.12872314453125,0.6513671875,-0.74713134765625,2549,-8578,1742,-33,32,275
198882747,-0.0072021484375,0.15289306640625,0.6494140625,-0.744873046875,1926,-8389,1647,-32,28,278
198892729,0.01593017578125,0.17645263671875,0.64666748046875,-0.741943359375,1355,-8195,1525,-31,24,277
198902711,0.038818359375,0.1990966796875,0.64324951171875,-0.73828125,821,-7975,1410,-31,21,270
198912695,0.06121826171875,0.22052001953125,0.63946533203125,-0.73394775390625,297,-7666,1266,-31,17,261
198922677,0.0830078125,0.24072265625,0.63531494140625,-0.72906494140625,-187,-7287,1129,-32,13,250
198932660,0.10406494140625,0.25946044921875,0.63104248046875,-0.7236328125,-558,-6912,959,-33,10,238
198942643,0.12408447265625,0.2767333984375,0.62689208984375,-0.7176513671875,-845,-6582,779,-35,7,224
198952624,0.1429443359375,0.29241943359375,0.62298583984375,-0.7113037109375,-1088,-6243,628,-37,5,210
198962608,0.16094970703125,0.3067626953125,0.6192626953125,-0.70458984375,-1327,-5908,475,-39,2,199
198972586,0.17822265625,0.3199462890625,0.61572265625,-0.6976318359375,-1504,-5565,341,-41,0,188
198982570,0.19488525390625,0.3321533203125,0.61236572265625,-0.6904296875,-1641,-5241,207,-44,-2,180
198992550,0.21112060546875,0.34344482421875,0.60919189453125,-0.68292236328125,-1752,-4908,66,-45,-4,173
199002532,0.22705078125,0.35418701171875,0.60595703125,-0.67510986328125,-1871,-4597,-48,-47,-5,170
199012514,0.24285888671875,0.36444091796875,0.60272216796875,-0.6669921875,-2017,-4258,-142,-49,-7,167
199022498,0.2587890625,0.3743896484375,0.5992431640625,-0.6585693359375,-2187,-3901,-224,-50,-8,166
199032483,0.274658203125,0.3839111328125,0.59564208984375,-0.64984130859375,-2355,-3557,-289,-52,-9,164
199042467,0.2904052734375,0.39312744140625,0.5919189453125,-0.640869140625,-2534,-3214,-344,-53,-10,161
199052450,0.3060302734375,0.40185546875,0.588134765625,-0.631591796875,-2711,-2881,-380,-54,-11,158
199062431,0.32135009765625,0.41015625,0.584228515625,-0.62225341796875,-2867,-2534,-406,-54,-12,154
199072409,0.33624267578125,0.4178466796875,0.580322265625,-0.61279296875,-3017,-2186,-442,-55,-13,148
199082391,0.3504638671875,0.4249267578125,0.57647705078125,-0.603515625,-3128,-1821,-484,-54,-13,140
199092372,0.36395263671875,0.43133544921875,0.5728759765625,-0.5943603515625,-3230,-1443,-493,-53,-13,129
199102356,0.37652587890625,0.43695068359375,0.56951904296875,-0.5855712890625,-3346,-1082,-470,-52,-12,118
199112337,0.3880615234375,0.4417724609375,0.56646728515625,-0.57733154296875,-3480,-711,-441,-50,-12,105
199122321,0.39862060546875,0.44573974609375,0.56378173828125,-0.56964111328125,-3663,-294,-375,-48,-12,92
199132304,0.408203125,0.448974609375,0.56134033203125,-0.56268310546875,-3860,152,-285,-45,-12,78
199142290,0.41668701171875,0.451416015625,0.559326171875,-0.5565185546875,-4099,622,-170,-42,-12,63
199152274,0.42431640625,0.45294189453125,0.5576171875,-0.5511474609375,-4382,1123,-5,-39,-13,49
199162256,0.430908203125,0.45355224609375,0.55633544921875,-0.546875,-4705,1627,206,-36,-14,33
199172240,0.43658447265625,0.45306396484375,0.555419921875,-0.543701171875,-4999,2104,437,-33,-16,16
199182227,0.441162109375,0.4515380859375,0.554931640625,-0.541748046875,-5266,2513,671,-30,-19,-1
199192208,0.44482421875,0.44891357421875,0.5548095703125,-0.54107666015625,-5509,2883,903,-26,-21,-17
199202188,0.447509765625,0.4453125,0.554931640625,-0.54168701171875,-5740,3179,1125,-21,-25,-31
199212158,0.449462890625,0.44085693359375,0.55517578125,-0.54351806640625,-5933,3438,1337,-16,-28,-44
199222140,0.4505615234375,0.4356689453125,0.555419921875,-0.54644775390625,-6053,3628,1510,-12,-31,-55
199232124,0.45068359375,0.42974853515625,0.55596923828125,-0.550537109375,-6019,3727,1623,-7,-34,-68
199242105,0.44970703125,0.4229736328125,0.55682373046875,-0.55572509765625,-5861,3760,1665,-3,-35,-82
199252091,0.44732666015625,0.415283203125,0.5582275390625,-0.56195068359375,-5620,3724,1644,1,-35,-97
199262070,0.44342041015625,0.40673828125,0.560302734375,-0.5692138671875,-5298,3621,1592,4,-34,-114
199272052,0.43780517578125,0.397216796875,0.5631103515625,-0.577392578125,-4925,3467,1495,6,-32,-130
199282038,0.430419921875,0.38671875,0.5667724609375,-0.58642578125,-4502,3270,1391,9,-27,-148
199292026,0.42120361328125,0.37530517578125,0.5712890625,-0.5960693359375,-4063,3030,1265,10,-23,-165
199302008,0.4100341796875,0.363037109375,0.57659912109375,-0.60626220703125,-3641,2765,1142,12,-18,-180
199311985,0.397216796875,0.34991455078125,0.58258056640625,-0.61676025390625,-3256,2463,1039,12,-13,-193
199321967,0.3829345703125,0.33624267578125,0.5888671875,-0.62725830078125,-2869,2141,955,12,-8,-201
199331950,0.367431640625,0.3221435546875,0.59552001953125,-0.6375732421875,-2461,1815,844,12,-3,-207
199341936,0.350830078125,0.30780029296875,0.60235595703125,-0.6475830078125,-2020,1469,717,12,2,-212
199351917,0.33306884765625,0.2930908203125,0.60943603515625,-0.65704345703125,-1563,1113,574,10,7,-216
199361898,0.3143310546875,0.27813720703125,0.61676025390625,-0.6658935546875,-1158,780,430,8,13,-220
199371879,0.294677734375,0.26287841796875,0.624267578125,-0.674072265625,-825,436,323,5,17,-224
199381862,0.27410888671875,0.24725341796875,0.63177490234375,-0.68157958984375,-603,96,258,2,22,-228
199391848,0.25286865234375,0.23114013671875,0.639404296875,-0.6883544921875,-379,-252,237,-2,23,-232
199401826,0.23077392578125,0.21405029296875,0.64691162109375,-0.69451904296875,-108,-652,221,-5,24,-239
199411806,0.20751953125,0.19573974609375,0.654541015625,-0.70013427734375,168,-1063,175,-9,24,-250
199421798,0.18316650390625,0.17608642578125,0.662109375,-0.7049560546875,469,-1442,161,-12,23,-261
199431780,0.15789794921875,0.15533447265625,0.66943359375,-0.7091064453125,790,-1831,146,-16,22,-268
199441757,0.13201904296875,0.13360595703125,0.6763916015625,-0.71221923828125,1112,-2260,110,-19,20,-273
199451739,0.10601806640625,0.111328125,0.68280029296875,-0.7142333984375,1420,-2708,75,-22,18,-272
199461721,0.0804443359375,0.08880615234375,0.6884765625,-0.71527099609375,1760,-3130,90,-25,14,-268
199471704,0.0557861328125,0.06634521484375,0.693359375,-0.71533203125,2137,-3657,121,-26,9,-259
199481688,0.031982421875,0.0439453125,0.69744873046875,-0.71453857421875,2686,-4197,98,-26,5,-250
199491670,0.00885009765625,0.02142333984375,0.70086669921875,-0.71295166015625,3285,-4787,35,-26,1,-245
199501657,-0.01373291015625,-0.00091552734375,0.70343017578125,-0.71063232421875,3826,-5299,-35,-25,-1,-240
199511636,-0.03558349609375,-0.02294921875,0.705322265625,-0.7076416015625,4392,-5724,-123,-25,-3,-233
199521616,-0.0567626953125,-0.0445556640625,0.70654296875,-0.70404052734375,4989,-6093,-166,-25,-5,-226
199531599,-0.07696533203125,-0.06549072265625,0.70709228515625,-0.6998291015625,5672,-6479,-273,-24,-6,-216
199541582,-0.0965576171875,-0.08587646484375,0.7073974609375,-0.6949462890625,6414,-6907,-456,-26,-6,-208
199551563,-0.1156005859375,-0.10552978515625,0.707275390625,-0.68939208984375,7006,-7299,-633,-26,-5,-202
199561545,-0.1336669921875,-0.1240234375,0.70672607421875,-0.68359375,7416,-7597,-752,-26,-4,-192
199571530,-0.15045166015625,-0.14093017578125,0.70587158203125,-0.67767333984375,7708,-7815,-828,-25,-2,-177
199581511,-0.16583251953125,-0.15618896484375,0.7047119140625,-0.67193603515625,8025,-8028,-882,-23,-1,-163
199591500,-0.18048095703125,-0.17059326171875,0.7032470703125,-0.6661376953125,8471,-8268,-990,-22,0,-156
199601483,-0.1953125,-0.18505859375,0.70147705078125,-0.659912109375,9014,-8537,-1127,-23,1,-162
199611467,-0.2110595703125,-0.2003173828125,0.69915771484375,-0.653076171875,9486,-8750,-1227,-24,2,-176
199621447,-0.22772216796875,-0.21630859375,0.6962890625,-0.64544677734375,9873,-8892,-1307,-26,3,-187
199631431,-0.24444580078125,-0.232177734375,0.69287109375,-0.63739013671875,10223,-9019,-1377,-26,4,-189
199641408,-0.26068115234375,-0.24737548828125,0.689208984375,-0.629150390625,10563,-9175,-1466,-26,5,-184
199651390,-0.2760009765625,-0.2613525390625,0.6854248046875,-0.62109375,10811,-9336,-1572,-25,8,-174
199661372,-0.29010009765625,-0.273681640625,0.681640625,-0.61346435546875,10974,-9452,-1617,-23,11,-160
199671356,-0.3031005859375,-0.2845458984375,0.67779541015625,-0.6064453125,11207,-9555,-1677,-22,13,-147
199681338,-0.31561279296875,-0.29437255859375,0.673828125,-0.59979248046875,11517,-9717,-1799,-21,17,-142
199691319,-0.32830810546875,-0.30401611328125,0.6695556640625,-0.5928955078125,11837,-9918,-1936,-21,20,-148
199701303,-0.34173583984375,-0.31402587890625,0.66473388671875,-0.58551025390625,12077,-10114,-2051,-23,23,-160
199711290,-0.355712890625,-0.32440185546875,0.65936279296875,-0.5775146484375,12171,-10210,-2127,-24,25,-169
199721275,-0.36944580078125,-0.33428955078125,0.6539306640625,-0.56939697265625,12080,-10199,-2141,-25,25,-165
199731256,-0.3819580078125,-0.34283447265625,0.64886474609375,-0.561767578125,11810,-10126,-2068,-25,25,-149
199741240,-0.3924560546875,-0.34918212890625,0.64471435546875,-0.55535888671875,11553,-10035,-1975,-25,23,-122
199751226,-0.40069580078125,-0.353271484375,0.6417236328125,-0.55035400390625,11449,-10032,-1966,-23,23,-94
199761210,-0.40716552734375,-0.3555908203125,0.6396484375,-0.5465087890625,11446,-10130,-2002,-22,23,-74
199771190,-0.41278076171875,-0.35699462890625,0.63800048828125,-0.54327392578125,11413,-10282,-2036,-21,24,-67
199781160,-0.41827392578125,-0.35809326171875,0.6363525390625,-0.540283203125,11328,-10436,-2018,-21,25,-67
199791142,-0.42364501953125,-0.3590087890625,0.634765625,-0.53741455078125,11205,-10552,-2008,-21,25,-65
199801125,-0.4283447265625,-0.35931396484375,0.6334228515625,-0.53497314453125,10986,-10641,-1988,-20,24,-56
199811109,-0.43170166015625,-0.35833740234375,0.63299560546875,-0.533447265625,10665,-10713,-1953,-19,22,-36
199821093,-0.4329833984375,-0.35546875,0.6337890625,-0.53338623046875,10276,-10776,-1904,-18,20,-8
199831077,-0.43194580078125,-0.350341796875,0.635986328125,-0.53497314453125,9806,-10838,-1826,-16,17,23
199841058,-0.4285888671875,-0.3431396484375,0.6395263671875,-0.53814697265625,9317,-10865,-1717,-15,13,53
199851041,-0.42315673828125,-0.334228515625,0.64404296875,-0.5426025390625,8920,-10885,-1597,-13,9,78
199861031,-0.41595458984375,-0.32427978515625,0.6494140625,-0.5478515625,8592,-10904,-1507,-11,3,95
199871011,-0.40740966796875,-0.31365966796875,0.6551513671875,-0.55352783203125,8367,-10919,-1422,-10,-2,107
199880984,-0.3978271484375,-0.3028564453125,0.66131591796875,-0.55926513671875,8276,-10916,-1392,-9,-7,116
199890967,-0.3870849609375,-0.2916259765625,0.66766357421875,-0.56512451171875,8323,-10892,-1409,-8,-12,127
199900953,-0.37518310546875,-0.27978515625,0.6744384765625,-0.57110595703125,8467,-10857,-1451,-7,-16,141
199910934,-0.36199951171875,-0.26702880859375,0.681396484375,-0.577392578125,8764,-10838,-1487,-7,-19,157
199920916,-0.34783935546875,-0.25347900390625,0.6884765625,-0.58380126953125,9117,-10845,-1552,-6,-20,169
199930900,-0.3330078125,-0.23931884765625,0.69537353515625,-0.5902099609375,9455,-10850,-1594,-6,-21,178
199940881,-0.31768798828125,-0.2244873046875,0.7020263671875,-0.59649658203125,9776,-10808,-1630,-6,-21,188
199950865,-0.30169677734375,-0.2088623046875,0.70849609375,-0.60284423828125,10029,-10781,-1633,-6,-20,199
199960845,-0.28485107421875,-0.1920166015625,0.7147216796875,-0.6092529296875,10214,-10771,-1639,-6,-19,214
199970829,-0.26708984375,-0.1739501953125,0.720703125,-0.61566162109375,10304,-10763,-1652,-6,-18,228
199980809,-0.24847412109375,-0.15472412109375,0.726318359375,-0.62188720703125,10281,-10748,-1673,-6,-17,240
199990798,-0.22918701171875,-0.13458251953125,0.73150634765625,-0.6279296875,10184,-10702,-1708,-6,-16,250
200000781,-0.2095947265625,-0.1138916015625,0.736083984375,-0.63348388671875,9997,-10682,-1717,-6,-15,253
200010758,-0.18994140625,-0.09307861328125,0.739990234375,-0.63848876953125,9731,-10652,-1719,-7,-14,253
200020741,-0.170654296875,-0.072509765625,0.74322509765625,-0.642822265625,9355,-10597,-1702,-7,-13,249
200030724,-0.15155029296875,-0.0521240234375,0.74578857421875,-0.6466064453125,8878,-10523,-1631,-7,-12,246
200040706,-0.1324462890625,-0.0318603515625,0.74774169921875,-0.64984130859375,8383,-10441,-1550,-8,-13,246
200050688,-0.11297607421875,-0.011474609375,0.74908447265625,-0.65264892578125,7825,-10341,-1454,-8,-14,249
200060671,-0.0927734375,0.00933837890625,0.74981689453125,-0.655029296875,7230,-10212,-1329,-8,-16,256
200070652,-0.07177734375,0.03057861328125,0.74993896484375,-0.6568603515625,6630,-10048,-1254,-8,-18,262
200080634,-0.05010986328125,0.05206298828125,0.74945068359375,-0.65814208984375,6029,-9814,-1212,-9,-21,267
200090616,-0.02777099609375,0.07391357421875,0.74822998046875,-0.65869140625,5401,-9525,-1209,-9,-23,272
200100598,-0.00482177734375,0.09588623046875,0.74639892578125,-0.65850830078125,4750,-9214,-1210,-10,-25,275
200110581,0.0184326171875,0.11767578125,0.74383544921875,-0.6575927734375,4090,-8884,-1201,-11,-27,275
200120564,0.0418701171875,0.13897705078125,0.74066162109375,-0.656005859375,3399,-8563,-1143,-13,-30,272
200130546,0.06524658203125,0.15948486328125,0.73687744140625,-0.6536865234375,2707,-8263,-1084,-15,-33,265
200140528,0.088134765625,0.1785888671875,0.732666015625,-0.65081787109375,2061,-7975,-1017,-16,-38,253
200154030,0.1103515625,0.19598388671875,0.7281494140625,-0.64739990234375,1467,-7643,-982,-18,-42,239
200160494,0.1317138671875,0.21160888671875,0.7236328125,-0.64361572265625,960,-7320,-982,-21,-46,223
200170483,0.15228271484375,0.2254638671875,0.71905517578125,-0.63946533203125,591,-7005,-1034,-22,-50,210
200180468,0.17193603515625,0.23773193359375,0.714599609375,-0.635009765625,326,-6697,-1102,-24,-53,196
200190450,0.1910400390625,0.248779296875,0.71014404296875,-0.63031005859375,130,-6396,-1184,-26,-55,189
200200431,0.21002197265625,0.25921630859375,0.70556640625,-0.62518310546875,3,-6086,-1248,-28,-58,187
200210408,0.229248046875,0.26959228515625,0.70062255859375,-0.61956787109375,-131,-5774,-1324,-29,-59,191
200220391,0.2489013671875,0.2802734375,0.6951904296875,-0.61334228515625,-275,-5466,-1388,-30,-60,196
200230374,0.26885986328125,0.29119873046875,0.68914794921875,-0.6065673828125,-462,-5123,-1406,-30,-60,201
200240356,0.28900146484375,0.30218505859375,0.6826171875,-0.59930419921875,-636,-4785,-1411,-31,-60,203
200250338,0.30877685546875,0.31298828125,0.67572021484375,-0.5916748046875,-791,-4450,-1406,-31,-59,200
200260320,0.32794189453125,0.32318115234375,0.66864013671875,-0.5838623046875,-952,-4112,-1372,-31,-59,193
200270302,0.34625244140625,0.3326416015625,0.66143798828125,-0.57611083984375,-1109,-3751,-1335,-30,-58,183
200280290,0.36370849609375,0.3414306640625,0.65423583984375,-0.56842041015625,-1267,-3357,-1269,-29,-56,173
200290274,0.380126953125,0.34942626953125,0.64703369140625,-0.56103515625,-1407,-2940,-1174,-27,-54,162
200300257,0.39544677734375,0.35675048828125,0.639892578125,-0.553955078125,-1554,-2528,-1072,-24,-52,151
200310240,0.40948486328125,0.36328125,0.63287353515625,-0.54754638671875,-1711,-2113,-934,-21,-50,136
200320227,0.422119140625,0.3690185546875,0.62615966796875,-0.541748046875,-1871,-1683,-770,-17,-46,121
200330210,0.43316650390625,0.37384033203125,0.61981201171875,-0.53704833984375,-2064,-1237,-557,-12,-43,102
200340193,0.44244384765625,0.3775634765625,0.61395263671875,-0.5335693359375,-2303,-755,-307,-6,-39,79
200350164,0.44970703125,0.37994384765625,0.60882568359375,-0.53167724609375,-2532,-279,-22,0,-36,53
200360143,0.45477294921875,0.3807373046875,0.60455322265625,-0.53167724609375,-2758,215,276,6,-34,22
200370126,0.4573974609375,0.3798828125,0.60125732421875,-0.53375244140625,-2978,726,554,13,-30,-9
200380105,0.45794677734375,0.3775634765625,0.598876953125,-0.53765869140625,-3208,1238,839,19,-28,-37
200390088,0.45654296875,0.3741455078125,0.59710693359375,-0.54315185546875,-3432,1738,1080,26,-26,-59
200400069,0.45367431640625,0.3699951171875,0.595703125,-0.54986572265625,-3670,2189,1296,31,-24,-75
200410053,0.44976806640625,0.3656005859375,0.59442138671875,-0.557373046875,-3912,2580,1491,36,-21,-85
200420035,0.445068359375,0.36102294921875,0.59307861328125,-0.5655517578125,-4117,2896,1671,41,-20,-91
200430025,0.43975830078125,0.3565673828125,0.591552734375,-0.57403564453125,-4262,3127,1790,45,-19,-94
200440001,0.43402099609375,0.3521728515625,0.58990478515625,-0.58270263671875,-4337,3276,1841,47,-18,-97
200449985,0.42779541015625,0.3477783203125,0.5882568359375,-0.591552734375,-4328,3367,1840,49,-16,-99
200459967,0.4210205078125,0.34332275390625,0.58673095703125,-0.6004638671875,-4250,3395,1802,50,-15,-102
200469949,0.41351318359375,0.33868408203125,0.58551025390625,-0.6094970703125,-4102,3362,1724,50,-12,-107
200479933,0.4052734375,0.33355712890625,0.58465576171875,-0.61859130859375,-3885,3259,1613,49,-10,-114
200489914,0.39593505859375,0.327880859375,0.58441162109375,-0.6278076171875,-3658,3118,1491,48,-7,-123
200499896,0.385498046875,0.32159423828125,0.5848388671875,-0.63714599609375,-3416,2932,1368,46,-4,-133
200509882,0.373779296875,0.31451416015625,0.58587646484375,-0.64654541015625,-3189,2730,1260,44,0,-144
200519864,0.36065673828125,0.3065185546875,0.5877685546875,-0.6561279296875,-2992,2502,1157,42,4,-158
200529846,0.345947265625,0.29730224609375,0.59039306640625,-0.66583251953125,-2774,2254,1083,38,7,-175
200539828,0.3292236328125,0.28656005859375,0.593994140625,-0.67578125,-2543,1959,1012,35,10,-195
200549808,0.310302734375,0.27410888671875,0.5985107421875,-0.68585205078125,-2276,1627,941,31,13,-217
200559800,0.28924560546875,0.2598876953125,0.603759765625,-0.69586181640625,-2002,1282,877,27,16,-236
200569780,0.266357421875,0.24407958984375,0.60955810546875,-0.70556640625,-1747,907,841,23,17,-252
200579756,0.241943359375,0.2269287109375,0.61566162109375,-0.71478271484375,-1528,516,820,18,18,-265
200589741,0.21673583984375,0.20867919921875,0.6217041015625,-0.72314453125,-1353,150,828,14,18,-271
200599723,0.19122314453125,0.189697265625,0.62744140625,-0.73052978515625,-1140,-225,840,10,15,-272
200609711,0.1658935546875,0.170166015625,0.6328125,-0.7369384765625,-916,-648,877,6,12,-270
200619693,0.140869140625,0.1500244140625,0.63775634765625,-0.74224853515625,-632,-1082,939,1,7,-266
200629671,0.11651611328125,0.12939453125,0.64215087890625,-0.74652099609375,-302,-1544,966,-2,2,-261
200639651,0.09283447265625,0.10833740234375,0.64605712890625,-0.74981689453125,69,-2042,974,-5,-4,-255
200649631,0.06982421875,0.08685302734375,0.64947509765625,-0.752197265625,552,-2580,978,-7,-10,-251
200659614,0.04705810546875,0.0645751953125,0.65234375,-0.75372314453125,1210,-3184,941,-8,-15,-250
200669597,0.02410888671875,0.041259765625,0.65478515625,-0.75433349609375,1834,-3776,897,-10,-20,-255
200679579,0.00091552734375,0.0169677734375,0.65667724609375,-0.75396728515625,2421,-4273,833,-11,-24,-261
200689563,-0.02239990234375,-0.00811767578125,0.65802001953125,-0.75262451171875,3024,-4664,780,-13,-29,-264
200699545,-0.04541015625,-0.0335693359375,0.65887451171875,-0.7501220703125,3617,-5003,708,-15,-33,-261
200709528,-0.0675048828125,-0.05889892578125,0.65899658203125,-0.746826171875,4342,-5376,653,-15,-36,-254
200719513,-0.08892822265625,-0.08404541015625,0.658447265625,-0.74261474609375,5278,-5850,545,-14,-38,-247
200729494,-0.1099853515625,-0.10919189453125,0.6571044921875,-0.73773193359375,6232,-6378,431,-12,-39,-245
200739483,-0.13104248046875,-0.13427734375,0.6549072265625,-0.7320556640625,7040,-6770,314,-10,-37,-247
200749467,-0.1519775390625,-0.1590576171875,0.65185546875,-0.72576904296875,7704,-6960,181,-9,-36,-247
200759449,-0.17242431640625,-0.1832275390625,0.64813232421875,-0.71875,8224,-6990,122,-9,-35,-243
200769431,-0.19189453125,-0.206298828125,0.64404296875,-0.71124267578125,8723,-6957,103,-11,-36,-233
200779408,-0.2100830078125,-0.22821044921875,0.6397705078125,-0.7032470703125,9303,-6994,79,-12,-36,-220
200789390,-0.2271728515625,-0.2490234375,0.63531494140625,-0.69488525390625,9965,-7134,39,-13,-35,-210
200799372,-0.24334716796875,-0.26861572265625,0.630615234375,-0.686279296875,10530,-7322,-7,-12,-32,-203
200809355,-0.25885009765625,-0.286865234375,0.62548828125,-0.6778564453125,11109,-7471,-65,-10,-27,-195
200819336,-0.27392578125,-0.30401611328125,0.6199951171875,-0.66949462890625,11671,-7570,-154,-9,-21,-188
200829319,-0.28863525390625,-0.3199462890625,0.6141357421875,-0.66119384765625,12083,-7641,-230,-9,-16,-184
200839301,-0.30303955078125,-0.33489990234375,0.6080322265625,-0.6529541015625,12308,-7671,-281,-9,-12,-181
200849290,-0.31695556640625,-0.34881591796875,0.6019287109375,-0.6446533203125,12312,-7648,-279,-11,-10,-176
200859273,-0.330078125,-0.36175537109375,0.59600830078125,-0.63641357421875,12290,-7583,-221,-13,-10,-169
200869253,-0.34246826171875,-0.373779296875,0.59033203125,-0.62811279296875,12239,-7498,-171,-15,-11,-161
200879240,-0.353759765625,-0.3848876953125,0.5850830078125,-0.6199951171875,12082,-7423,-65,-16,-12,-152
200889226,-0.36407470703125,-0.39495849609375,0.5802001953125,-0.6123046875,12040,-7396,28,-16,-12,-141
200899209,-0.37347412109375,-0.40411376953125,0.5755615234375,-0.60491943359375,12173,-7439,73,-15,-12,-134
200909192,-0.38250732421875,-0.412841796875,0.5709228515625,-0.5977783203125,12396,-7512,89,-14,-11,-131
200919163,-0.39141845703125,-0.42138671875,0.5660400390625,-0.59063720703125,12683,-7577,117,-13,-9,-134
200929145,-0.400634765625,-0.4290771484375,0.5614013671875,-0.58331298828125,13269,-7134,295,-24,-6,-123
200939126,-0.4102783203125,-0.434814453125,0.55804443359375,-0.5755615234375,13795,-6683,409,-40,-2,-110
200949104,-0.41986083984375,-0.43841552734375,0.556640625,-0.56719970703125,14190,-6323,409,-60,-1,-94
200959091,-0.4287109375,-0.43902587890625,0.557861328125,-0.558837890625,14372,-6180,315,-79,2,-67
200969073,-0.43597412109375,-0.4361572265625,0.5621337890625,-0.5511474609375,14328,-6334,92,-95,4,-34
200979057,-0.44122314453125,-0.429931640625,0.56915283203125,-0.544677734375,14004,-6693,-195,-105,6,1
200989034,-0.4443359375,-0.42095947265625,0.57818603515625,-0.53955078125,13424,-7162,-501,-109,7,29
200999022,-0.44586181640625,-0.4102783203125,0.58837890625,-0.5355224609375,12721,-7688,-760,-108,7,45
201009000,-0.44622802734375,-0.39886474609375,0.59881591796875,-0.53228759765625,11978,-8165,-976,-103,7,54
201018982,-0.4456787109375,-0.3870849609375,0.609130859375,-0.5296630859375,11277,-8532,-1116,-98,6,61
201028965,-0.4442138671875,-0.3751220703125,0.61920166015625,-0.52777099609375,10727,-8848,-1235,-91,5,68
201038947,-0.4417724609375,-0.36297607421875,0.629150390625,-0.52655029296875,10273,-9081,-1349,-85,4,76
201048929,-0.43817138671875,-0.3504638671875,0.63897705078125,-0.5262451171875,9939,-9268,-1430,-78,2,88
201058912,-0.43328857421875,-0.33740234375,0.64874267578125,-0.52685546875,9673,-9411,-1513,-70,0,100
201068897,-0.42694091796875,-0.3238525390625,0.65850830078125,-0.5284423828125,9563,-9532,-1607,-63,-2,114
201078879,-0.41943359375,-0.3099365234375,0.66796875,-0.5308837890625,9617,-9690,-1701,-55,-5,124
201088860,-0.41094970703125,-0.29595947265625,0.677001953125,-0.5340576171875,9746,-9855,-1773,-47,-6,131
201098844,-0.40167236328125,-0.28192138671875,0.68548583984375,-0.537841796875,9952,-10008,-1852,-40,-7,138
201108825,-0.39166259765625,-0.26763916015625,0.69342041015625,-0.5423583984375,10160,-10133,-1929,-32,-7,147
201118805,-0.38043212890625,-0.2525634765625,0.70098876953125,-0.5478515625,10312,-10199,-1982,-25,-7,163
201128798,-0.36767578125,-0.236083984375,0.708251953125,-0.55450439453125,10434,-10215,-2009,-18,-7,185
201138777,-0.3531494140625,-0.21795654296875,0.7152099609375,-0.5623779296875,10491,-10226,-2001,-11,-7,209
201148757,-0.3367919921875,-0.19818115234375,0.72174072265625,-0.5712890625,10387,-10278,-1973,-5,-8,231
201158741,-0.31890869140625,-0.17706298828125,0.7276611328125,-0.58087158203125,10125,-10328,-1925,1,-8,247
201168719,-0.2996826171875,-0.15496826171875,0.73291015625,-0.5908203125,9804,-10367,-1860,5,-10,259
201178701,-0.279296875,-0.13232421875,0.73724365234375,-0.600830078125,9394,-10434,-1782,10,-12,268
201188686,-0.2579345703125,-0.10943603515625,0.74072265625,-0.610595703125,8936,-10511,-1735,13,-16,273
201198670,-0.2357177734375,-0.08660888671875,0.74334716796875,-0.61993408203125,8432,-10560,-1697,16,-19,277
201208651,-0.212890625,-0.06378173828125,0.7451171875,-0.62884521484375,7930,-10595,-1641,18,-23,279
201218633,-0.18939208984375,-0.04119873046875,0.74603271484375,-0.6370849609375,7417,-10595,-1578,19,-27,281
201228617,-0.1654052734375,-0.0189208984375,0.74609375,-0.64471435546875,6932,-10577,-1524,20,-30,282
201238599,-0.14105224609375,0.00299072265625,0.745361328125,-0.65155029296875,6413,-10526,-1483,20,-33,281
201248582,-0.11651611328125,0.024658203125,0.743896484375,-0.6575927734375,5891,-10442,-1432,19,-35,281
201258565,-0.0916748046875,0.0460205078125,0.74169921875,-0.662841796875,5350,-10318,-1393,18,-37,281
201268546,-0.0665283203125,0.06732177734375,0.73883056640625,-0.667236328125,4778,-10155,-1356,17,-39,282
201278526,-0.04107666015625,0.08843994140625,0.7352294921875,-0.6707763671875,4145,-9928,-1280,16,-41,282
201288510,-0.01544189453125,0.109130859375,0.73095703125,-0.67340087890625,3455,-9613,-1205,13,-43,279
201298492,0.01019287109375,0.1292724609375,0.7261962890625,-0.6751708984375,2739,-9238,-1123,11,-46,275
201308472,0.03570556640625,0.14849853515625,0.720947265625,-0.6759033203125,2082,-8843,-1026,7,-49,267
201318464,0.06060791015625,0.16632080078125,0.7154541015625,-0.67584228515625,1565,-8477,-980,4,-52,256
201328445,0.08477783203125,0.18280029296875,0.70989990234375,-0.67486572265625,1133,-8113,-987,0,-54,246
201338428,0.1085205078125,0.19818115234375,0.7042236328125,-0.67303466796875,732,-7712,-995,-4,-57,238
201348403,0.1318359375,0.2127685546875,0.69842529296875,-0.67047119140625,369,-7297,-1002,-7,-58,232
201358385,0.15484619140625,0.2266845703125,0.6925048828125,-0.66717529296875,58,-6912,-1012,-11,-58,227
201368367,0.17724609375,0.23968505859375,0.6865234375,-0.6632080078125,-196,-6582,-1026,-14,-59,219
201378349,0.19873046875,0.251708984375,0.68060302734375,-0.65869140625,-321,-6296,-1065,-16,-59,210
201388332,0.21942138671875,0.26275634765625,0.6748046875,-0.65380859375,-406,-6074,-1130,-19,-58,203
201398315,0.239501953125,0.2734375,0.6689453125,-0.64837646484375,-495,-5844,-1191,-21,-57,200
201408298,0.25958251953125,0.2841796875,0.66278076171875,-0.64227294921875,-638,-5589,-1238,-22,-55,202
201418277,0.27984619140625,0.2952880859375,0.65618896484375,-0.635498046875,-841,-5283,-1245,-23,-54,208
201428269,0.30035400390625,0.30682373046875,0.64898681640625,-0.6280517578125,-1066,-4977,-1233,-24,-52,213
201438251,0.3209228515625,0.31854248046875,0.64129638671875,-0.619873046875,-1333,-4646,-1203,-24,-51,215
201448230,0.34124755859375,0.3302001953125,0.63311767578125,-0.61126708984375,-1577,-4298,-1146,-25,-50,214
201458222,0.36102294921875,0.3414306640625,0.62469482421875,-0.60235595703125,-1798,-3948,-1103,-25,-49,209
201468208,0.3798828125,0.35198974609375,0.6162109375,-0.59332275390625,-2009,-3582,-1051,-25,-48,200
201478189,0.397705078125,0.3616943359375,0.6077880859375,-0.58441162109375,-2181,-3234,-984,-24,-47,188
201488161,0.41436767578125,0.37042236328125,0.599609375,-0.5758056640625,-2305,-2904,-913,-23,-45,176
201498142,0.4298095703125,0.37811279296875,0.59161376953125,-0.567626953125,-2407,-2583,-831,-22,-44,162
201508126,0.44403076171875,0.385009765625,0.583984375,-0.55987548828125,-2506,-2251,-757,-21,-43,149
201518108,0.45721435546875,0.39117431640625,0.57659912109375,-0.5526123046875,-2627,-1925,-663,-19,-41,137
201528091,0.4693603515625,0.39666748046875,0.5694580078125,-0.54595947265625,-2766,-1615,-549,-17,-39,126
201538074,0.48046875,0.4014892578125,0.5625,-0.53985595703125,-2881,-1300,-414,-14,-38,114
201548055,0.490478515625,0.40576171875,0.555908203125,-0.53448486328125,-2990,-975,-283,-11,-37,102
201558038,0.49945068359375,0.409423828125,0.549560546875,-0.52996826171875,-3078,-651,-122,-8,-35,89
201568026,0.50732421875,0.4124755859375,0.54364013671875,-0.52618408203125,-3162,-316,55,-5,-33,76
201578000,0.51409912109375,0.4149169921875,0.5380859375,-0.52337646484375,-3228,34,236,-2,-32,62
201587987,0.519775390625,0.41680908203125,0.53302001953125,-0.521484375,-3266,375,424,1,-30,48
201597967,0.52435302734375,0.418212890625,0.52838134765625,-0.52044677734375,-3305,715,596,5,-28,35
201607948,0.5279541015625,0.419189453125,0.524169921875,-0.52032470703125,-3355,1072,796,9,-26,23
201617931,0.5306396484375,0.4197998046875,0.520263671875,-0.52099609375,-3434,1426,1021,12,-24,12
201627912,0.532470703125,0.42022705078125,0.51666259765625,-0.5223388671875,-3506,1775,1250,15,-21,1
201637892,0.53350830078125,0.42034912109375,0.51336669921875,-0.52447509765625,-3577,2113,1467,19,-19,-8
201647874,0.53350830078125,0.42034912109375,0.510498046875,-0.52728271484375,-3648,2423,1672,22,-16,-19
201657856,0.53253173828125,0.419921875,0.5081787109375,-0.53082275390625,-3718,2681,1829,24,-13,-32
201667839,0.530517578125,0.4190673828125,0.50640869140625,-0.53515625,-3824,2908,1978,26,-11,-44
201677821,0.5277099609375,0.41778564453125,0.50518798828125,-0.54010009765625,-3965,3066,2088,27,-10,-52
201687801,0.52435302734375,0.416259765625,0.5042724609375,-0.54541015625,-4103,3190,2173,28,-9,-59
201697791,0.52056884765625,0.41436767578125,0.503662109375,-0.551025390625,-4191,3255,2194,28,-8,-64
201707775,0.51611328125,0.41217041015625,0.50347900390625,-0.55694580078125,-4233,3249,2153,27,-7,-72
201717752,0.51068115234375,0.40936279296875,0.504150390625,-0.56341552734375,-4177,3175,2061,27,-5,-84
201727734,0.50408935546875,0.4056396484375,0.5057373046875,-0.570556640625,-4104,3067,1939,25,-3,-99
201737721,0.49603271484375,0.40106201171875,0.508544921875,-0.57830810546875,-4028,2887,1776,24,1,-115
201747699,0.486328125,0.3955078125,0.5125732421875,-0.58673095703125,-3962,2620,1618,22,5,-133
201757683,0.47515869140625,0.3887939453125,0.517822265625,-0.59576416015625,-3894,2316,1467,19,9,-149
201767670,0.46240234375,0.381103515625,0.52410888671875,-0.60516357421875,-3817,1965,1321,17,13,-165
201777647,0.44830322265625,0.3724365234375,0.53131103515625,-0.61480712890625,-3731,1619,1166,14,16,-177
201787630,0.4329833984375,0.36297607421875,0.539306640625,-0.6243896484375,-3640,1259,1036,11,20,-188
201797613,0.41656494140625,0.3525390625,0.5479736328125,-0.6339111328125,-3505,894,920,7,23,-198
201807594,0.39910888671875,0.34124755859375,0.55731201171875,-0.64312744140625,-3363,517,813,3,25,-207
201817578,0.38055419921875,0.3289794921875,0.56719970703125,-0.652099609375,-3196,97,706,-2,27,-216
201827558,0.36102294921875,0.315673828125,0.57757568359375,-0.66058349609375,-3009,-347,574,-7,29,-224
201837540,0.34088134765625,0.30157470703125,0.5882568359375,-0.66839599609375,-2862,-766,491,-11,29,-228
201847521,0.32073974609375,0.28704833984375,0.59881591796875,-0.67535400390625,-2810,-1169,458,-16,29,-225
201857505,0.301025390625,0.2723388671875,0.6090087890625,-0.681396484375,-2775,-1573,414,-20,27,-219
201867486,0.2821044921875,0.2576904296875,0.61871337890625,-0.68646240234375,-2717,-1963,429,-24,24,-211
201877467,0.2640380859375,0.24310302734375,0.62786865234375,-0.69061279296875,-2632,-2383,398,-27,21,-201
201887458,0.24652099609375,0.2283935546875,0.63677978515625,-0.69390869140625,-2447,-2824,318,-31,18,-196
201897440,0.22918701171875,0.21331787109375,0.6455078125,-0.69659423828125,-2216,-3271,276,-34,16,-194
201907416,0.2119140625,0.19775390625,0.654052734375,-0.69873046875,-1974,-3724,183,-37,13,-196
201917400,0.19439697265625,0.18145751953125,0.66241455078125,-0.7003173828125,-1679,-4228,98,-39,11,-198
201927384,0.17669677734375,0.16448974609375,0.67047119140625,-0.7015380859375,-1401,-4719,80,-40,9,-199
201937364,0.15899658203125,0.147216796875,0.67803955078125,-0.70233154296875,-1094,-5199,43,-40,7,-200
201947347,0.14117431640625,0.12957763671875,0.68524169921875,-0.70263671875,-686,-5630,-27,-40,5,-200
201957329,0.1229248046875,0.1114501953125,0.69207763671875,-0.7025146484375,-204,-6021,-101,-41,5,-203
201967312,0.10394287109375,0.09271240234375,0.69866943359375,-0.70172119140625,354,-6429,-227,-43,6,-209
201977298,0.0841064453125,0.0731201171875,0.705078125,-0.7003173828125,896,-6843,-350,-45,7,-216
201987277,0.06365966796875,0.05316162109375,0.71112060546875,-0.69818115234375,1253,-7148,-406,-47,8,-221
201997268,0.04376220703125,0.03363037109375,0.7164306640625,-0.6954345703125,1460,-7355,-351,-48,7,-214
202007248,0.02532958984375,0.01531982421875,0.72100830078125,-0.69232177734375,1652,-7534,-307,-46,5,-198
202017228,0.0086669921875,-0.00128173828125,0.724853515625,-0.6888427734375,1976,-7812,-361,-44,4,-178
202027222,-0.00689697265625,-0.0167236328125,0.728271484375,-0.68505859375,2494,-8175,-494,-42,4,-164
202037208,-0.02215576171875,-0.03173828125,0.73126220703125,-0.68096923828125,3045,-8540,-637,-42,5,-161
202047180,-0.0377197265625,-0.046875,0.73394775390625,-0.676513671875,3505,-8812,-762,-42,6,-165
202057157,-0.05364990234375,-0.062255859375,0.7362060546875,-0.67169189453125,3762,-8959,-811,-43,6,-170
202067139,-0.06927490234375,-0.07769775390625,0.738037109375,-0.66668701171875,3953,-9040,-805,-42,4,-170
202077121,-0.0843505859375,-0.09271240234375,0.7393798828125,-0.6614990234375,4193,-9112,-811,-41,2,-165
202087103,-0.0985107421875,-0.1070556640625,0.74029541015625,-0.65631103515625,4571,-9268,-894,-37,2,-155
202097086,-0.1123046875,-0.1209716796875,0.74078369140625,-0.651123046875,5134,-9561,-1065,-35,2,-151
202107068,-0.1265869140625,-0.13507080078125,0.74066162109375,-0.6458740234375,5869,-9982,-1321,-31,5,-158
202117050,-0.1424560546875,-0.15032958984375,0.73974609375,-0.64019775390625,6721,-10428,-1652,-29,9,-176
202127034,-0.16046142578125,-0.16741943359375,0.73785400390625,-0.63385009765625,7500,-10791,-1929,-28,14,-201
202137021,-0.18048095703125,-0.18609619140625,0.7347412109375,-0.62689208984375,8014,-11013,-2086,-27,18,-225
202146999,-0.201416015625,-0.20550537109375,0.73046875,-0.619384765625,8370,-11100,-2132,-26,20,-237
202156981,-0.2220458984375,-0.224609375,0.72540283203125,-0.61163330078125,8698,-11103,-2110,-24,21,-234
202166963,-0.24139404296875,-0.2421875,0.7198486328125,-0.60406494140625,9163,-11122,-2140,-21,22,-217
202176945,-0.2589111328125,-0.25762939453125,0.7142333984375,-0.5970458984375,9698,-11183,-2240,-17,24,-195
202186932,-0.27459716796875,-0.27069091796875,0.70867919921875,-0.5908203125,10170,-11207,-2297,-14,27,-172
202196913,-0.28857421875,-0.28143310546875,0.7032470703125,-0.585693359375,10511,-11149,-2304,-11,30,-149
202206897,-0.301025390625,-0.28997802734375,0.697998046875,-0.58148193359375,10655,-10995,-2274,-7,34,-130
202216879,-0.31219482421875,-0.296875,0.69287109375,-0.5782470703125,10574,-10779,-2181,-4,36,-114
202226858,-0.32232666015625,-0.30255126953125,0.68780517578125,-0.5758056640625,10338,-10521,-2012,-1,38,-104
202236844,-0.331787109375,-0.3072509765625,0.68267822265625,-0.57403564453125,10011,-10197,-1850,2,40,-95
202246824,-0.34033203125,-0.31109619140625,0.67767333984375,-0.5728759765625,9638,-9891,-1687,5,40,-84
202256805,-0.3480224609375,-0.31414794921875,0.6728515625,-0.572265625,9276,-9586,-1511,7,40,-76
202266797,-0.35516357421875,-0.31671142578125,0.6680908203125,-0.572021484375,8906,-9294,-1356,9,39,-71
202276777,-0.36181640625,-0.3192138671875,0.66339111328125,-0.57196044921875,8517,-8982,-1192,11,38,-69
202286753,-0.36834716796875,-0.32177734375,0.6585693359375,-0.57196044921875,8129,-8645,-1015,12,36,-70
202296735,-0.3748779296875,-0.32470703125,0.65362548828125,-0.57171630859375,7798,-8303,-849,12,34,-73
202306719,-0.38134765625,-0.328125,0.6485595703125,-0.5712890625,7525,-7958,-679,13,31,-76
202316702,-0.38763427734375,-0.33172607421875,0.6434326171875,-0.57073974609375,7316,-7583,-534,14,29,-74
202326684,-0.39324951171875,-0.335205078125,0.6385498046875,-0.57037353515625,7199,-7199,-427,15,26,-66
202336670,-0.39788818359375,-0.33807373046875,0.6341552734375,-0.57037353515625,7133,-6841,-338,16,24,-55
202346649,-0.40155029296875,-0.34014892578125,0.6302490234375,-0.57086181640625,7149,-6532,-287,17,22,-42
202356631,-0.404296875,-0.34161376953125,0.6268310546875,-0.57183837890625,7195,-6248,-281,18,20,-31
202366613,-0.40625,-0.342529296875,0.6239013671875,-0.5731201171875,7241,-5978,-290,18,19,-23
202376595,-0.40765380859375,-0.34320068359375,0.62127685546875,-0.57452392578125,7280,-5708,-318,18,17,-17
202386578,-0.408935546875,-0.3438720703125,0.61883544921875,-0.57586669921875,7311,-5444,-333,17,16,-17
202396561,-0.41021728515625,-0.34466552734375,0.61639404296875,-0.57708740234375,7340,-5201,-328,17,14,-18
202406544,-0.4114990234375,-0.3458251953125,0.614013671875,-0.5780029296875,7380,-4975,-314,16,12,-20
202416526,-0.41278076171875,-0.34716796875,0.61163330078125,-0.57879638671875,7431,-4732,-329,16,11,-19
202426508,-0.413818359375,-0.3485107421875,0.6094970703125,-0.57952880859375,7475,-4482,-335,16,9,-16
202436490,-0.41448974609375,-0.3494873046875,0.60760498046875,-0.58038330078125,7514,-4249,-343,15,9,-11
202446470,-0.414794921875,-0.35015869140625,0.6060791015625,-0.5814208984375,7518,-4030,-362,14,8,-5
202456459,-0.414794921875,-0.3504638671875,0.60479736328125,-0.58258056640625,7491,-3838,-392,13,8,-1
202466444,-0.41461181640625,-0.35052490234375,0.60369873046875,-0.58380126953125,7430,-3668,-406,12,8,2
202476425,-0.414306640625,-0.3504638671875,0.602783203125,-0.5849609375,7331,-3524,-415,11,7,3
202486403,-0.41400146484375,-0.35040283203125,0.6019287109375,-0.58612060546875,7261,-3423,-407,11,7,3
202496385,-0.4139404296875,-0.3504638671875,0.60107421875,-0.5870361328125,7228,-3323,-394,9,6,0
202506368,-0.4140625,-0.350830078125,0.60009765625,-0.58770751953125,7209,-3232,-384,9,6,-3
202516347,-0.4144287109375,-0.35137939453125,0.59906005859375,-0.58819580078125,7219,-3145,-380,9,6,-6
202526328,-0.41510009765625,-0.35198974609375,0.597900390625,-0.58856201171875,7227,-3044,-384,8,7,-8
202536313,-0.4158935546875,-0.35272216796875,0.5966796875,-0.5887451171875,7222,-2962,-388,7,7,-9
202546296,-0.4168701171875,-0.353515625,0.59539794921875,-0.5888671875,7215,-2881,-372,7,8,-11
202556276,-0.4180908203125,-0.3543701171875,0.593994140625,-0.5888671875,7205,-2793,-383,7,8,-13
202566267,-0.41943359375,-0.35546875,0.59259033203125,-0.5887451171875,7163,-2722,-393,7,8,-16
202576249,-0.4210205078125,-0.3568115234375,0.5909423828125,-0.5885009765625,7119,-2676,-377,7,8,-19
202586230,-0.4228515625,-0.35845947265625,0.58905029296875,-0.5880126953125,7124,-2649,-340,8,8,-24
202596223,-0.42498779296875,-0.36053466796875,0.58697509765625,-0.5872802734375,7134,-2630,-311,8,7,-29
202606208,-0.4273681640625,-0.363037109375,0.58465576171875,-0.58636474609375,7198,-2606,-300,9,7,-34
202616179,-0.4300537109375,-0.36590576171875,0.58203125,-0.585205078125,7287,-2581,-292,10,7,-38
202626157,-0.43292236328125,-0.36907958984375,0.57916259765625,-0.58392333984375,7373,-2561,-311,11,7,-42
202636138,-0.43597412109375,-0.37249755859375,0.57611083984375,-0.58251953125,7448,-2531,-319,12,7,-45
202646120,-0.43914794921875,-0.3760986328125,0.5728759765625,-0.58099365234375,7500,-2492,-323,13,7,-47
202656105,-0.4422607421875,-0.3797607421875,0.5694580078125,-0.57958984375,7519,-2478,-308,14,8,-48
202666087,-0.4453125,-0.38360595703125,0.56591796875,-0.57818603515625,7526,-2466,-281,15,7,-49
202676070,-0.44842529296875,-0.3875732421875,0.56219482421875,-0.5767822265625,7508,-2463,-215,17,6,-51
202686052,-0.4515380859375,-0.391845703125,0.55816650390625,-0.57537841796875,7512,-2461,-134,19,5,-54
202696035,-0.45452880859375,-0.3963623046875,0.5540771484375,-0.57391357421875,7574,-2436,-95,20,4,-55
202706026,-0.45733642578125,-0.4010009765625,0.5498046875,-0.572509765625,7632,-2398,-57,22,4,-54
202716012,-0.4599609375,-0.40570068359375,0.5455322265625,-0.57122802734375,7684,-2369,-26,24,3,-53
202725986,-0.46234130859375,-0.41033935546875,0.54119873046875,-0.57012939453125,7727,-2333,16,25,3,-51
202735969,-0.4644775390625,-0.41485595703125,0.536865234375,-0.5692138671875,7738,-2292,65,27,2,-49
202745952,-0.46624755859375,-0.4193115234375,0.5325927734375,-0.5684814453125,7726,-2255,146,28,2,-46
202755933,-0.46783447265625,-0.42364501953125,0.5283203125,-0.5679931640625,7720,-2225,245,29,1,-45
202765916,-0.46917724609375,-0.42803955078125,0.5240478515625,-0.5675048828125,7760,-2158,350,30,0,-44
202775898,-0.47064208984375,-0.4324951171875,0.5196533203125,-0.56695556640625,7812,-2033,480,29,0,-45
202785881,-0.47235107421875,-0.43695068359375,0.51513671875,-0.56622314453125,7838,-1838,643,28,-1,-47
202795860,-0.47442626953125,-0.44140625,0.51068115234375,-0.56512451171875,7856,-1628,819,24,-1,-49
202805843,-0.47705078125,-0.44561767578125,0.50628662109375,-0.56353759765625,7854,-1375,1000,18,-1,-51
202815824,-0.48016357421875,-0.44964599609375,0.502197265625,-0.56134033203125,7853,-1137,1174,12,-2,-54
202825804,-0.4837646484375,-0.45330810546875,0.49847412109375,-0.55859375,7853,-930,1306,4,-2,-55
202835794,-0.4876708984375,-0.45654296875,0.49542236328125,-0.5552978515625,7887,-776,1367,-4,-3,-53
202845774,-0.4915771484375,-0.4591064453125,0.4931640625,-0.5517578125,7952,-691,1401,-11,-4,-48
202855749,-0.49517822265625,-0.4609375,0.49176025390625,-0.5482177734375,8067,-673,1372,-16,-4,-41
202865731,-0.49822998046875,-0.46197509765625,0.4913330078125,-0.54498291015625,8212,-706,1293,-20,-5,-30
202875714,-0.50054931640625,-0.46209716796875,0.4918212890625,-0.54229736328125,8353,-796,1198,-22,-5,-19
202885697,-0.5020751953125,-0.4615478515625,0.49310302734375,-0.54022216796875,8477,-898,1054,-23,-5,-8
202895680,-0.5029296875,-0.4603271484375,0.49493408203125,-0.53875732421875,8577,-1021,932,-22,-4,1
202905656,-0.5032958984375,-0.45867919921875,0.49713134765625,-0.53778076171875,8631,-1130,799,-21,-3,7
202915640,-0.50323486328125,-0.4569091796875,0.4993896484375,-0.5372314453125,8664,-1235,700,-19,-2,11
202925621,-0.50311279296875,-0.455078125,0.50146484375,-0.5369873046875,8682,-1329,610,-16,-2,11
202935605,-0.5028076171875,-0.45355224609375,0.5032958984375,-0.536865234375,8658,-1411,509,-13,-1,10
202945592,-0.50250244140625,-0.45220947265625,0.50469970703125,-0.53692626953125,8587,-1488,440,-9,0,8
202955577,-0.50213623046875,-0.45123291015625,0.5057373046875,-0.537109375,8482,-1548,380,-6,1,5
202965558,-0.5018310546875,-0.45062255859375,0.50628662109375,-0.53741455078125,8385,-1590,341,-2,1,2
202975546,-0.5015869140625,-0.45050048828125,0.50634765625,-0.5377197265625,8260,-1602,317,2,2,-2
202985521,-0.50152587890625,-0.4508056640625,0.505859375,-0.5379638671875,8135,-1592,305,6,2,-7
202995503,-0.5015869140625,-0.45166015625,0.50482177734375,-0.53814697265625,8028,-1562,308,9,2,-12
203005484,-0.5018310546875,-0.45306396484375,0.5032958984375,-0.5382080078125,7960,-1500,322,12,2,-17
203015472,-0.50225830078125,-0.454833984375,0.50128173828125,-0.53814697265625,7906,-1439,354,15,2,-21
203025456,-0.5028076171875,-0.45703125,0.4989013671875,-0.53802490234375,7867,-1365,376,17,2,-25
203035442,-0.50341796875,-0.45953369140625,0.4962158203125,-0.537841796875,7842,-1271,406,19,2,-26
203045426,-0.50396728515625,-0.462158203125,0.4932861328125,-0.5377197265625,7822,-1165,429,21,2,-27
203055403,-0.50457763671875,-0.46490478515625,0.49029541015625,-0.53759765625,7795,-1062,470,22,2,-28
203065384,-0.50506591796875,-0.46771240234375,0.4871826171875,-0.5374755859375,7746,-958,491,23,1,-27
203075367,-0.5054931640625,-0.4705810546875,0.484130859375,-0.53729248046875,7698,-868,517,23,1,-27
203085347,-0.505859375,-0.47344970703125,0.48114013671875,-0.53717041015625,7658,-760,544,23,0,-27
203095331,-0.506103515625,-0.4764404296875,0.47821044921875,-0.53692626953125,7619,-660,557,23,-1,-26
203105314,-0.5062255859375,-0.4793701171875,0.4754638671875,-0.53656005859375,7589,-562,564,22,-3,-25
203115296,-0.50616455078125,-0.4822998046875,0.47296142578125,-0.53619384765625,7581,-470,571,21,-5,-23
203125277,-0.50592041015625,-0.48516845703125,0.47076416015625,-0.53582763671875,7637,-362,593,21,-6,-20
203135269,-0.50537109375,-0.48785400390625,0.46893310546875,-0.5355224609375,7725,-257,607,19,-8,-16
203145250,-0.50457763671875,-0.4903564453125,0.4674072265625,-0.5352783203125,7839,-158,598,19,-9,-12
203155230,-0.5035400390625,-0.49267578125,0.46624755859375,-0.53515625,7978,-54,578,18,-10,-8
203165221,-0.50225830078125,-0.4947509765625,0.4654541015625,-0.53515625,8083,18,553,17,-10,-4
203175208,-0.500732421875,-0.49652099609375,0.4649658203125,-0.535400390625,8180,56,519,16,-10,0
203185177,-0.4990234375,-0.49798583984375,0.46478271484375,-0.53582763671875,8241,83,512,15,-10,4
203195153,-0.49713134765625,-0.49908447265625,0.46484375,-0.53643798828125,8264,89,498,14,-10,7
203205135,-0.4951171875,-0.50006103515625,0.465087890625,-0.53717041015625,8273,87,488,13,-10,10
203215119,-0.4930419921875,-0.5008544921875,0.4654541015625,-0.53802490234375,8274,65,482,13,-9,11
203225100,-0.49102783203125,-0.5015869140625,0.46575927734375,-0.53887939453125,8274,55,497,12,-9,11
