subject,Peter Cope
arm,right
label,2
hz,100.17626824205345
time,3.334123

timestamp_us,q0,q1,q2,q3,ax,ay,az,gx,gy,gz
116897143,-0.54278564453125,-0.42364501953125,0.439453125,-0.57696533203125,7842,-368,2045,1,-1,-2
116907128,-0.54278564453125,-0.42388916015625,0.43927001953125,-0.576904296875,7859,-371,2036,1,0,-3
116917108,-0.54296875,-0.42425537109375,0.43896484375,-0.57672119140625,7872,-352,2037,1,-1,-4
116927087,-0.5430908203125,-0.42449951171875,0.43865966796875,-0.57659912109375,7888,-351,2064,1,-1,-3
116937073,-0.54315185546875,-0.4246826171875,0.4384765625,-0.57659912109375,7901,-357,2070,1,0,-2
116947054,-0.5430908203125,-0.42486572265625,0.43829345703125,-0.57659912109375,7915,-356,2075,1,-1,-1
116957039,-0.54302978515625,-0.4249267578125,0.43817138671875,-0.57672119140625,7919,-351,2077,1,0,0
116967024,-0.54296875,-0.42486572265625,0.4381103515625,-0.576904296875,7915,-337,2077,1,0,1
116977008,-0.5428466796875,-0.42486572265625,0.4381103515625,-0.5770263671875,7885,-343,2072,0,0,1
116986982,-0.542724609375,-0.4248046875,0.43804931640625,-0.57720947265625,7859,-365,2075,0,0,0
116996968,-0.542724609375,-0.4248046875,0.43798828125,-0.5772705078125,7834,-377,2089,1,0,-1
117006947,-0.542724609375,-0.42486572265625,0.4378662109375,-0.57733154296875,7836,-402,2087,1,0,-1
117016928,-0.54266357421875,-0.42486572265625,0.43780517578125,-0.577392578125,7839,-428,2102,0,0,-1
117026918,-0.54266357421875,-0.42486572265625,0.43768310546875,-0.5775146484375,7832,-442,2120,1,0,0
117036896,-0.54254150390625,-0.42474365234375,0.43768310546875,-0.57769775390625,7832,-467,2128,0,0,1
117046878,-0.5423583984375,-0.4246826171875,0.43768310546875,-0.57794189453125,7840,-503,2122,1,0,1
117056859,-0.5421142578125,-0.42462158203125,0.43768310546875,-0.57818603515625,7837,-554,2121,1,0,1
117066844,-0.5418701171875,-0.424560546875,0.43768310546875,-0.5784912109375,7832,-613,2108,1,-1,1
117076830,-0.54156494140625,-0.424560546875,0.43768310546875,-0.5787353515625,7846,-669,2097,2,-1,0
117086804,-0.54132080078125,-0.4246826171875,0.4376220703125,-0.5789794921875,7862,-704,2070,2,-1,0
117096799,-0.541015625,-0.42474365234375,0.43756103515625,-0.5792236328125,7886,-728,2045,3,-1,0
117106780,-0.54052734375,-0.4248046875,0.43756103515625,-0.57965087890625,7893,-746,2010,3,0,2
117116752,-0.5399169921875,-0.42474365234375,0.43756103515625,-0.5802001953125,7873,-750,1970,4,0,4
117126735,-0.53924560546875,-0.42462158203125,0.4376220703125,-0.5809326171875,7839,-751,1956,4,1,6
117136716,-0.53851318359375,-0.42449951171875,0.43768310546875,-0.5816650390625,7816,-744,1934,5,1,6
117146698,-0.537841796875,-0.42437744140625,0.43768310546875,-0.5823974609375,7802,-776,1936,4,1,5
117156683,-0.5372314453125,-0.42431640625,0.4376220703125,-0.5830078125,7788,-839,1932,4,0,2
117166670,-0.53680419921875,-0.4244384765625,0.4375,-0.58343505859375,7760,-925,1949,4,0,0
117176651,-0.53643798828125,-0.4246826171875,0.437255859375,-0.583740234375,7742,-1021,1947,4,-1,-2
117186624,-0.53607177734375,-0.4249267578125,0.43707275390625,-0.58404541015625,7735,-1101,1945,5,-1,-2
117196613,-0.53558349609375,-0.42510986328125,0.43695068359375,-0.58447265625,7723,-1171,1959,6,-1,0
117206590,-0.53472900390625,-0.42523193359375,0.43695068359375,-0.58514404296875,7707,-1220,1979,6,-2,4
117216577,-0.533447265625,-0.4251708984375,0.43719482421875,-0.58612060546875,7686,-1281,1995,7,-3,9
117226555,-0.53173828125,-0.42486572265625,0.437744140625,-0.58758544921875,7696,-1389,2053,8,-3,14
117236539,-0.529541015625,-0.42437744140625,0.43841552734375,-0.58935546875,7799,-1510,2113,10,-4,18
117246521,-0.52716064453125,-0.4239501953125,0.439208984375,-0.5911865234375,7969,-1664,2213,10,-5,18
117256503,-0.5247802734375,-0.423583984375,0.43994140625,-0.59307861328125,8146,-1869,2306,11,-6,17
117266485,-0.5223388671875,-0.42333984375,0.440673828125,-0.59478759765625,8287,-2097,2411,11,-7,15
117276466,-0.519775390625,-0.4229736328125,0.441650390625,-0.5966796875,8413,-2341,2521,11,-7,17
117286457,-0.5167236328125,-0.42218017578125,0.44293212890625,-0.598876953125,8511,-2606,2650,10,-8,24
117296440,-0.512939453125,-0.42083740234375,0.44488525390625,-0.60162353515625,8631,-2887,2734,9,-9,35
117306424,-0.50811767578125,-0.4185791015625,0.4476318359375,-0.605224609375,8801,-3174,2831,9,-9,49
117316400,-0.5020751953125,-0.4154052734375,0.4512939453125,-0.60968017578125,9006,-3452,2934,8,-9,65
117326384,-0.4949951171875,-0.4112548828125,0.45562744140625,-0.61505126953125,9259,-3701,3042,7,-9,80
117336367,-0.48681640625,-0.40618896484375,0.46075439453125,-0.62109375,9549,-3940,3113,5,-8,94
117346349,-0.4779052734375,-0.4002685546875,0.46636962890625,-0.62762451171875,9910,-4192,3178,3,-6,105
117356331,-0.46856689453125,-0.3935546875,0.472412109375,-0.6343994140625,10321,-4486,3196,0,-4,112
117366313,-0.458984375,-0.3861083984375,0.47869873046875,-0.6412353515625,10729,-4774,3186,-3,-1,116
117376298,-0.44940185546875,-0.3780517578125,0.48504638671875,-0.64801025390625,11142,-5057,3149,-6,3,121
117386278,-0.43963623046875,-0.36907958984375,0.4915771484375,-0.6549072265625,11542,-5352,3107,-9,8,127
117396268,-0.4295654296875,-0.359130859375,0.49822998046875,-0.66204833984375,11895,-5641,3099,-11,13,136
117406249,-0.41900634765625,-0.347900390625,0.5050048828125,-0.669677734375,12237,-5909,3095,-13,19,149
117416228,-0.40765380859375,-0.3353271484375,0.511962890625,-0.677734375,12556,-6156,3071,-15,24,163
117426220,-0.39544677734375,-0.32135009765625,0.51910400390625,-0.686279296875,12837,-6402,3043,-16,31,177
117436208,-0.38238525390625,-0.305908203125,0.5262451171875,-0.69525146484375,13008,-6622,3022,-16,37,192
117446179,-0.3685302734375,-0.28900146484375,0.533203125,-0.70458984375,13093,-6799,3012,-17,43,205
117456153,-0.35394287109375,-0.2708740234375,0.53985595703125,-0.714111328125,13126,-6944,3035,-16,49,217
117466139,-0.33880615234375,-0.251708984375,0.54608154296875,-0.7236328125,13069,-7104,3070,-16,54,225
117476119,-0.3233642578125,-0.231689453125,0.5517578125,-0.7330322265625,12925,-7227,3139,-15,59,230
117486105,-0.30767822265625,-0.2109375,0.55682373046875,-0.7421875,12667,-7329,3197,-15,63,235
117496087,-0.29168701171875,-0.189453125,0.56121826171875,-0.7510986328125,12309,-7396,3273,-14,67,240
117506071,-0.27508544921875,-0.16717529296875,0.56500244140625,-0.75970458984375,11891,-7497,3373,-13,70,246
117516053,-0.2579345703125,-0.144287109375,0.56817626953125,-0.76800537109375,11409,-7564,3495,-12,72,252
117526034,-0.240234375,-0.1209716796875,0.5706787109375,-0.77587890625,10859,-7609,3618,-10,72,256
117536022,-0.2220458984375,-0.09735107421875,0.57257080078125,-0.783203125,10279,-7590,3726,-10,72,260
117545999,-0.20330810546875,-0.0736083984375,0.5738525390625,-0.7899169921875,9683,-7542,3807,-10,72,262
117555982,-0.184326171875,-0.04986572265625,0.5745849609375,-0.79583740234375,9061,-7460,3863,-10,71,262
117565964,-0.16510009765625,-0.02618408203125,0.574951171875,-0.80096435546875,8421,-7357,3883,-11,70,262
117575947,-0.1455078125,-0.00262451171875,0.57476806640625,-0.8052978515625,7761,-7191,3880,-12,68,263
117585929,-0.12530517578125,0.02099609375,0.57421875,-0.808837890625,7078,-6962,3821,-13,66,266
117595912,-0.10455322265625,0.0445556640625,0.57318115234375,-0.8115234375,6431,-6742,3764,-15,64,268
117605893,-0.08343505859375,0.0679931640625,0.57183837890625,-0.81329345703125,5810,-6541,3699,-16,62,268
117615875,-0.062255859375,0.09112548828125,0.57000732421875,-0.814208984375,5159,-6313,3618,-17,60,265
117625857,-0.041259765625,0.11383056640625,0.56787109375,-0.81414794921875,4490,-6027,3505,-19,59,260
117635840,-0.0205078125,0.135986328125,0.5654296875,-0.813232421875,3862,-5722,3368,-21,57,254
117645822,-0.00018310546875,0.15753173828125,0.5628662109375,-0.8114013671875,3250,-5438,3195,-23,56,246
117655801,0.01959228515625,0.1783447265625,0.5601806640625,-0.8087158203125,2684,-5184,3001,-25,54,239
117665794,0.03875732421875,0.1983642578125,0.55743408203125,-0.80523681640625,2148,-4980,2764,-26,53,230
117675775,0.05712890625,0.21759033203125,0.55462646484375,-0.80108642578125,1682,-4834,2501,-27,51,221
117685752,0.0745849609375,0.23583984375,0.5518798828125,-0.79638671875,1290,-4735,2223,-27,50,210
117695735,0.0909423828125,0.2530517578125,0.5491943359375,-0.791259765625,942,-4625,1954,-27,49,199
117705715,0.1064453125,0.2694091796875,0.5465087890625,-0.7857666015625,618,-4498,1724,-27,47,189
117715702,0.1212158203125,0.28497314453125,0.54376220703125,-0.780029296875,324,-4414,1534,-27,45,182
117725684,0.13531494140625,0.29974365234375,0.54095458984375,-0.7740478515625,40,-4295,1387,-27,43,174
117735670,0.14886474609375,0.31365966796875,0.53826904296875,-0.7679443359375,-241,-4129,1243,-28,41,166
117745650,0.16192626953125,0.32696533203125,0.5355224609375,-0.76165771484375,-493,-3952,1108,-28,39,159
117755631,0.1744384765625,0.339599609375,0.5328369140625,-0.75518798828125,-727,-3793,997,-28,37,153
117765614,0.18646240234375,0.3515625,0.53021240234375,-0.7486572265625,-916,-3653,885,-29,36,147
117775597,0.1981201171875,0.3629150390625,0.52777099609375,-0.74200439453125,-1079,-3519,758,-29,34,142
117785579,0.2093505859375,0.37371826171875,0.52532958984375,-0.73516845703125,-1203,-3390,621,-30,32,137
117795560,0.22039794921875,0.38421630859375,0.52288818359375,-0.728271484375,-1328,-3258,488,-30,32,136
117805542,0.2313232421875,0.39447021484375,0.5203857421875,-0.72113037109375,-1473,-3160,353,-30,31,135
117815525,0.24188232421875,0.40447998046875,0.517822265625,-0.71392822265625,-1631,-3061,240,-29,31,130
117825507,0.25177001953125,0.4140625,0.515380859375,-0.706787109375,-1847,-2915,125,-28,31,122
117835491,0.2607421875,0.423095703125,0.51318359375,-0.69976806640625,-2092,-2724,45,-27,31,112
117845470,0.26873779296875,0.431396484375,0.51129150390625,-0.6929931640625,-2358,-2482,-15,-26,31,100
117855461,0.27587890625,0.43914794921875,0.509521484375,-0.68658447265625,-2646,-2184,-66,-24,30,90
117865444,0.282470703125,0.44659423828125,0.5078125,-0.68035888671875,-2950,-1839,-133,-22,30,85
117875428,0.2889404296875,0.4541015625,0.505615234375,-0.67425537109375,-3252,-1448,-185,-19,29,85
117885406,0.2957763671875,0.4620361328125,0.50274658203125,-0.66802978515625,-3574,-1001,-244,-15,29,91
117895388,0.30303955078125,0.47064208984375,0.49884033203125,-0.66162109375,-3969,-489,-287,-11,29,98
117905370,0.3109130859375,0.47998046875,0.4937744140625,-0.655029296875,-4443,98,-327,-6,28,105
117915353,0.31903076171875,0.48968505859375,0.48773193359375,-0.6484375,-4998,717,-320,0,26,108
117925335,0.326904296875,0.49945068359375,0.48089599609375,-0.64215087890625,-5602,1339,-270,6,24,105
117935316,0.3341064453125,0.508544921875,0.47369384765625,-0.63665771484375,-6215,1939,-186,12,20,94
117945298,0.34002685546875,0.5167236328125,0.46649169921875,-0.6322021484375,-6807,2504,-93,18,16,77
117955278,0.344482421875,0.52362060546875,0.4595947265625,-0.62921142578125,-7351,3031,-9,25,10,58
117965270,0.34735107421875,0.52911376953125,0.4532470703125,-0.62762451171875,-7802,3511,54,31,4,36
117975250,0.34857177734375,0.5330810546875,0.44744873046875,-0.627685546875,-8130,3908,80,36,-3,14
117985225,0.34808349609375,0.5355224609375,0.44256591796875,-0.62939453125,-8316,4205,77,40,-10,-9
117995213,0.345703125,0.53631591796875,0.438720703125,-0.6326904296875,-8347,4413,51,44,-16,-34
118005195,0.3414306640625,0.5355224609375,0.43603515625,-0.6375732421875,-8244,4520,9,48,-21,-59
118015165,0.335205078125,0.53326416015625,0.43450927734375,-0.64373779296875,-8037,4547,-69,50,-25,-82
118025146,0.3272705078125,0.52960205078125,0.43414306640625,-0.65106201171875,-7741,4482,-158,52,-28,-101
118035129,0.3177490234375,0.52484130859375,0.434814453125,-0.6591796875,-7388,4335,-253,53,-30,-118
118045112,0.30706787109375,0.51898193359375,0.43621826171875,-0.6678466796875,-7026,4120,-348,53,-32,-131
118055096,0.29534912109375,0.5123291015625,0.438232421875,-0.67694091796875,-6666,3858,-420,54,-33,-141
118065078,0.28289794921875,0.5048828125,0.44061279296875,-0.68621826171875,-6280,3588,-485,54,-35,-149
118075064,0.2696533203125,0.4967041015625,0.44342041015625,-0.6956787109375,-5874,3264,-503,53,-36,-156
118085046,0.2554931640625,0.48760986328125,0.4466552734375,-0.70526123046875,-5430,2907,-474,53,-37,-165
118095030,0.240478515625,0.4776611328125,0.45037841796875,-0.7149658203125,-4971,2545,-449,52,-37,-173
118105017,0.2247314453125,0.46697998046875,0.45440673828125,-0.72454833984375,-4535,2180,-419,51,-38,-179
118114993,0.20855712890625,0.4556884765625,0.4586181640625,-0.73382568359375,-4135,1851,-369,50,-38,-182
118124975,0.19219970703125,0.4439697265625,0.46270751953125,-0.74285888671875,-3784,1537,-297,49,-39,-182
118134958,0.1759033203125,0.43194580078125,0.466552734375,-0.75152587890625,-3474,1224,-178,49,-39,-181
118144940,0.15948486328125,0.41937255859375,0.4703369140625,-0.7598876953125,-3190,872,-24,47,-41,-183
118154924,0.1422119140625,0.40570068359375,0.4744873046875,-0.76812744140625,-2945,478,169,46,-43,-193
118164904,0.1239013671875,0.39068603515625,0.47900390625,-0.7762451171875,-2777,89,387,44,-46,-206
118174889,0.104736328125,0.37432861328125,0.48388671875,-0.7840576171875,-2694,-292,584,42,-50,-216
118184873,0.08514404296875,0.3568115234375,0.48876953125,-0.79150390625,-2680,-628,776,41,-55,-221
118194857,0.06597900390625,0.3385009765625,0.4931640625,-0.79864501953125,-2543,-979,1020,40,-61,-218
118204838,0.0474853515625,0.3192138671875,0.4970703125,-0.80548095703125,-2286,-1369,1244,40,-69,-214
118214821,0.02947998046875,0.29901123046875,0.50048828125,-0.8118896484375,-1978,-1786,1448,40,-76,-211
118224807,0.0118408203125,0.27777099609375,0.5035400390625,-0.8179931640625,-1559,-2241,1649,40,-82,-211
118234791,-0.0057373046875,0.25543212890625,0.50634765625,-0.8236083984375,-1063,-2719,1810,40,-88,-212
118244774,-0.023193359375,0.2320556640625,0.5087890625,-0.8287353515625,-547,-3206,1974,40,-93,-212
118254750,-0.0400390625,0.20819091796875,0.51068115234375,-0.833251953125,27,-3676,2126,41,-97,-205
118264732,-0.0560302734375,0.18402099609375,0.511962890625,-0.83721923828125,617,-4099,2254,42,-101,-197
118274714,-0.07061767578125,0.15997314453125,0.512451171875,-0.8406982421875,1197,-4464,2348,44,-104,-184
118284698,-0.08355712890625,0.1365966796875,0.51214599609375,-0.8438720703125,1806,-4759,2444,46,-104,-167
118294680,-0.09503173828125,0.1138916015625,0.5111083984375,-0.84661865234375,2364,-4921,2564,47,-104,-153
118304662,-0.10528564453125,0.092041015625,0.50946044921875,-0.84906005859375,2809,-4933,2731,46,-103,-142
118314645,-0.114501953125,0.07086181640625,0.5074462890625,-0.85107421875,3215,-4952,2958,44,-101,-134
118324628,-0.12359619140625,0.0496826171875,0.50555419921875,-0.85247802734375,3523,-5095,3227,39,-102,-136
118334611,-0.13311767578125,0.02813720703125,0.5037841796875,-0.85308837890625,3826,-5320,3506,36,-103,-144
118344592,-0.14349365234375,0.00592041015625,0.5020751953125,-0.85284423828125,4301,-5676,3687,35,-103,-153
118354577,-0.1551513671875,-0.01715087890625,0.50018310546875,-0.85174560546875,4911,-6134,3838,36,-102,-166
118364559,-0.16864013671875,-0.04107666015625,0.49774169921875,-0.84979248046875,5591,-6549,4064,38,-99,-183
118374540,-0.18414306640625,-0.06591796875,0.49456787109375,-0.84686279296875,6226,-6775,4318,38,-95,-203
118384521,-0.20147705078125,-0.09124755859375,0.49066162109375,-0.84283447265625,6740,-6765,4536,36,-92,-218
118394505,-0.21929931640625,-0.1163330078125,0.48651123046875,-0.83770751953125,7074,-6573,4717,32,-90,-220
118404488,-0.23590087890625,-0.14013671875,0.4822998046875,-0.83197021484375,7391,-6332,4859,27,-89,-205
118414465,-0.24969482421875,-0.1619873046875,0.4786376953125,-0.8260498046875,7708,-6145,4901,23,-87,-175
118424457,-0.259765625,-0.18115234375,0.47576904296875,-0.82061767578125,7971,-6017,4885,20,-85,-137
118434440,-0.26611328125,-0.197509765625,0.4737548828125,-0.81597900390625,8257,-6001,4898,18,-82,-100
118444423,-0.2698974609375,-0.21160888671875,0.47235107421875,-0.81195068359375,8650,-6137,5009,16,-77,-77
118454399,-0.273193359375,-0.224609375,0.47119140625,-0.80804443359375,9099,-6362,5188,12,-72,-74
118464384,-0.27789306640625,-0.2373046875,0.47003173828125,-0.803466796875,9533,-6601,5353,7,-67,-89
118474361,-0.2850341796875,-0.25054931640625,0.46856689453125,-0.79779052734375,9870,-6728,5478,0,-63,-113
118484344,-0.29437255859375,-0.26409912109375,0.4669189453125,-0.79095458984375,9981,-6690,5501,-7,-60,-130
118494327,-0.304443359375,-0.27740478515625,0.4656982421875,-0.7833251953125,9907,-6541,5428,-15,-60,-132
118504306,-0.3135986328125,-0.28955078125,0.4652099609375,-0.7755126953125,9722,-6375,5274,-20,-59,-118
118514290,-0.32073974609375,-0.30010986328125,0.4659423828125,-0.76812744140625,9524,-6250,5069,-25,-59,-95
118524276,-0.32550048828125,-0.30865478515625,0.46783447265625,-0.76153564453125,9428,-6187,4876,-27,-56,-69
118534260,-0.32843017578125,-0.3154296875,0.4705810546875,-0.75579833984375,9509,-6258,4737,-29,-52,-49
118544242,-0.33087158203125,-0.3209228515625,0.47369384765625,-0.75048828125,9803,-6515,4640,-32,-45,-44
118554221,-0.33453369140625,-0.325927734375,0.47650146484375,-0.744873046875,10166,-6832,4566,-35,-36,-57
118564213,-0.34051513671875,-0.3311767578125,0.478515625,-0.738525390625,10405,-7120,4475,-38,-29,-78
118574196,-0.3486328125,-0.33648681640625,0.47979736328125,-0.73150634765625,10419,-7275,4335,-42,-22,-95
118584164,-0.3575439453125,-0.34124755859375,0.4808349609375,-0.72430419921875,10212,-7325,4180,-45,-16,-97
118594146,-0.36578369140625,-0.34478759765625,0.4822998046875,-0.71746826171875,9906,-7343,4039,-47,-13,-83
118604131,-0.3721923828125,-0.34649658203125,0.48480224609375,-0.711669921875,9560,-7413,3911,-49,-10,-59
118614112,-0.37646484375,-0.34613037109375,0.4884033203125,-0.70709228515625,9271,-7613,3832,-50,-7,-33
118624096,-0.37896728515625,-0.343994140625,0.49285888671875,-0.70367431640625,9111,-7995,3789,-50,-3,-15
118634085,-0.38079833984375,-0.34075927734375,0.4976806640625,-0.70086669921875,9038,-8420,3759,-51,1,-8
118644058,-0.3826904296875,-0.33709716796875,0.50238037109375,-0.6982421875,8980,-8781,3728,-51,5,-9
118654042,-0.384765625,-0.3330078125,0.5069580078125,-0.69573974609375,8904,-9048,3647,-51,8,-8
118664030,-0.3863525390625,-0.328369140625,0.51171875,-0.693603515625,8747,-9228,3559,-51,10,1
118674013,-0.38690185546875,-0.322509765625,0.516845703125,-0.6922607421875,8503,-9399,3467,-51,13,17
118683990,-0.38580322265625,-0.3153076171875,0.5225830078125,-0.69183349609375,8226,-9587,3355,-50,14,36
118693973,-0.3829345703125,-0.306640625,0.52899169921875,-0.6925048828125,7940,-9814,3316,-50,15,57
118703955,-0.37847900390625,-0.296630859375,0.5357666015625,-0.694091796875,7756,-10085,3314,-48,16,74
118713937,-0.37298583984375,-0.28594970703125,0.54266357421875,-0.69622802734375,7694,-10348,3306,-46,17,83
118723921,-0.3670654296875,-0.2750244140625,0.54931640625,-0.698486328125,7719,-10556,3281,-44,18,87
118733904,-0.3609619140625,-0.26409912109375,0.5557861328125,-0.7008056640625,7803,-10697,3194,-42,19,90
118743885,-0.35455322265625,-0.2530517578125,0.56195068359375,-0.70318603515625,7839,-10762,3076,-40,20,94
118753870,-0.34759521484375,-0.24151611328125,0.5679931640625,-0.70587158203125,7815,-10805,2958,-38,22,103
118763852,-0.339599609375,-0.22906494140625,0.57403564453125,-0.70904541015625,7776,-10824,2872,-37,24,117
118773834,-0.3304443359375,-0.21551513671875,0.580078125,-0.71270751953125,7777,-10881,2815,-35,25,132
118783818,-0.3201904296875,-0.20098876953125,0.58599853515625,-0.71673583984375,7803,-10979,2782,-34,27,144
118793806,-0.30926513671875,-0.1859130859375,0.59161376953125,-0.720947265625,7901,-11098,2784,-32,28,152
118803788,-0.29791259765625,-0.17047119140625,0.59686279296875,-0.7252197265625,7997,-11206,2758,-30,29,157
118813771,-0.28607177734375,-0.15484619140625,0.60174560546875,-0.72943115234375,8052,-11240,2729,-28,30,164
118823748,-0.273681640625,-0.138671875,0.60626220703125,-0.73370361328125,8042,-11244,2713,-26,31,172
118833731,-0.26043701171875,-0.1219482421875,0.61041259765625,-0.738037109375,8008,-11218,2687,-25,32,182
118843711,-0.24639892578125,-0.1046142578125,0.6142578125,-0.7423095703125,7979,-11220,2680,-24,32,191
118853693,-0.2318115234375,-0.08685302734375,0.61767578125,-0.7464599609375,7948,-11194,2633,-23,33,198
118863677,-0.2169189453125,-0.06884765625,0.62066650390625,-0.75030517578125,7849,-11162,2599,-22,34,202
118873660,-0.20166015625,-0.05047607421875,0.62322998046875,-0.75390625,7693,-11062,2539,-21,36,207
118883641,-0.1859130859375,-0.0316162109375,0.625244140625,-0.75732421875,7472,-10888,2460,-20,37,214
118893626,-0.16943359375,-0.0120849609375,0.62677001953125,-0.76043701171875,7150,-10656,2383,-18,38,223
118903608,-0.15216064453125,0.0081787109375,0.62774658203125,-0.76336669921875,6777,-10390,2325,-17,39,232
118913592,-0.13446044921875,0.0286865234375,0.628173828125,-0.765869140625,6359,-10095,2288,-17,39,234
118923577,-0.11676025390625,0.049072265625,0.62811279296875,-0.76776123046875,5868,-9767,2253,-18,39,232
118933556,-0.099365234375,0.06915283203125,0.62762451171875,-0.76904296875,5356,-9409,2232,-19,39,227
118943536,-0.08245849609375,0.08868408203125,0.6268310546875,-0.7696533203125,4843,-9078,2195,-20,38,220
118953520,-0.06622314453125,0.107421875,0.62591552734375,-0.7696533203125,4312,-8764,2140,-21,38,211
118963502,-0.05035400390625,0.12542724609375,0.624755859375,-0.76904296875,3774,-8440,2116,-23,35,204
118973483,-0.03448486328125,0.14312744140625,0.6234130859375,-0.7679443359375,3278,-8162,2071,-24,33,204
118983472,-0.01812744140625,0.16064453125,0.62176513671875,-0.766357421875,2842,-7918,1990,-24,31,207
118993456,-0.0013427734375,0.1781005859375,0.61968994140625,-0.76434326171875,2462,-7637,1893,-24,29,210
119003438,0.01593017578125,0.195556640625,0.6173095703125,-0.76190185546875,2116,-7296,1798,-25,27,213
119013415,0.03375244140625,0.21307373046875,0.614501953125,-0.75885009765625,1725,-6887,1675,-26,25,216
119023397,0.0518798828125,0.23046875,0.61138916015625,-0.7552490234375,1360,-6498,1557,-28,24,217
119033378,0.070068359375,0.24755859375,0.6080322265625,-0.7510986328125,970,-6157,1469,-29,22,214
119043361,0.087890625,0.263916015625,0.60455322265625,-0.74639892578125,614,-5841,1353,-31,21,208
119053344,0.105224609375,0.27960205078125,0.60107421875,-0.7412109375,291,-5492,1229,-33,19,201
119063327,0.122314453125,0.2945556640625,0.5975341796875,-0.73565673828125,-16,-5139,1113,-34,17,197
119073308,0.13946533203125,0.30926513671875,0.59381103515625,-0.72955322265625,-311,-4822,999,-35,16,197
119083290,0.15673828125,0.32366943359375,0.58978271484375,-0.72308349609375,-566,-4569,908,-36,14,196
119093279,0.1737060546875,0.33746337890625,0.5855712890625,-0.71624755859375,-758,-4355,815,-37,13,192
119103262,0.190185546875,0.3505859375,0.5814208984375,-0.7091064453125,-941,-4158,733,-38,12,185
119113244,0.20574951171875,0.36279296875,0.57745361328125,-0.70184326171875,-1080,-3955,656,-38,12,175
119123225,0.220458984375,0.37408447265625,0.57379150390625,-0.69439697265625,-1267,-3748,599,-39,12,164
119133215,0.234375,0.384521484375,0.5703125,-0.68695068359375,-1434,-3542,545,-40,11,155
119143197,0.24761962890625,0.394287109375,0.56707763671875,-0.679443359375,-1640,-3312,485,-41,11,146
119153173,0.2603759765625,0.4034423828125,0.56396484375,-0.67181396484375,-1832,-3071,440,-41,10,141
119163149,0.27288818359375,0.41229248046875,0.560791015625,-0.6640625,-2017,-2806,385,-42,10,139
119173131,0.285400390625,0.42108154296875,0.557373046875,-0.6561279296875,-2222,-2545,330,-41,9,139
119183116,0.29791259765625,0.42999267578125,0.5535888671875,-0.64794921875,-2414,-2247,252,-40,10,140
119193096,0.31005859375,0.438720703125,0.5496826171875,-0.6396484375,-2591,-1960,180,-38,11,137
119203078,0.3216552734375,0.447265625,0.54571533203125,-0.63134765625,-2780,-1681,108,-36,12,131
119213063,0.33245849609375,0.4554443359375,0.54180908203125,-0.62322998046875,-2995,-1395,69,-34,13,124
119223046,0.34246826171875,0.4632568359375,0.53802490234375,-0.61529541015625,-3245,-1065,80,-32,14,115
119233029,0.3516845703125,0.4705810546875,0.53424072265625,-0.60772705078125,-3512,-726,102,-29,15,107
119243016,0.36029052734375,0.4776611328125,0.53045654296875,-0.6004638671875,-3810,-339,116,-26,15,100
119252993,0.36834716796875,0.48455810546875,0.52655029296875,-0.593505859375,-4134,91,135,-22,16,95
119262975,0.37603759765625,0.491455078125,0.52227783203125,-0.586669921875,-4497,584,144,-18,15,92
119272957,0.3834228515625,0.49835205078125,0.5177001953125,-0.58013916015625,-4864,1118,165,-14,15,88
119282939,0.3902587890625,0.50494384765625,0.51300048828125,-0.57403564453125,-5222,1646,196,-10,13,81
119292923,0.396240234375,0.51092529296875,0.50836181640625,-0.5687255859375,-5568,2174,238,-5,12,68
119302902,0.40106201171875,0.51605224609375,0.5042724609375,-0.56439208984375,-5886,2647,281,-2,10,51
119312887,0.40460205078125,0.52008056640625,0.50079345703125,-0.56121826171875,-6218,3095,329,2,7,32
119322867,0.40679931640625,0.5228271484375,0.4981689453125,-0.55938720703125,-6525,3494,372,5,5,12
119332847,0.40771484375,0.5244140625,0.496337890625,-0.55889892578125,-6790,3813,416,8,1,-7
119342825,0.4073486328125,0.52471923828125,0.495361328125,-0.55975341796875,-6991,4046,444,12,-2,-26
119352802,0.40570068359375,0.52374267578125,0.4952392578125,-0.56195068359375,-7103,4192,461,14,-6,-45
119362796,0.40283203125,0.52142333984375,0.49603271484375,-0.5654296875,-7114,4241,460,16,-9,-65
119372776,0.39849853515625,0.517822265625,0.4979248046875,-0.57012939453125,-7005,4205,416,17,-12,-84
119382752,0.39276123046875,0.512939453125,0.50091552734375,-0.575927734375,-6783,4096,353,19,-14,-103
119392734,0.38555908203125,0.5067138671875,0.50494384765625,-0.582763671875,-6479,3929,285,19,-15,-122
119402716,0.37689208984375,0.49932861328125,0.50994873046875,-0.59033203125,-6126,3701,214,20,-15,-138
119412701,0.36700439453125,0.49102783203125,0.5157470703125,-0.59844970703125,-5776,3435,136,21,-14,-151
119422683,0.35601806640625,0.48187255859375,0.5220947265625,-0.60699462890625,-5416,3131,90,21,-14,-161
119432670,0.34417724609375,0.471923828125,0.52886962890625,-0.61572265625,-5075,2781,57,21,-14,-168
119442650,0.33172607421875,0.46142578125,0.5357666015625,-0.62451171875,-4750,2418,25,22,-14,-173
119452631,0.31878662109375,0.4503173828125,0.542724609375,-0.63323974609375,-4431,2038,-12,21,-15,-177
119462615,0.30523681640625,0.43865966796875,0.54986572265625,-0.64190673828125,-4078,1632,-60,21,-15,-181
119472596,0.29095458984375,0.42620849609375,0.55712890625,-0.65057373046875,-3723,1202,-110,21,-16,-188
119482579,0.2757568359375,0.4129638671875,0.56463623046875,-0.65924072265625,-3393,747,-134,21,-15,-195
119492563,0.25970458984375,0.39886474609375,0.572265625,-0.6678466796875,-3110,300,-125,21,-15,-203
119502545,0.24267578125,0.38372802734375,0.5799560546875,-0.67633056640625,-2872,-137,-98,21,-15,-212
119512526,0.2247314453125,0.36749267578125,0.587890625,-0.6846923828125,-2661,-579,-91,20,-16,-222
119522508,0.20587158203125,0.35009765625,0.5958251953125,-0.69281005859375,-2472,-1059,-50,19,-18,-230
119532492,0.1865234375,0.33148193359375,0.6036376953125,-0.70062255859375,-2298,-1557,12,18,-22,-237
119542472,0.166748046875,0.311767578125,0.611083984375,-0.70819091796875,-2078,-2039,87,18,-26,-241
119552462,0.1468505859375,0.29119873046875,0.617919921875,-0.71539306640625,-1815,-2537,170,19,-30,-242
119562445,0.126708984375,0.269775390625,0.62420654296875,-0.72216796875,-1391,-3106,201,20,-33,-243
119572427,0.10589599609375,0.24713134765625,0.63018798828125,-0.7283935546875,-823,-3680,205,19,-36,-250
119582405,0.08428955078125,0.2232666015625,0.6357421875,-0.73406982421875,-307,-4166,251,19,-38,-257
119592387,0.062744140625,0.19879150390625,0.640625,-0.739013671875,157,-4553,312,19,-41,-256
119602369,0.0419921875,0.1744384765625,0.64453125,-0.74322509765625,642,-4929,425,20,-43,-246
119612350,0.0224609375,0.15069580078125,0.64727783203125,-0.74688720703125,1185,-5380,526,22,-45,-231
119622333,0.00408935546875,0.12762451171875,0.64898681640625,-0.75,1821,-5913,600,25,-46,-217
119632320,-0.013671875,0.10491943359375,0.6497802734375,-0.75274658203125,2513,-6483,654,29,-46,-210
119642303,-0.0313720703125,0.08233642578125,0.649658203125,-0.755126953125,3139,-6931,725,33,-44,-207
119652290,-0.04901123046875,0.05999755859375,0.64874267578125,-0.757080078125,3590,-7201,812,35,-43,-207
119662275,-0.06640625,0.0380859375,0.64703369140625,-0.75860595703125,3873,-7306,940,36,-41,-204
119672259,-0.0830078125,0.016845703125,0.644775390625,-0.75970458984375,4111,-7348,1085,35,-41,-197
119682240,-0.0987548828125,-0.00384521484375,0.64202880859375,-0.76031494140625,4408,-7426,1268,35,-42,-189
119692228,-0.113525390625,-0.02392578125,0.63885498046875,-0.760498046875,4798,-7620,1373,35,-42,-180
119702211,-0.127685546875,-0.04351806640625,0.63531494140625,-0.7603759765625,5269,-7940,1452,37,-42,-174
119712193,-0.14190673828125,-0.06292724609375,0.63104248046875,-0.76007080078125,5816,-8342,1566,40,-39,-176
119722164,-0.1571044921875,-0.08282470703125,0.62615966796875,-0.75921630859375,6284,-8672,1655,42,-36,-189
119732146,-0.17376708984375,-0.1036376953125,0.6204833984375,-0.7576904296875,6598,-8839,1768,42,-35,-206
119742129,-0.19134521484375,-0.125,0.6142578125,-0.75531005859375,6766,-8840,1895,41,-34,-218
119752112,-0.20892333984375,-0.14642333984375,0.60772705078125,-0.7520751953125,6816,-8736,2040,38,-36,-219
119762094,-0.2252197265625,-0.1669921875,0.6011962890625,-0.74835205078125,6899,-8583,2185,35,-39,-207
119772076,-0.23931884765625,-0.18609619140625,0.59503173828125,-0.74432373046875,7076,-8435,2283,32,-42,-184
119782059,-0.25054931640625,-0.20318603515625,0.58941650390625,-0.74066162109375,7262,-8304,2373,31,-44,-155
119792041,-0.25885009765625,-0.218017578125,0.5843505859375,-0.737548828125,7490,-8184,2436,31,-45,-125
119802029,-0.26495361328125,-0.23114013671875,0.57989501953125,-0.73492431640625,7811,-8148,2479,30,-45,-105
119812011,-0.27020263671875,-0.243408203125,0.5758056640625,-0.7322998046875,8135,-8159,2518,27,-45,-99
119821988,-0.2760009765625,-0.25567626953125,0.57183837890625,-0.72900390625,8467,-8160,2548,22,-44,-108
119831971,-0.2830810546875,-0.2685546875,0.56787109375,-0.72479248046875,8752,-8105,2536,16,-43,-121
119841952,-0.29119873046875,-0.28173828125,0.56402587890625,-0.71954345703125,8950,-7961,2476,9,-43,-130
119851935,-0.29962158203125,-0.294677734375,0.56060791015625,-0.71356201171875,9074,-7765,2387,2,-42,-129
119861915,-0.3072509765625,-0.30645751953125,0.55792236328125,-0.70745849609375,9087,-7526,2286,-3,-41,-116
119871896,-0.3133544921875,-0.31646728515625,0.55615234375,-0.70172119140625,9037,-7271,2203,-7,-40,-95
119881877,-0.3177490234375,-0.32452392578125,0.5552978515625,-0.69671630859375,9034,-7056,2114,-9,-37,-72
119891859,-0.3206787109375,-0.33087158203125,0.55523681640625,-0.69244384765625,9083,-6926,2014,-11,-33,-54
119901843,-0.32318115234375,-0.33599853515625,0.55548095703125,-0.68853759765625,9161,-6857,1957,-13,-28,-48
119911824,-0.3262939453125,-0.340576171875,0.5556640625,-0.68475341796875,9217,-6820,1907,-15,-22,-51
119921804,-0.33050537109375,-0.3450927734375,0.55535888671875,-0.6806640625,9221,-6786,1865,-17,-16,-61
119931795,-0.3360595703125,-0.3497314453125,0.5545654296875,-0.67620849609375,9163,-6730,1803,-20,-11,-73
119941778,-0.34271240234375,-0.35467529296875,0.55328369140625,-0.67132568359375,9032,-6636,1717,-21,-7,-83
119951754,-0.35003662109375,-0.359619140625,0.5517578125,-0.66619873046875,8831,-6533,1623,-23,-5,-88
119961735,-0.35748291015625,-0.36444091796875,0.5501708984375,-0.660888671875,8631,-6415,1528,-24,-4,-88
119971718,-0.3646240234375,-0.36895751953125,0.54864501953125,-0.65570068359375,8492,-6291,1443,-23,-4,-84
119981700,-0.3712158203125,-0.3731689453125,0.54730224609375,-0.65069580078125,8446,-6192,1370,-22,-5,-79
119991684,-0.377197265625,-0.3770751953125,0.54620361328125,-0.64599609375,8484,-6131,1298,-21,-5,-73
120001670,-0.38275146484375,-0.38067626953125,0.54510498046875,-0.6414794921875,8561,-6088,1227,-20,-5,-70
120011649,-0.3880615234375,-0.3841552734375,0.54400634765625,-0.63714599609375,8663,-6027,1163,-18,-4,-68
120021630,-0.39324951171875,-0.38751220703125,0.54278564453125,-0.6329345703125,8733,-5932,1107,-17,-4,-66
120031614,-0.39813232421875,-0.390625,0.54156494140625,-0.6290283203125,8757,-5828,1055,-16,-3,-62
120041596,-0.40252685546875,-0.39337158203125,0.54046630859375,-0.62542724609375,8745,-5703,982,-14,-2,-56
120051577,-0.40625,-0.39569091796875,0.53955078125,-0.62237548828125,8674,-5558,921,-13,-2,-48
120061557,-0.4093017578125,-0.3974609375,0.5389404296875,-0.61981201171875,8547,-5415,890,-11,-2,-39
120071540,-0.41156005859375,-0.39874267578125,0.53851318359375,-0.61773681640625,8385,-5283,893,-9,-2,-32
120081524,-0.41339111328125,-0.39984130859375,0.538330078125,-0.61602783203125,8219,-5137,930,-8,-4,-27
120095030,-0.41497802734375,-0.4010009765625,0.53802490234375,-0.614501953125,8118,-4968,990,-7,-5,-27
120101490,-0.4166259765625,-0.40234375,0.53759765625,-0.61285400390625,8129,-4756,1069,-6,-5,-28
120111469,-0.4185791015625,-0.40386962890625,0.5369873046875,-0.61102294921875,8177,-4508,1120,-7,-5,-30
120121460,-0.42071533203125,-0.40533447265625,0.53631591796875,-0.609130859375,8232,-4235,1148,-8,-4,-29
120131440,-0.42291259765625,-0.406494140625,0.53582763671875,-0.60736083984375,8273,-3962,1167,-10,-2,-25
120141425,-0.425048828125,-0.40716552734375,0.53546142578125,-0.605712890625,8279,-3714,1175,-12,1,-22
120151401,-0.4273681640625,-0.4073486328125,0.5352783203125,-0.6041259765625,8223,-3510,1190,-15,3,-20
120161384,-0.4298095703125,-0.40716552734375,0.5352783203125,-0.6025390625,8070,-3364,1216,-17,5,-19
120171364,-0.4324951171875,-0.40679931640625,0.53533935546875,-0.600830078125,7911,-3270,1229,-19,5,-21
120181346,-0.43548583984375,-0.406494140625,0.53533935546875,-0.59881591796875,7773,-3211,1205,-21,5,-24
120191328,-0.4385986328125,-0.4063720703125,0.53533935546875,-0.5966796875,7652,-3190,1145,-21,6,-27
120201312,-0.44171142578125,-0.4063720703125,0.5352783203125,-0.5943603515625,7569,-3196,1085,-21,5,-28
120211295,-0.4447021484375,-0.40643310546875,0.53521728515625,-0.5921630859375,7554,-3172,1007,-19,4,-28
120221275,-0.44744873046875,-0.40655517578125,0.53521728515625,-0.5899658203125,7564,-3138,909,-18,4,-25
120231266,-0.4498291015625,-0.40667724609375,0.5352783203125,-0.5880126953125,7596,-3100,807,-16,3,-22
