subject,Peter Cope
arm,right
label,1
hz,100.17618141263121
time,4.352332

timestamp_us,q0,q1,q2,q3,ax,ay,az,gx,gy,gz
134855474,-0.45501708984375,-0.560302734375,0.37548828125,-0.58148193359375,8590,801,875,-3,7,-6
134865463,-0.456298828125,-0.5599365234375,0.37457275390625,-0.5814208984375,8629,822,912,-4,8,-10
134875448,-0.45794677734375,-0.55963134765625,0.37335205078125,-0.58123779296875,8616,838,934,-4,9,-14
134885428,-0.46002197265625,-0.559326171875,0.37176513671875,-0.58087158203125,8573,866,982,-5,11,-17
134895405,-0.46234130859375,-0.55908203125,0.3699951171875,-0.5804443359375,8525,911,985,-5,12,-20
134905388,-0.46484375,-0.55877685546875,0.3680419921875,-0.57989501953125,8463,929,990,-5,13,-22
134915370,-0.46759033203125,-0.5584716796875,0.365966796875,-0.579345703125,8392,961,1020,-6,14,-24
134925352,-0.47039794921875,-0.55810546875,0.36383056640625,-0.5787353515625,8309,996,1035,-6,15,-24
134935334,-0.47332763671875,-0.55767822265625,0.36163330078125,-0.578125,8226,1021,1047,-7,16,-25
134945317,-0.47637939453125,-0.55718994140625,0.35943603515625,-0.5775146484375,8140,1063,1051,-8,16,-25
134955298,-0.47930908203125,-0.556640625,0.35736083984375,-0.576904296875,8086,1110,1041,-8,16,-23
134965279,-0.482177734375,-0.5560302734375,0.3553466796875,-0.57635498046875,8067,1148,1021,-8,16,-22
134975271,-0.48486328125,-0.5552978515625,0.353515625,-0.575927734375,8074,1179,1001,-8,17,-19
134985253,-0.48724365234375,-0.55438232421875,0.3519287109375,-0.5758056640625,8075,1200,985,-8,17,-16
134995240,-0.48931884765625,-0.55328369140625,0.35052490234375,-0.57586669921875,8075,1208,975,-8,17,-12
135005226,-0.49114990234375,-0.552001953125,0.349365234375,-0.5762939453125,8048,1213,982,-7,18,-8
135015210,-0.49267578125,-0.550537109375,0.34844970703125,-0.57696533203125,8012,1209,990,-7,18,-4
135025188,-0.493896484375,-0.5489501953125,0.34771728515625,-0.57781982421875,7974,1205,1005,-7,18,-1
135035163,-0.4949951171875,-0.54730224609375,0.34710693359375,-0.578857421875,7917,1202,1024,-6,18,1
135045145,-0.49591064453125,-0.5455322265625,0.3466796875,-0.58001708984375,7870,1208,1049,-6,18,4
135055127,-0.4967041015625,-0.5438232421875,0.34625244140625,-0.5811767578125,7821,1223,1071,-6,17,4
135065111,-0.49749755859375,-0.54217529296875,0.3458251953125,-0.582275390625,7780,1223,1104,-6,17,3
135075093,-0.4984130859375,-0.5406494140625,0.3453369140625,-0.58319091796875,7737,1216,1127,-6,16,1
135085078,-0.49945068359375,-0.539306640625,0.3447265625,-0.58392333984375,7698,1228,1172,-6,15,-2
135095055,-0.50067138671875,-0.53814697265625,0.34393310546875,-0.58441162109375,7684,1235,1221,-6,14,-5
135105038,-0.50213623046875,-0.53717041015625,0.34295654296875,-0.5845947265625,7652,1238,1260,-6,13,-8
135115026,-0.50384521484375,-0.53643798828125,0.34185791015625,-0.58447265625,7632,1237,1296,-6,12,-12
135125012,-0.50567626953125,-0.53594970703125,0.3406982421875,-0.58404541015625,7621,1243,1326,-7,10,-15
135134989,-0.50762939453125,-0.5355224609375,0.3394775390625,-0.5833740234375,7619,1247,1350,-7,9,-17
135144970,-0.5096435546875,-0.53521728515625,0.3382568359375,-0.58258056640625,7622,1249,1381,-7,8,-18
135154953,-0.51177978515625,-0.5350341796875,0.33709716796875,-0.58160400390625,7611,1262,1414,-8,7,-19
135164937,-0.5137939453125,-0.534912109375,0.3359375,-0.58062744140625,7601,1275,1453,-8,6,-19
135174917,-0.5157470703125,-0.5347900390625,0.3349609375,-0.57952880859375,7596,1293,1486,-8,5,-17
135184900,-0.517578125,-0.53466796875,0.33416748046875,-0.5784912109375,7583,1315,1515,-8,4,-16
135194882,-0.51922607421875,-0.5345458984375,0.33355712890625,-0.57745361328125,7598,1336,1537,-8,2,-14
135204865,-0.520751953125,-0.534423828125,0.3331298828125,-0.57647705078125,7613,1363,1560,-8,1,-13
135214844,-0.52215576171875,-0.5343017578125,0.3328857421875,-0.57550048828125,7631,1365,1581,-9,1,-12
135224826,-0.52349853515625,-0.53411865234375,0.332763671875,-0.57452392578125,7660,1360,1580,-9,0,-11
135234808,-0.524658203125,-0.53387451171875,0.33282470703125,-0.5736083984375,7681,1355,1601,-9,-1,-9
135244797,-0.52569580078125,-0.53363037109375,0.3331298828125,-0.57269287109375,7701,1336,1609,-10,-2,-8
135254779,-0.526611328125,-0.5333251953125,0.33355712890625,-0.5718994140625,7709,1330,1620,-10,-2,-6
135264755,-0.52734375,-0.532958984375,0.33416748046875,-0.5711669921875,7716,1326,1627,-10,-3,-3
135274735,-0.5279541015625,-0.5325927734375,0.3349609375,-0.57049560546875,7746,1324,1634,-10,-3,-2
135284723,-0.5284423828125,-0.53216552734375,0.3359375,-0.56988525390625,7788,1319,1630,-11,-4,0
135294702,-0.52886962890625,-0.53173828125,0.33697509765625,-0.56927490234375,7828,1307,1631,-11,-5,0
135304683,-0.52935791015625,-0.5313720703125,0.33795166015625,-0.568603515625,7875,1287,1636,-11,-4,-1
135314663,-0.52984619140625,-0.531005859375,0.33892822265625,-0.56787109375,7929,1261,1639,-11,-5,-2
135324647,-0.530517578125,-0.53070068359375,0.33978271484375,-0.5670166015625,7967,1263,1640,-11,-4,-4
135334634,-0.53131103515625,-0.53045654296875,0.34051513671875,-0.56610107421875,8002,1246,1636,-11,-4,-5
135344617,-0.53216552734375,-0.5301513671875,0.34124755859375,-0.56512451171875,8024,1225,1630,-11,-4,-7
135354600,-0.53314208984375,-0.52984619140625,0.34185791015625,-0.5640869140625,8036,1198,1635,-11,-3,-7
135364582,-0.5341796875,-0.529541015625,0.34246826171875,-0.5631103515625,8033,1172,1639,-12,-3,-8
135374564,-0.53521728515625,-0.52923583984375,0.34295654296875,-0.56207275390625,8035,1147,1636,-11,-2,-8
135384548,-0.5362548828125,-0.52874755859375,0.343505859375,-0.5611572265625,8035,1129,1639,-12,-1,-8
135394528,-0.537353515625,-0.5283203125,0.343994140625,-0.56024169921875,8037,1132,1639,-12,-1,-8
135404515,-0.5384521484375,-0.52777099609375,0.344482421875,-0.5594482421875,8057,1138,1646,-12,0,-7
135414495,-0.53948974609375,-0.52716064453125,0.344970703125,-0.5587158203125,8061,1136,1656,-12,0,-5
135424483,-0.54034423828125,-0.5263671875,0.3455810546875,-0.55816650390625,8073,1128,1668,-12,1,-3
135434464,-0.54119873046875,-0.5255126953125,0.34625244140625,-0.55780029296875,8084,1116,1688,-12,1,-2
135444452,-0.5418701171875,-0.5245361328125,0.3470458984375,-0.55755615234375,8103,1103,1698,-12,2,0
135454431,-0.54241943359375,-0.52349853515625,0.34796142578125,-0.55743408203125,8105,1078,1695,-12,2,1
135464406,-0.54290771484375,-0.52239990234375,0.34881591796875,-0.557373046875,8100,1055,1695,-11,2,2
135474389,-0.54339599609375,-0.52130126953125,0.34967041015625,-0.55743408203125,8104,1048,1692,-11,3,2
135484370,-0.54388427734375,-0.52020263671875,0.3504638671875,-0.55755615234375,8103,1019,1710,-10,3,3
135494353,-0.54437255859375,-0.51910400390625,0.3511962890625,-0.5576171875,8083,999,1714,-10,4,2
135504336,-0.544921875,-0.51800537109375,0.351806640625,-0.5577392578125,8067,985,1731,-9,4,2
135514320,-0.54541015625,-0.51690673828125,0.3524169921875,-0.55792236328125,8051,979,1741,-9,4,2
135524301,-0.54583740234375,-0.5157470703125,0.35302734375,-0.55810546875,8034,974,1748,-9,4,2
135534279,-0.54620361328125,-0.5146484375,0.3536376953125,-0.55841064453125,8025,975,1758,-9,4,4
135544272,-0.5465087890625,-0.51348876953125,0.354248046875,-0.55877685546875,8018,967,1771,-8,5,5
135554254,-0.5467529296875,-0.51226806640625,0.3548583984375,-0.55926513671875,8008,952,1778,-8,5,5
135564240,-0.54693603515625,-0.51116943359375,0.35546875,-0.55975341796875,8000,950,1774,-7,5,5
135574225,-0.547119140625,-0.510009765625,0.35601806640625,-0.56024169921875,7989,927,1770,-7,5,5
135584208,-0.54730224609375,-0.5089111328125,0.35650634765625,-0.560791015625,7969,913,1768,-6,5,4
135594189,-0.5474853515625,-0.5079345703125,0.35687255859375,-0.56121826171875,7963,903,1782,-6,5,3
135604160,-0.54766845703125,-0.50701904296875,0.357177734375,-0.5616455078125,7942,900,1791,-5,5,3
135614142,-0.54791259765625,-0.506103515625,0.35748291015625,-0.56207275390625,7919,890,1803,-5,5,3
135624125,-0.54803466796875,-0.5052490234375,0.35772705078125,-0.56256103515625,7914,871,1822,-5,5,3
135634107,-0.548095703125,-0.50439453125,0.35809326171875,-0.5631103515625,7910,826,1846,-4,4,4
135644093,-0.54803466796875,-0.5035400390625,0.35845947265625,-0.56365966796875,7909,800,1875,-4,4,5
135654085,-0.5478515625,-0.502685546875,0.35888671875,-0.5643310546875,7898,786,1906,-3,3,6
135664063,-0.54754638671875,-0.50189208984375,0.359375,-0.5650634765625,7899,767,1907,-3,3,7
135674042,-0.54705810546875,-0.5010986328125,0.35992431640625,-0.56585693359375,7895,760,1905,-2,3,9
135684028,-0.5465087890625,-0.500244140625,0.36053466796875,-0.56671142578125,7898,748,1908,-2,2,10
135694011,-0.5457763671875,-0.49945068359375,0.361328125,-0.56768798828125,7879,728,1912,-1,2,12
135703987,-0.54486083984375,-0.49859619140625,0.36212158203125,-0.56878662109375,7854,708,1909,-1,2,13
135713975,-0.5438232421875,-0.4976806640625,0.363037109375,-0.5699462890625,7810,691,1911,0,1,15
135723952,-0.54266357421875,-0.49676513671875,0.364013671875,-0.57122802734375,7790,675,1914,0,1,16
135733931,-0.54144287109375,-0.49591064453125,0.36505126953125,-0.57244873046875,7760,669,1916,0,1,16
135743914,-0.540283203125,-0.4951171875,0.36602783203125,-0.5736083984375,7744,650,1909,0,0,15
135753898,-0.5391845703125,-0.4945068359375,0.366943359375,-0.57464599609375,7743,639,1907,0,-1,13
135763877,-0.53814697265625,-0.4940185546875,0.36773681640625,-0.57550048828125,7740,626,1880,1,-2,11
135773857,-0.53729248046875,-0.4937744140625,0.36834716796875,-0.57611083984375,7739,608,1871,1,-2,8
135783841,-0.53656005859375,-0.49365234375,0.368896484375,-0.5765380859375,7739,595,1866,1,-3,6
135793823,-0.535888671875,-0.49365234375,0.369384765625,-0.57684326171875,7747,576,1858,1,-3,5
135803803,-0.53521728515625,-0.4937744140625,0.369873046875,-0.57708740234375,7760,575,1854,1,-4,4
135813795,-0.53448486328125,-0.493896484375,0.37030029296875,-0.57733154296875,7793,599,1853,2,-4,5
135823778,-0.53369140625,-0.4940185546875,0.370849609375,-0.57757568359375,7813,627,1841,2,-5,6
135833753,-0.53277587890625,-0.494140625,0.37152099609375,-0.57794189453125,7815,668,1837,2,-5,9
135843736,-0.5316162109375,-0.494140625,0.372314453125,-0.5784912109375,7839,704,1827,2,-5,11
135853718,-0.5303955078125,-0.4940185546875,0.37322998046875,-0.57916259765625,7845,728,1825,2,-5,13
135863701,-0.52899169921875,-0.49383544921875,0.374267578125,-0.57989501953125,7863,742,1811,2,-5,14
135873683,-0.527587890625,-0.49359130859375,0.3753662109375,-0.5806884765625,7859,757,1803,1,-5,16
135883670,-0.526123046875,-0.4932861328125,0.37652587890625,-0.58154296875,7861,761,1809,1,-5,16
135893647,-0.52471923828125,-0.49298095703125,0.377685546875,-0.58233642578125,7858,768,1811,1,-5,16
135903630,-0.5233154296875,-0.49261474609375,0.37884521484375,-0.5831298828125,7863,761,1798,1,-5,16
135913613,-0.52197265625,-0.4923095703125,0.3798828125,-0.5838623046875,7884,754,1804,1,-5,15
135923594,-0.520751953125,-0.49200439453125,0.38092041015625,-0.58453369140625,7900,733,1790,0,-4,14
135933577,-0.5196533203125,-0.4918212890625,0.38177490234375,-0.5850830078125,7907,730,1785,1,-4,11
135943558,-0.51873779296875,-0.49176025390625,0.3824462890625,-0.5855712890625,7927,724,1785,1,-4,9
135953542,-0.51806640625,-0.49176025390625,0.3829345703125,-0.58587646484375,7948,732,1777,1,-3,7
135963528,-0.5174560546875,-0.4918212890625,0.38330078125,-0.5860595703125,7968,736,1757,1,-3,4
135973510,-0.51708984375,-0.491943359375,0.383544921875,-0.586181640625,7984,732,1743,1,-2,3
135983493,-0.5167236328125,-0.4920654296875,0.38372802734375,-0.58624267578125,8009,735,1735,1,-2,3
135993472,-0.516357421875,-0.4921875,0.3839111328125,-0.58636474609375,8024,726,1741,1,-2,3
136003463,-0.51593017578125,-0.49224853515625,0.38409423828125,-0.5865478515625,8047,715,1735,1,-2,4
136013442,-0.5155029296875,-0.4921875,0.38433837890625,-0.58685302734375,8048,699,1746,1,-1,5
136023431,-0.51495361328125,-0.49200439453125,0.3846435546875,-0.5872802734375,8049,692,1758,1,0,7
136033402,-0.5142822265625,-0.49169921875,0.38494873046875,-0.587890625,8045,672,1763,1,0,8
136043385,-0.51348876953125,-0.4913330078125,0.38531494140625,-0.588623046875,8047,648,1772,2,0,10
136053370,-0.5126953125,-0.49090576171875,0.38580322265625,-0.58941650390625,8042,612,1769,1,0,11
136063351,-0.5118408203125,-0.490478515625,0.38623046875,-0.5902099609375,8034,580,1765,2,1,11
136073333,-0.51104736328125,-0.49005126953125,0.38653564453125,-0.591064453125,8009,561,1773,2,1,10
136083316,-0.51031494140625,-0.48968505859375,0.38677978515625,-0.591796875,7975,539,1762,2,1,8
136093297,-0.509765625,-0.48944091796875,0.38690185546875,-0.5924072265625,7947,506,1772,2,1,6
136106030,-0.50921630859375,-0.4892578125,0.386962890625,-0.593017578125,7947,483,1783,2,1,5
136113274,-0.50885009765625,-0.4891357421875,0.3868408203125,-0.593505859375,7943,478,1803,2,1,4
136123255,-0.508544921875,-0.48907470703125,0.3865966796875,-0.593994140625,7968,465,1826,3,1,3
136133240,-0.50823974609375,-0.48907470703125,0.38641357421875,-0.59442138671875,7990,453,1826,3,1,2
136143224,-0.5079345703125,-0.48907470703125,0.38616943359375,-0.59478759765625,8001,434,1827,3,1,2
136153208,-0.507568359375,-0.4891357421875,0.38592529296875,-0.59521484375,8018,410,1828,3,1,2
136163189,-0.50726318359375,-0.4891357421875,0.3856201171875,-0.59564208984375,8005,381,1851,3,1,2
136173159,-0.50689697265625,-0.4891357421875,0.3853759765625,-0.59613037109375,7988,364,1856,4,1,2
136183142,-0.5064697265625,-0.4891357421875,0.3851318359375,-0.59661865234375,7951,328,1872,4,1,3
136193121,-0.5059814453125,-0.4891357421875,0.38494873046875,-0.59716796875,7917,310,1892,4,1,4
136203105,-0.50543212890625,-0.48907470703125,0.38482666015625,-0.5977783203125,7883,297,1913,4,0,5
136213087,-0.5047607421875,-0.489013671875,0.384765625,-0.598388671875,7871,285,1905,4,0,5
136223069,-0.5040283203125,-0.489013671875,0.384765625,-0.59906005859375,7867,286,1907,4,-1,7
136233049,-0.50323486328125,-0.489013671875,0.384765625,-0.5997314453125,7871,291,1890,5,-1,6
136243033,-0.50238037109375,-0.48907470703125,0.384765625,-0.600341796875,7868,293,1885,5,-1,6
136253021,-0.5015869140625,-0.48919677734375,0.38470458984375,-0.6009521484375,7872,289,1880,5,-2,5
136262999,-0.5008544921875,-0.48944091796875,0.38458251953125,-0.6014404296875,7884,290,1878,5,-2,4
136272979,-0.5001220703125,-0.48968505859375,0.38446044921875,-0.60198974609375,7901,296,1877,6,-2,4
136282963,-0.4993896484375,-0.48992919921875,0.38427734375,-0.60247802734375,7943,312,1873,6,-1,4
136292944,-0.49871826171875,-0.49017333984375,0.38409423828125,-0.6029052734375,7959,320,1858,6,-1,4
136302927,-0.49798583984375,-0.490478515625,0.3839111328125,-0.6033935546875,7985,325,1842,6,-1,4
136312912,-0.497314453125,-0.49066162109375,0.3837890625,-0.6038818359375,8003,332,1839,6,-1,4
136322893,-0.49658203125,-0.4908447265625,0.38360595703125,-0.60443115234375,8003,350,1842,5,-1,5
136332876,-0.49591064453125,-0.49102783203125,0.38348388671875,-0.60491943359375,7988,360,1833,5,-1,5
136342859,-0.4952392578125,-0.49127197265625,0.38330078125,-0.60540771484375,7976,350,1826,5,-1,4
136352841,-0.49462890625,-0.49151611328125,0.38311767578125,-0.6058349609375,7959,356,1826,5,-1,4
136362829,-0.494140625,-0.49176025390625,0.3828125,-0.60626220703125,7949,380,1823,5,0,2
136372806,-0.49365234375,-0.49200439453125,0.38250732421875,-0.60662841796875,7932,384,1820,5,0,2
136382800,-0.49322509765625,-0.49224853515625,0.3822021484375,-0.60699462890625,7937,395,1825,5,0,2
136392782,-0.492919921875,-0.492431640625,0.38189697265625,-0.6072998046875,7933,400,1820,4,0,1
136402758,-0.4925537109375,-0.49267578125,0.38153076171875,-0.6075439453125,7942,405,1814,4,0,1
136412741,-0.4923095703125,-0.49285888671875,0.3812255859375,-0.60784912109375,7939,410,1813,4,1,1
136422720,-0.4920654296875,-0.49298095703125,0.380859375,-0.608154296875,7940,407,1816,3,1,1
136432703,-0.49188232421875,-0.4931640625,0.3804931640625,-0.6083984375,7915,409,1827,3,0,0
136442684,-0.49163818359375,-0.49334716796875,0.380126953125,-0.608642578125,7904,416,1831,4,1,1
136452670,-0.491455078125,-0.49346923828125,0.37982177734375,-0.60894775390625,7899,407,1831,3,0,1
136462649,-0.4912109375,-0.49359130859375,0.3795166015625,-0.60919189453125,7900,404,1818,3,1,1
136472633,-0.490966796875,-0.49365234375,0.3792724609375,-0.6094970703125,7890,399,1827,2,0,1
136482615,-0.49078369140625,-0.4937744140625,0.37908935546875,-0.60968017578125,7908,397,1823,3,0,1
136492598,-0.49053955078125,-0.49383544921875,0.37884521484375,-0.60992431640625,7923,384,1806,2,0,1
136502580,-0.49041748046875,-0.4940185546875,0.378662109375,-0.61004638671875,7925,393,1794,2,0,1
136512562,-0.49029541015625,-0.494140625,0.37835693359375,-0.6102294921875,7911,382,1806,2,0,0
136522546,-0.490234375,-0.4942626953125,0.37811279296875,-0.61029052734375,7904,367,1812,2,0,-1
136532524,-0.49017333984375,-0.49444580078125,0.37786865234375,-0.6103515625,7903,359,1812,2,0,-1
136542507,-0.49017333984375,-0.49456787109375,0.37762451171875,-0.61041259765625,7900,356,1809,1,0,-1
136552490,-0.490234375,-0.4947509765625,0.37738037109375,-0.61041259765625,7884,350,1815,1,0,-1
136562469,-0.490234375,-0.49481201171875,0.37713623046875,-0.61041259765625,7870,337,1822,1,0,-1
136572461,-0.49029541015625,-0.49493408203125,0.376953125,-0.6104736328125,7850,311,1835,1,0,-2
136582443,-0.49041748046875,-0.49505615234375,0.376708984375,-0.61041259765625,7866,309,1836,1,0,-3
136592428,-0.4906005859375,-0.4952392578125,0.37646484375,-0.6102294921875,7863,304,1833,0,-1,-3
136602400,-0.4908447265625,-0.4954833984375,0.37615966796875,-0.61004638671875,7877,314,1832,0,-1,-4
136612384,-0.4910888671875,-0.4957275390625,0.3758544921875,-0.60980224609375,7884,308,1838,0,-1,-5
136622366,-0.4913330078125,-0.49603271484375,0.37554931640625,-0.60955810546875,7880,313,1840,0,-1,-5
136632349,-0.49163818359375,-0.49627685546875,0.375244140625,-0.60931396484375,7876,305,1836,0,-1,-5
136642330,-0.49188232421875,-0.49652099609375,0.37506103515625,-0.6090087890625,7878,313,1837,-1,-1,-4
136652314,-0.49212646484375,-0.4967041015625,0.3748779296875,-0.60882568359375,7887,324,1851,0,-1,-3
136662295,-0.49224853515625,-0.49688720703125,0.374755859375,-0.608642578125,7896,324,1839,-1,-1,-3
136672275,-0.49237060546875,-0.49700927734375,0.374755859375,-0.60845947265625,7903,331,1825,-1,-1,-2
136682264,-0.49249267578125,-0.4970703125,0.37469482421875,-0.60833740234375,7910,334,1817,-1,-1,-2
136692247,-0.4925537109375,-0.49713134765625,0.37469482421875,-0.608154296875,7926,346,1821,-1,-1,-1
136702225,-0.49267578125,-0.4971923828125,0.37469482421875,-0.6080322265625,7931,354,1831,-1,-1,-2
136712216,-0.492919921875,-0.49725341796875,0.3746337890625,-0.60784912109375,7930,359,1841,-2,-1,-3
136722200,-0.49322509765625,-0.49737548828125,0.37457275390625,-0.6075439453125,7935,368,1841,-2,-1,-4
136732176,-0.49359130859375,-0.49749755859375,0.3743896484375,-0.60723876953125,7954,383,1839,-2,-1,-4
136742151,-0.4940185546875,-0.4976806640625,0.374267578125,-0.60687255859375,7956,390,1836,-2,-1,-5
136752142,-0.4945068359375,-0.497802734375,0.37408447265625,-0.60650634765625,7964,401,1829,-2,0,-5
136762120,-0.49505615234375,-0.49786376953125,0.3739013671875,-0.6060791015625,7974,412,1838,-3,0,-5
136772101,-0.49554443359375,-0.4979248046875,0.373779296875,-0.605712890625,7969,423,1827,-3,0,-5
136782085,-0.49603271484375,-0.4979248046875,0.37371826171875,-0.60528564453125,7956,429,1835,-3,0,-4
136792066,-0.49652099609375,-0.4979248046875,0.37371826171875,-0.60491943359375,7953,418,1838,-4,-1,-4
136802046,-0.49700927734375,-0.4979248046875,0.37371826171875,-0.60455322265625,7944,414,1845,-3,-1,-4
136812031,-0.4974365234375,-0.4979248046875,0.37371826171875,-0.6041259765625,7936,412,1840,-4,-1,-4
136822018,-0.4979248046875,-0.4979248046875,0.37384033203125,-0.60369873046875,7922,406,1842,-4,-1,-4
136831995,-0.49835205078125,-0.4979248046875,0.3739013671875,-0.603271484375,7919,402,1827,-4,-1,-4
136841977,-0.49884033203125,-0.49798583984375,0.37396240234375,-0.60284423828125,7925,395,1831,-4,-2,-4
136851959,-0.499267578125,-0.49798583984375,0.3740234375,-0.6024169921875,7939,390,1830,-4,-1,-5
136861940,-0.499755859375,-0.49798583984375,0.3741455078125,-0.6019287109375,7952,409,1840,-4,-2,-4
136871923,-0.50018310546875,-0.4979248046875,0.374267578125,-0.6015625,7946,410,1840,-4,-1,-3
136881912,-0.50054931640625,-0.49786376953125,0.37451171875,-0.6011962890625,7921,402,1845,-4,-2,-3
136891889,-0.5008544921875,-0.49774169921875,0.374755859375,-0.600830078125,7919,398,1860,-4,-2,-2
136901871,-0.50115966796875,-0.49761962890625,0.375,-0.60052490234375,7911,385,1866,-4,-1,-2
136911853,-0.50146484375,-0.49749755859375,0.375244140625,-0.6002197265625,7917,370,1871,-4,-2,-2
136921836,-0.5018310546875,-0.4974365234375,0.37542724609375,-0.599853515625,7935,354,1873,-4,-2,-3
136931820,-0.502197265625,-0.4974365234375,0.3756103515625,-0.59942626953125,7956,329,1868,-4,-2,-4
136941802,-0.502685546875,-0.49755859375,0.375732421875,-0.59893798828125,7983,326,1860,-4,-2,-5
136951784,-0.503173828125,-0.49761962890625,0.37579345703125,-0.598388671875,8006,326,1856,-4,-2,-5
136961768,-0.503662109375,-0.4976806640625,0.3758544921875,-0.597900390625,8019,329,1836,-4,-2,-5
136971749,-0.5040283203125,-0.4976806640625,0.37603759765625,-0.59747314453125,8022,330,1818,-4,-1,-4
136981730,-0.50433349609375,-0.49755859375,0.376220703125,-0.59710693359375,8013,328,1811,-4,-1,-2
136991713,-0.50457763671875,-0.4974365234375,0.37652587890625,-0.596923828125,8001,321,1796,-4,-1,-1
137001699,-0.50469970703125,-0.4971923828125,0.3768310546875,-0.5968017578125,7982,314,1795,-4,-1,0
137011680,-0.50482177734375,-0.49688720703125,0.37713623046875,-0.5966796875,7963,299,1791,-4,-1,0
137021663,-0.50494384765625,-0.4967041015625,0.37744140625,-0.59661865234375,7931,293,1770,-3,-1,0
137031645,-0.505126953125,-0.49658203125,0.377685546875,-0.59637451171875,7928,277,1754,-3,-1,-2
137041624,-0.50537109375,-0.49652099609375,0.37786865234375,-0.59613037109375,7905,261,1741,-3,-1,-3
137051607,-0.50567626953125,-0.4964599609375,0.37799072265625,-0.5958251953125,7878,248,1742,-3,-1,-4
137061590,-0.5059814453125,-0.49652099609375,0.3780517578125,-0.595458984375,7837,236,1737,-3,-2,-5
137071577,-0.50628662109375,-0.49664306640625,0.37811279296875,-0.5950927734375,7798,222,1719,-2,-2,-4
137081554,-0.50653076171875,-0.49676513671875,0.37823486328125,-0.5947265625,7758,206,1708,-2,-2,-4
137091536,-0.5067138671875,-0.49688720703125,0.37835693359375,-0.59429931640625,7756,191,1685,-2,-3,-4
137101519,-0.5068359375,-0.4970703125,0.37860107421875,-0.59393310546875,7735,179,1676,-2,-3,-3
137111503,-0.5069580078125,-0.497314453125,0.3787841796875,-0.593505859375,7708,176,1665,-2,-4,-4
137121484,-0.50701904296875,-0.49755859375,0.3790283203125,-0.5931396484375,7687,158,1649,-1,-4,-3
137131472,-0.5069580078125,-0.49786376953125,0.37933349609375,-0.59271240234375,7694,153,1628,-2,-5,-2
137141456,-0.50677490234375,-0.4981689453125,0.3797607421875,-0.59234619140625,7715,136,1610,-1,-5,-2
137151437,-0.506591796875,-0.49853515625,0.380126953125,-0.59197998046875,7743,128,1607,-1,-6,-2
137161416,-0.50628662109375,-0.49896240234375,0.38055419921875,-0.59161376953125,7779,110,1616,0,-6,-1
137171395,-0.5059814453125,-0.4993896484375,0.3809814453125,-0.59124755859375,7812,104,1621,0,-7,-2
137181378,-0.505615234375,-0.49993896484375,0.38134765625,-0.5908203125,7865,99,1621,0,-7,-2
137191359,-0.50531005859375,-0.50042724609375,0.3817138671875,-0.59039306640625,7922,105,1619,1,-7,-2
137201342,-0.5048828125,-0.50103759765625,0.38214111328125,-0.59002685546875,7976,86,1620,0,-8,-2
137211327,-0.50445556640625,-0.5015869140625,0.38250732421875,-0.589599609375,8015,55,1620,1,-7,-2
137221307,-0.50408935546875,-0.50213623046875,0.38287353515625,-0.58929443359375,8031,14,1633,1,-7,-2
137231290,-0.50360107421875,-0.502685546875,0.38330078125,-0.58892822265625,8041,-24,1653,1,-8,-2
137241277,-0.50311279296875,-0.5032958984375,0.38372802734375,-0.58856201171875,8046,-58,1668,1,-9,-2
137251260,-0.50250244140625,-0.50390625,0.38421630859375,-0.5882568359375,8042,-104,1706,2,-9,-1
137261249,-0.50177001953125,-0.5045166015625,0.384765625,-0.5880126953125,8048,-175,1747,2,-10,0
137271223,-0.50091552734375,-0.50506591796875,0.3853759765625,-0.58782958984375,8069,-235,1793,2,-11,1
137281213,-0.49993896484375,-0.50555419921875,0.38623046875,-0.58770751953125,8092,-294,1823,2,-12,3
137291197,-0.49871826171875,-0.50604248046875,0.38720703125,-0.587646484375,8100,-336,1831,2,-12,5
137301173,-0.497314453125,-0.50640869140625,0.38848876953125,-0.58770751953125,8105,-383,1815,2,-13,8
137311150,-0.49560546875,-0.50665283203125,0.38995361328125,-0.58795166015625,8116,-410,1796,2,-13,12
137321133,-0.49359130859375,-0.50677490234375,0.39178466796875,-0.58831787109375,8146,-435,1773,1,-14,16
137331116,-0.4913330078125,-0.5067138671875,0.39385986328125,-0.5888671875,8212,-480,1747,1,-15,19
137341098,-0.48895263671875,-0.50653076171875,0.3961181640625,-0.5894775390625,8301,-531,1709,0,-15,20
137351085,-0.4864501953125,-0.50628662109375,0.39862060546875,-0.590087890625,8421,-585,1694,-1,-15,22
137361062,-0.48388671875,-0.50592041015625,0.4012451171875,-0.59075927734375,8571,-644,1704,-2,-16,24
137371043,-0.481201171875,-0.50531005859375,0.4041748046875,-0.5914306640625,8795,-713,1732,-3,-16,26
137381031,-0.4783935546875,-0.50439453125,0.40740966796875,-0.59228515625,9069,-812,1764,-5,-16,30
137391013,-0.475341796875,-0.5030517578125,0.41119384765625,-0.59332275390625,9380,-933,1781,-8,-16,36
137400991,-0.47186279296875,-0.5010986328125,0.41558837890625,-0.5946044921875,9698,-1066,1793,-11,-15,44
137410975,-0.46783447265625,-0.49835205078125,0.42083740234375,-0.596435546875,9959,-1203,1748,-14,-14,56
137420958,-0.46282958984375,-0.49456787109375,0.42718505859375,-0.59893798828125,10152,-1334,1704,-17,-13,72
137430941,-0.45684814453125,-0.48944091796875,0.43475341796875,-0.60235595703125,10323,-1484,1685,-21,-11,91
137440923,-0.44976806640625,-0.48291015625,0.443359375,-0.60662841796875,10474,-1651,1694,-24,-8,109
137450905,-0.44183349609375,-0.4749755859375,0.45294189453125,-0.61163330078125,10609,-1872,1716,-28,-6,124
137460887,-0.433349609375,-0.4659423828125,0.46307373046875,-0.61700439453125,10782,-2133,1735,-32,-3,133
137470876,-0.42474365234375,-0.45599365234375,0.47357177734375,-0.62249755859375,11019,-2437,1738,-35,1,137
137480854,-0.41632080078125,-0.4454345703125,0.48406982421875,-0.627685546875,11271,-2772,1720,-40,5,138
137490839,-0.408447265625,-0.43426513671875,0.494384765625,-0.63262939453125,11535,-3098,1664,-44,9,136
137500821,-0.4010009765625,-0.422607421875,0.50457763671875,-0.63726806640625,11747,-3437,1592,-48,15,135
137510801,-0.3936767578125,-0.41009521484375,0.5147705078125,-0.64178466796875,11873,-3773,1540,-51,20,140
137520792,-0.3861083984375,-0.39630126953125,0.52520751953125,-0.6466064453125,11936,-4120,1504,-54,25,150
137530778,-0.37786865234375,-0.381103515625,0.53594970703125,-0.65179443359375,11943,-4477,1481,-56,30,163
137540752,-0.36871337890625,-0.36444091796875,0.54693603515625,-0.65740966796875,11888,-4828,1452,-58,35,177
137550734,-0.358642578125,-0.34625244140625,0.55810546875,-0.663330078125,11763,-5170,1423,-59,39,191
137560717,-0.3477783203125,-0.32672119140625,0.56927490234375,-0.66949462890625,11586,-5501,1416,-59,43,202
137570700,-0.336181640625,-0.305908203125,0.58026123046875,-0.67584228515625,11346,-5807,1422,-59,48,213
137580684,-0.3238525390625,-0.28399658203125,0.5908203125,-0.68218994140625,11106,-6116,1427,-58,51,222
137590670,-0.31109619140625,-0.26129150390625,0.6009521484375,-0.6883544921875,10926,-6459,1411,-57,54,226
137600647,-0.2982177734375,-0.23828125,0.6103515625,-0.69415283203125,10766,-6840,1375,-55,57,226
137610629,-0.28558349609375,-0.21514892578125,0.6190185546875,-0.69927978515625,10573,-7197,1341,-55,60,223
137620615,-0.2730712890625,-0.19195556640625,0.62689208984375,-0.70404052734375,10262,-7534,1338,-53,62,222
137630598,-0.26031494140625,-0.1683349609375,0.63409423828125,-0.70843505859375,9851,-7820,1365,-51,63,225
137640579,-0.24688720703125,-0.14404296875,0.640625,-0.71270751953125,9385,-8066,1407,-49,64,233
137650565,-0.2322998046875,-0.11895751953125,0.64654541015625,-0.71685791015625,8850,-8286,1469,-47,64,243
137660548,-0.2164306640625,-0.0928955078125,0.65179443359375,-0.720947265625,8272,-8495,1521,-44,63,255
137670530,-0.19927978515625,-0.066162109375,0.65618896484375,-0.72479248046875,7664,-8660,1560,-41,61,266
137680513,-0.1807861328125,-0.0386962890625,0.65972900390625,-0.7283935546875,6994,-8781,1589,-38,59,276
137690495,-0.16107177734375,-0.0108642578125,0.66229248046875,-0.731689453125,6273,-8839,1615,-34,56,283
137700474,-0.14031982421875,0.01715087890625,0.66375732421875,-0.7344970703125,5550,-8864,1643,-31,53,290
137710467,-0.11871337890625,0.0450439453125,0.6641845703125,-0.73675537109375,4845,-8837,1669,-27,48,292
137720447,-0.09661865234375,0.0723876953125,0.6634521484375,-0.7384033203125,4150,-8778,1694,-25,44,291
137730429,-0.074462890625,0.09881591796875,0.66180419921875,-0.7393798828125,3509,-8724,1707,-22,40,285
137740405,-0.052734375,0.12396240234375,0.65936279296875,-0.73968505859375,2943,-8637,1713,-20,35,277
137750389,-0.031494140625,0.1478271484375,0.65618896484375,-0.73931884765625,2420,-8538,1712,-18,31,266
137760370,-0.0108642578125,0.17022705078125,0.65240478515625,-0.7384033203125,1956,-8386,1672,-16,27,257
137770353,0.0091552734375,0.19140625,0.648193359375,-0.7369384765625,1549,-8155,1609,-15,24,247
137780335,0.02880859375,0.2115478515625,0.6435546875,-0.73504638671875,1199,-7891,1521,-14,20,243
137790317,0.04833984375,0.23095703125,0.638427734375,-0.73260498046875,861,-7565,1398,-13,18,239
137800301,0.06787109375,0.24993896484375,0.63287353515625,-0.72967529296875,514,-7185,1257,-13,16,237
137810280,0.08746337890625,0.26849365234375,0.62677001953125,-0.7261962890625,164,-6777,1111,-13,13,236
137820271,0.1068115234375,0.28643798828125,0.620361328125,-0.7222900390625,-184,-6369,999,-13,11,231
137830254,0.12567138671875,0.30340576171875,0.6136474609375,-0.718017578125,-488,-5989,901,-13,9,222
137840240,0.1436767578125,0.31915283203125,0.60699462890625,-0.71343994140625,-715,-5655,804,-13,7,210
137850225,0.1605224609375,0.33349609375,0.6004638671875,-0.70880126953125,-903,-5375,723,-14,5,197
137860211,0.17645263671875,0.34661865234375,0.59423828125,-0.7039794921875,-1066,-5106,649,-14,3,185
137870187,0.191650390625,0.3587646484375,0.58807373046875,-0.6990966796875,-1189,-4826,572,-15,1,177
137880160,0.20648193359375,0.3702392578125,0.5819091796875,-0.6939697265625,-1305,-4535,483,-16,-1,172
137890138,0.22100830078125,0.38128662109375,0.57574462890625,-0.688720703125,-1382,-4240,406,-16,-1,169
137900120,0.2354736328125,0.3919677734375,0.56939697265625,-0.68310546875,-1453,-3930,320,-17,-2,168
137910102,0.2498779296875,0.40252685546875,0.56292724609375,-0.67718505859375,-1552,-3590,229,-17,-2,167
137920086,0.26422119140625,0.4129638671875,0.5562744140625,-0.67095947265625,-1675,-3258,139,-18,-2,166
137930068,0.27838134765625,0.42333984375,0.54937744140625,-0.66436767578125,-1790,-2935,60,-18,-2,165
137940058,0.2921142578125,0.43341064453125,0.54254150390625,-0.65765380859375,-1876,-2610,-10,-17,0,160
137950035,0.30511474609375,0.443115234375,0.5357666015625,-0.6507568359375,-1959,-2268,-98,-17,1,153
137960022,0.3172607421875,0.45233154296875,0.52923583984375,-0.64385986328125,-2073,-1923,-176,-16,3,144
137969999,0.328369140625,0.4610595703125,0.52313232421875,-0.63714599609375,-2219,-1565,-228,-15,5,132
137979981,0.3382568359375,0.46905517578125,0.51751708984375,-0.630615234375,-2425,-1195,-240,-14,7,119
137989969,0.34686279296875,0.4764404296875,0.51251220703125,-0.62451171875,-2665,-804,-256,-13,10,103
137999952,0.35406494140625,0.48297119140625,0.50823974609375,-0.618896484375,-2926,-401,-267,-11,12,86
138009934,0.35980224609375,0.48870849609375,0.50482177734375,-0.6138916015625,-3216,5,-281,-9,14,69
138019915,0.3641357421875,0.49365234375,0.50213623046875,-0.60955810546875,-3556,421,-261,-7,15,52
138029898,0.36724853515625,0.49774169921875,0.50006103515625,-0.60601806640625,-3969,847,-195,-4,15,35
138039875,0.36920166015625,0.5010986328125,0.49859619140625,-0.603271484375,-4417,1294,-121,-2,15,20
138049860,0.37030029296875,0.5037841796875,0.4974365234375,-0.601318359375,-4879,1768,-19,1,13,7
138059838,0.37042236328125,0.50579833984375,0.49664306640625,-0.6002197265625,-5344,2221,66,5,12,-5
138069818,0.37005615234375,0.50732421875,0.49591064453125,-0.59979248046875,-5800,2670,157,8,9,-14
138079804,0.3692626953125,0.508544921875,0.4949951171875,-0.59991455078125,-6258,3088,233,12,7,-19
138089787,0.368408203125,0.5096435546875,0.4937744140625,-0.60052490234375,-6698,3475,292,16,3,-21
138099759,0.36761474609375,0.5106201171875,0.49212646484375,-0.60162353515625,-7085,3790,346,19,-1,-22
138109737,0.36663818359375,0.51123046875,0.49017333984375,-0.60321044921875,-7397,4030,359,22,-5,-25
138119721,0.365234375,0.51141357421875,0.48828125,-0.60552978515625,-7606,4185,363,25,-9,-33
138129705,0.36297607421875,0.5107421875,0.4866943359375,-0.60870361328125,-7668,4245,338,28,-13,-44
138139688,0.35955810546875,0.5089111328125,0.48583984375,-0.6129150390625,-7629,4244,291,30,-16,-62
138149670,0.3544921875,0.5057373046875,0.486083984375,-0.61822509765625,-7501,4173,199,32,-19,-83
138159652,0.34771728515625,0.50115966796875,0.487548828125,-0.6246337890625,-7264,4030,92,33,-21,-105
138169636,0.33905029296875,0.49505615234375,0.49029541015625,-0.632080078125,-6953,3797,-18,34,-21,-127
138179620,0.32855224609375,0.48760986328125,0.4942626953125,-0.6402587890625,-6577,3500,-119,34,-21,-146
138189602,0.31640625,0.4788818359375,0.499267578125,-0.6490478515625,-6174,3190,-205,35,-21,-163
138199585,0.3028564453125,0.46917724609375,0.50494384765625,-0.65814208984375,-5742,2827,-265,35,-20,-176
138209567,0.2882080078125,0.45855712890625,0.51104736328125,-0.66741943359375,-5289,2449,-304,35,-20,-185
138219549,0.27276611328125,0.44732666015625,0.517333984375,-0.67657470703125,-4830,2057,-335,36,-19,-189
138229533,0.25677490234375,0.4356689453125,0.52374267578125,-0.685546875,-4372,1669,-322,35,-18,-192
138239514,0.240234375,0.4234619140625,0.5301513671875,-0.6942138671875,-3926,1268,-294,35,-17,-195
138249497,0.22308349609375,0.41070556640625,0.53662109375,-0.70257568359375,-3518,862,-265,34,-16,-199
138259483,0.20538330078125,0.39727783203125,0.54315185546875,-0.7105712890625,-3148,466,-211,33,-16,-204
138269467,0.18707275390625,0.3831787109375,0.54974365234375,-0.71832275390625,-2823,73,-154,32,-16,-208
138279453,0.16815185546875,0.36834716796875,0.5562744140625,-0.72564697265625,-2518,-318,-67,31,-16,-213
138289436,0.1488037109375,0.35284423828125,0.56268310546875,-0.73260498046875,-2214,-710,19,31,-17,-216
138299412,0.12884521484375,0.33660888671875,0.5689697265625,-0.73919677734375,-1920,-1096,122,30,-18,-222
138309394,0.10845947265625,0.31939697265625,0.57501220703125,-0.745361328125,-1637,-1462,233,30,-20,-226
138319376,0.08770751953125,0.301513671875,0.58074951171875,-0.7510986328125,-1383,-1806,372,29,-22,-229
138329358,0.06695556640625,0.28289794921875,0.5860595703125,-0.75634765625,-1137,-2142,543,29,-24,-230
138339341,0.04632568359375,0.263671875,0.5908203125,-0.76104736328125,-854,-2499,717,28,-28,-229
138349327,0.0260009765625,0.24407958984375,0.594970703125,-0.76531982421875,-538,-2879,859,29,-31,-225
138359307,0.00628662109375,0.2242431640625,0.59844970703125,-0.76910400390625,-206,-3273,1006,30,-34,-219
138369290,-0.01251220703125,0.20440673828125,0.60107421875,-0.77252197265625,173,-3689,1184,32,-37,-210
138379278,-0.0306396484375,0.1844482421875,0.6029052734375,-0.77557373046875,635,-4101,1381,34,-41,-204
138389259,-0.04833984375,0.1640625,0.60406494140625,-0.77838134765625,1148,-4492,1583,35,-44,-202
138399245,-0.06622314453125,0.1429443359375,0.60479736328125,-0.7806396484375,1654,-4764,1705,36,-47,-206
138409224,-0.08447265625,0.12115478515625,0.60516357421875,-0.78228759765625,2140,-4948,1780,35,-48,-211
138419215,-0.102783203125,0.09906005859375,0.605224609375,-0.78314208984375,2621,-5121,1837,35,-48,-212
138429200,-0.1207275390625,0.0770263671875,0.60479736328125,-0.783447265625,3074,-5300,1916,35,-49,-208
138439176,-0.137939453125,0.05535888671875,0.60369873046875,-0.78326416015625,3575,-5531,2012,37,-49,-199
138449151,-0.15435791015625,0.03411865234375,0.601806640625,-0.7828369140625,4204,-5860,2133,39,-48,-192
138459133,-0.1708984375,0.01263427734375,0.59942626953125,-0.78192138671875,4925,-6199,2234,41,-47,-195
138469116,-0.18841552734375,-0.009521484375,0.596435546875,-0.7801513671875,5540,-6418,2330,41,-46,-207
138479098,-0.2071533203125,-0.0323486328125,0.593017578125,-0.7774658203125,5977,-6431,2427,40,-44,-221
138489085,-0.2264404296875,-0.05548095703125,0.5892333984375,-0.77362060546875,6279,-6307,2524,36,-44,-226
138499065,-0.24505615234375,-0.078125,0.585205078125,-0.76904296875,6508,-6116,2637,33,-45,-220
138509046,-0.26190185546875,-0.09954833984375,0.5810546875,-0.76416015625,6715,-5938,2740,30,-47,-202
138519030,-0.27618408203125,-0.11932373046875,0.5770263671875,-0.75927734375,7154,-5891,2844,29,-48,-177
138529016,-0.28863525390625,-0.13775634765625,0.5731201171875,-0.7545166015625,7936,-6059,2923,28,-48,-160
138538994,-0.3006591796875,-0.1558837890625,0.56927490234375,-0.7491455078125,8833,-6341,3003,26,-46,-160
138548976,-0.313720703125,-0.17437744140625,0.565185546875,-0.74285888671875,9712,-6599,3055,22,-44,-174
138558958,-0.32855224609375,-0.19366455078125,0.5606689453125,-0.7349853515625,10445,-6749,3091,17,-41,-195
138568940,-0.3448486328125,-0.21331787109375,0.55584716796875,-0.7257080078125,10880,-6761,3095,12,-40,-209
138578923,-0.36102294921875,-0.23236083984375,0.551025390625,-0.71563720703125,10997,-6666,3050,6,-39,-208
138588905,-0.37548828125,-0.24951171875,0.54669189453125,-0.70562744140625,10891,-6471,3037,2,-39,-186
138598885,-0.3870849609375,-0.26416015625,0.5433349609375,-0.69659423828125,10782,-6287,3046,-1,-40,-154
138608865,-0.39556884765625,-0.27630615234375,0.54107666015625,-0.68878173828125,10848,-6215,3023,-3,-40,-120
138618848,-0.40185546875,-0.28631591796875,0.53985595703125,-0.68206787109375,11071,-6303,3033,-6,-38,-97
138628831,-0.4072265625,-0.2950439453125,0.53912353515625,-0.6756591796875,11341,-6464,3051,-9,-36,-90
138638809,-0.41290283203125,-0.3033447265625,0.53851318359375,-0.6689453125,11532,-6599,3044,-13,-34,-94
138648802,-0.41937255859375,-0.31158447265625,0.53778076171875,-0.6617431640625,11565,-6643,3025,-16,-31,-102
138658784,-0.42626953125,-0.31951904296875,0.536865234375,-0.65423583984375,11403,-6631,2991,-19,-29,-105
138668766,-0.43304443359375,-0.3267822265625,0.5360107421875,-0.6468505859375,11124,-6588,2962,-21,-27,-100
138678742,-0.43902587890625,-0.3330078125,0.5355224609375,-0.6400146484375,10882,-6541,2958,-21,-25,-88
138688726,-0.44403076171875,-0.33819580078125,0.53546142578125,-0.6339111328125,10750,-6517,2916,-21,-24,-76
138698707,-0.44830322265625,-0.34259033203125,0.53570556640625,-0.6282958984375,10695,-6529,2847,-21,-22,-67
138708689,-0.4522705078125,-0.3463134765625,0.53607177734375,-0.623046875,10655,-6545,2779,-21,-19,-64
138718672,-0.4564208984375,-0.349609375,0.5362548828125,-0.61798095703125,10618,-6525,2702,-22,-15,-64
138728654,-0.46087646484375,-0.3526611328125,0.53631591796875,-0.6129150390625,10528,-6479,2643,-23,-12,-65
138738637,-0.46551513671875,-0.3553466796875,0.53607177734375,-0.60797119140625,10353,-6404,2582,-23,-8,-65
138748619,-0.47015380859375,-0.3575439453125,0.53582763671875,-0.60333251953125,10127,-6315,2532,-23,-5,-61
138758602,-0.474365234375,-0.359130859375,0.53570556640625,-0.5992431640625,9890,-6202,2481,-23,-3,-53
138768580,-0.4779052734375,-0.35992431640625,0.5357666015625,-0.59588623046875,9667,-6068,2423,-22,-1,-42
138778567,-0.480712890625,-0.3599853515625,0.5361328125,-0.59326171875,9475,-5927,2365,-20,1,-32
138788547,-0.48284912109375,-0.359375,0.53668212890625,-0.59136962890625,9308,-5811,2294,-19,2,-22
138798530,-0.48455810546875,-0.3583984375,0.53729248046875,-0.59002685546875,9160,-5675,2230,-17,4,-16
138808512,-0.4859619140625,-0.35711669921875,0.53790283203125,-0.58905029296875,9044,-5531,2131,-15,6,-13
138818493,-0.48736572265625,-0.35577392578125,0.53839111328125,-0.58831787109375,8907,-5372,2023,-14,7,-12
138828483,-0.48870849609375,-0.35455322265625,0.5386962890625,-0.587646484375,8734,-5220,1916,-12,8,-12
138838465,-0.49017333984375,-0.3533935546875,0.538818359375,-0.58697509765625,8565,-5057,1840,-11,9,-14
138848448,-0.49169921875,-0.3525390625,0.5386962890625,-0.58636474609375,8404,-4894,1760,-9,8,-15
138858430,-0.4932861328125,-0.35198974609375,0.53839111328125,-0.585693359375,8286,-4714,1674,-7,8,-17
138868407,-0.494873046875,-0.3516845703125,0.53790283203125,-0.58489990234375,8201,-4527,1604,-6,7,-18
138878388,-0.4964599609375,-0.3516845703125,0.53729248046875,-0.5841064453125,8134,-4330,1534,-4,7,-19
138888370,-0.498046875,-0.35186767578125,0.53662109375,-0.5833740234375,8069,-4138,1472,-3,7,-19
138898354,-0.49945068359375,-0.35211181640625,0.53582763671875,-0.58270263671875,8005,-3942,1415,-1,7,-17
138908340,-0.500732421875,-0.35235595703125,0.53497314453125,-0.58221435546875,7959,-3766,1350,0,7,-16
138918327,-0.501953125,-0.3525390625,0.5341796875,-0.581787109375,7905,-3589,1307,1,7,-14
138928302,-0.5029296875,-0.35272216796875,0.53338623046875,-0.58160400390625,7865,-3434,1271,1,7,-11
138938290,-0.503662109375,-0.35272216796875,0.5325927734375,-0.58160400390625,7830,-3271,1250,2,7,-8
138948273,-0.50421142578125,-0.3526611328125,0.53192138671875,-0.58184814453125,7823,-3131,1221,3,7,-5
138958256,-0.5045166015625,-0.35247802734375,0.53131103515625,-0.582275390625,7808,-2993,1191,4,7,-2
138968244,-0.504638671875,-0.3521728515625,0.53076171875,-0.5828857421875,7782,-2878,1151,4,7,0
138978225,-0.50457763671875,-0.35174560546875,0.53021240234375,-0.5836181640625,7749,-2764,1133,5,7,2
138988208,-0.50457763671875,-0.35150146484375,0.52960205078125,-0.58428955078125,7713,-2658,1122,5,7,1
138998194,-0.5047607421875,-0.351318359375,0.52886962890625,-0.58489990234375,7659,-2556,1125,5,7,-2
139008160,-0.50518798828125,-0.3514404296875,0.5279541015625,-0.5853271484375,7627,-2472,1128,5,7,-6
139018146,-0.505859375,-0.35186767578125,0.52691650390625,-0.58544921875,7609,-2374,1123,6,7,-9
139028126,-0.50677490234375,-0.35247802734375,0.52569580078125,-0.58538818359375,7625,-2298,1120,5,7,-12
139038108,-0.5078125,-0.353271484375,0.5244140625,-0.58514404296875,7632,-2211,1111,5,7,-13
139048091,-0.5089111328125,-0.35406494140625,0.52313232421875,-0.5848388671875,7628,-2136,1110,5,7,-13
139058074,-0.5098876953125,-0.354736328125,0.52191162109375,-0.58465576171875,7619,-2075,1122,5,7,-12
139068056,-0.5107421875,-0.3553466796875,0.52081298828125,-0.58453369140625,7605,-2032,1131,4,6,-10
139078037,-0.511474609375,-0.35577392578125,0.5198974609375,-0.58447265625,7568,-2004,1140,4,6,-9
139088028,-0.51202392578125,-0.356201171875,0.51904296875,-0.58447265625,7536,-1989,1167,4,5,-7
139098010,-0.51251220703125,-0.35662841796875,0.51824951171875,-0.58453369140625,7500,-1963,1205,4,4,-7
139107987,-0.51287841796875,-0.3570556640625,0.51751708984375,-0.58453369140625,7469,-1933,1239,4,3,-7
139117967,-0.51324462890625,-0.357666015625,0.516845703125,-0.58441162109375,7468,-1904,1269,4,2,-7
139127949,-0.5135498046875,-0.3583984375,0.5162353515625,-0.58428955078125,7475,-1876,1299,4,1,-7
139137934,-0.5137939453125,-0.359130859375,0.515625,-0.5841064453125,7482,-1862,1334,4,-1,-7
139147914,-0.51397705078125,-0.3599853515625,0.51507568359375,-0.58392333984375,7484,-1839,1350,5,-1,-8
139157896,-0.51422119140625,-0.3609619140625,0.5145263671875,-0.5836181640625,7481,-1828,1372,5,-2,-9
139167878,-0.5145263671875,-0.3619384765625,0.513916015625,-0.583251953125,7481,-1817,1409,4,-3,-10
139177861,-0.514892578125,-0.36309814453125,0.51324462890625,-0.58282470703125,7495,-1813,1459,5,-3,-11
139187844,-0.5152587890625,-0.3643798828125,0.51251220703125,-0.582275390625,7516,-1810,1477,5,-3,-13
139197826,-0.51568603515625,-0.36578369140625,0.51177978515625,-0.58172607421875,7519,-1795,1499,5,-4,-13
139207806,-0.51611328125,-0.36712646484375,0.51104736328125,-0.5811767578125,7531,-1790,1523,5,-3,-13
