subject,Peter Cope
arm,left
label,3
hz,100.17528078923588
time,5.779869

timestamp_us,q0,q1,q2,q3,ax,ay,az,gx,gy,gz
99522405,0.74896240234375,-0.01910400390625,0.66168212890625,-0.0272216796875,-8139,-550,1026,0,-1,0
99532381,0.7490234375,-0.01904296875,0.66162109375,-0.02728271484375,-8123,-545,1023,0,-1,-1
99542362,0.74908447265625,-0.01904296875,0.66156005859375,-0.02740478515625,-8098,-535,1023,1,-1,-1
99552350,0.7491455078125,-0.01904296875,0.6614990234375,-0.02752685546875,-8085,-520,1026,0,-1,-2
99562326,0.74920654296875,-0.01910400390625,0.66143798828125,-0.02777099609375,-8071,-522,1035,0,-1,-2
99572316,0.74920654296875,-0.0191650390625,0.66143798828125,-0.02801513671875,-8061,-517,1030,0,0,-2
99582293,0.7491455078125,-0.019287109375,0.66143798828125,-0.0281982421875,-8054,-511,1039,0,0,-2
99592275,0.7491455078125,-0.01934814453125,0.6614990234375,-0.02838134765625,-8063,-503,1030,0,0,-2
99602260,0.74908447265625,-0.01934814453125,0.66156005859375,-0.0284423828125,-8077,-491,1031,-1,0,-1
99612245,0.7490234375,-0.01934814453125,0.66162109375,-0.02838134765625,-8096,-481,1026,-1,0,0
99622232,0.74896240234375,-0.019287109375,0.66162109375,-0.0283203125,-8105,-478,1017,-1,0,0
99632213,0.74896240234375,-0.01922607421875,0.66168212890625,-0.02813720703125,-8124,-476,1011,-1,0,1
99642192,0.7489013671875,-0.0191650390625,0.6617431640625,-0.0279541015625,-8142,-473,1014,-1,0,1
99652184,0.7489013671875,-0.0191650390625,0.6617431640625,-0.02783203125,-8151,-475,1027,-2,0,0
99662174,0.7489013671875,-0.019287109375,0.6617431640625,-0.0277099609375,-8151,-470,1031,-2,0,-1
99672141,0.7489013671875,-0.0194091796875,0.66180419921875,-0.027587890625,-8148,-469,1028,-2,0,-1
99682119,0.7489013671875,-0.01959228515625,0.6617431640625,-0.02752685546875,-8144,-476,1032,-2,-1,-1
99692101,0.7489013671875,-0.019775390625,0.6617431640625,-0.02752685546875,-8139,-486,1014,-2,0,-2
99702083,0.7489013671875,-0.01995849609375,0.6617431640625,-0.0274658203125,-8137,-501,1020,-2,-1,-1
99712062,0.74884033203125,-0.02020263671875,0.66180419921875,-0.0274658203125,-8134,-510,992,-2,-1,-2
99722051,0.74884033203125,-0.0203857421875,0.66180419921875,-0.02740478515625,-8142,-511,990,-2,-1,-2
99732028,0.74884033203125,-0.02056884765625,0.6617431640625,-0.02740478515625,-8135,-523,1000,-2,-1,-2
99742010,0.7489013671875,-0.020751953125,0.6617431640625,-0.02740478515625,-8127,-519,1002,-2,-1,-1
99751996,0.7489013671875,-0.02093505859375,0.6617431640625,-0.02740478515625,-8119,-533,996,-1,-1,-1
99761982,0.7489013671875,-0.0211181640625,0.66168212890625,-0.02734375,-8100,-531,986,-2,-1,-1
99771956,0.74896240234375,-0.02117919921875,0.66168212890625,-0.02728271484375,-8088,-530,986,-1,-1,-1
99781942,0.74896240234375,-0.02130126953125,0.66168212890625,-0.02728271484375,-8092,-547,987,-1,-1,-1
99791934,0.7489013671875,-0.02142333984375,0.66168212890625,-0.02716064453125,-8084,-552,981,-1,0,0
99801909,0.74884033203125,-0.021484375,0.6617431640625,-0.027099609375,-8073,-564,982,-2,0,0
99811895,0.748779296875,-0.02154541015625,0.66180419921875,-0.02703857421875,-8083,-563,991,-1,0,-1
99821878,0.74871826171875,-0.02166748046875,0.66192626953125,-0.02703857421875,-8096,-557,984,-1,1,-1
99831854,0.7486572265625,-0.02178955078125,0.6619873046875,-0.027099609375,-8109,-556,993,-1,0,-2
99841838,0.74853515625,-0.02197265625,0.662109375,-0.0272216796875,-8110,-560,989,-1,0,-2
99851820,0.74847412109375,-0.0220947265625,0.66217041015625,-0.02728271484375,-8119,-564,996,-1,0,-2
99861800,0.7484130859375,-0.02215576171875,0.6622314453125,-0.02734375,-8115,-561,1000,-1,0,-1
99871788,0.74835205078125,-0.02215576171875,0.66229248046875,-0.02728271484375,-8133,-549,997,-1,0,0
99881766,0.74835205078125,-0.02203369140625,0.662353515625,-0.02716064453125,-8151,-558,991,-1,0,1
99891758,0.748291015625,-0.02191162109375,0.662353515625,-0.0269775390625,-8181,-559,990,-1,0,1
99901744,0.748291015625,-0.02178955078125,0.66241455078125,-0.02685546875,-8174,-568,991,0,0,1
99911720,0.74822998046875,-0.021728515625,0.6624755859375,-0.02679443359375,-8177,-567,986,-1,0,0
99921706,0.74822998046875,-0.02166748046875,0.66253662109375,-0.02679443359375,-8178,-566,996,0,0,-1
99931679,0.74822998046875,-0.021728515625,0.6624755859375,-0.02685546875,-8165,-561,1007,0,0,-1
99941668,0.74822998046875,-0.02178955078125,0.6624755859375,-0.02691650390625,-8171,-564,1024,-1,-1,-1
99951650,0.74822998046875,-0.02178955078125,0.6624755859375,-0.0269775390625,-8185,-560,1033,0,-1,-1
99961635,0.74822998046875,-0.02178955078125,0.6624755859375,-0.02703857421875,-8196,-558,1026,0,0,-1
99971621,0.74822998046875,-0.021728515625,0.6624755859375,-0.027099609375,-8195,-554,1032,0,0,0
99981601,0.748291015625,-0.021728515625,0.66241455078125,-0.027099609375,-8196,-546,1033,0,-1,-1
99991578,0.748291015625,-0.02166748046875,0.66241455078125,-0.02716064453125,-8192,-540,1025,0,-1,-1
100001559,0.74835205078125,-0.02166748046875,0.662353515625,-0.0272216796875,-8178,-534,1018,0,-1,-1
100011542,0.74835205078125,-0.02166748046875,0.66229248046875,-0.02728271484375,-8181,-530,1016,0,-1,-1
100021522,0.7484130859375,-0.021728515625,0.6622314453125,-0.02740478515625,-8177,-537,1015,0,-1,-2
100031504,0.74853515625,-0.02178955078125,0.662109375,-0.02752685546875,-8164,-534,1028,0,-1,-1
100041488,0.74859619140625,-0.02178955078125,0.66204833984375,-0.02752685546875,-8151,-540,1019,-1,-1,-1
100051475,0.7486572265625,-0.021728515625,0.6619873046875,-0.02752685546875,-8142,-538,1017,0,-1,0
100061454,0.74871826171875,-0.021728515625,0.66192626953125,-0.02752685546875,-8126,-533,1016,-1,-1,0
100071435,0.748779296875,-0.021728515625,0.661865234375,-0.02752685546875,-8107,-527,1010,0,-1,0
100084995,0.74884033203125,-0.021728515625,0.66180419921875,-0.02752685546875,-8093,-530,1020,0,-1,-1
100091408,0.74884033203125,-0.021728515625,0.6617431640625,-0.027587890625,-8079,-530,1022,-1,-1,-1
100101397,0.74884033203125,-0.021728515625,0.6617431640625,-0.027587890625,-8080,-548,1028,0,-1,-1
100111372,0.7489013671875,-0.02166748046875,0.6617431640625,-0.02764892578125,-8096,-545,1027,0,-1,0
100121353,0.7489013671875,-0.02154541015625,0.66168212890625,-0.027587890625,-8123,-553,1027,0,-1,0
100131334,0.7489013671875,-0.02142333984375,0.66168212890625,-0.02752685546875,-8122,-546,1019,0,-1,1
100141317,0.7489013671875,-0.021240234375,0.66168212890625,-0.02752685546875,-8134,-546,1001,0,-1,0
100151300,0.7489013671875,-0.02117919921875,0.66168212890625,-0.02752685546875,-8133,-550,1004,0,-1,0
100161279,0.74896240234375,-0.02105712890625,0.66168212890625,-0.027587890625,-8124,-555,1030,0,-1,0
100171264,0.7490234375,-0.02099609375,0.66156005859375,-0.02764892578125,-8130,-559,1041,0,-1,-1
100181240,0.7490234375,-0.02099609375,0.66156005859375,-0.02777099609375,-8123,-560,1053,0,-1,-1
100191231,0.74908447265625,-0.02093505859375,0.6614990234375,-0.02789306640625,-8132,-560,1057,0,-1,-1
100201220,0.7491455078125,-0.0208740234375,0.661376953125,-0.0279541015625,-8134,-545,1079,0,-1,0
100211194,0.74920654296875,-0.020751953125,0.661376953125,-0.0279541015625,-8129,-545,1078,0,-1,0
100221186,0.749267578125,-0.02056884765625,0.66131591796875,-0.0279541015625,-8121,-545,1078,1,-1,1
100231174,0.749267578125,-0.0203857421875,0.6612548828125,-0.02789306640625,-8126,-550,1062,1,-1,1
100241146,0.74932861328125,-0.02008056640625,0.6612548828125,-0.02777099609375,-8121,-546,1044,1,-1,2
100251123,0.74932861328125,-0.0198974609375,0.6612548828125,-0.0277099609375,-8107,-535,1039,0,-1,1
100261104,0.7493896484375,-0.01971435546875,0.66119384765625,-0.02764892578125,-8092,-545,1027,1,-1,0
100271090,0.7493896484375,-0.01959228515625,0.66119384765625,-0.0277099609375,-8070,-536,1032,1,-1,-1
100281065,0.74945068359375,-0.01959228515625,0.6611328125,-0.02789306640625,-8057,-535,1025,0,-1,-2
100291051,0.74945068359375,-0.0196533203125,0.6611328125,-0.028076171875,-8045,-535,1025,0,-1,-3
100301033,0.74945068359375,-0.01971435546875,0.66107177734375,-0.02838134765625,-8029,-544,1017,1,-1,-3
100311021,0.74945068359375,-0.01983642578125,0.66107177734375,-0.02862548828125,-8010,-553,1026,0,-1,-2
100321001,0.74945068359375,-0.0198974609375,0.66107177734375,-0.02880859375,-8010,-550,1024,0,0,-2
100330990,0.7493896484375,-0.0198974609375,0.6611328125,-0.0289306640625,-8017,-565,1016,0,0,-1
100340964,0.749267578125,-0.0198974609375,0.6612548828125,-0.02899169921875,-8007,-574,993,0,1,-1
100350946,0.7491455078125,-0.01983642578125,0.66143798828125,-0.02911376953125,-7986,-586,985,0,1,-1
100360930,0.7490234375,-0.01983642578125,0.66156005859375,-0.02923583984375,-7992,-587,972,0,1,-1
100370912,0.74884033203125,-0.0198974609375,0.6617431640625,-0.0294189453125,-8003,-597,970,1,1,-2
100380893,0.7486572265625,-0.0198974609375,0.66192626953125,-0.0296630859375,-8023,-609,982,1,2,-2
100390878,0.74847412109375,-0.0198974609375,0.662109375,-0.0299072265625,-8042,-616,975,1,2,-2
100400858,0.748291015625,-0.01983642578125,0.662353515625,-0.03009033203125,-8063,-630,986,1,2,-1
100410846,0.74810791015625,-0.01971435546875,0.66253662109375,-0.0302734375,-8082,-642,988,2,2,0
100420827,0.7479248046875,-0.0194091796875,0.6627197265625,-0.03033447265625,-8111,-663,980,2,2,1
100430810,0.74774169921875,-0.01904296875,0.6629638671875,-0.0303955078125,-8130,-684,980,2,2,2
100440791,0.74755859375,-0.0186767578125,0.6632080078125,-0.03045654296875,-8133,-677,980,2,2,2
100450772,0.74737548828125,-0.018310546875,0.66339111328125,-0.03057861328125,-8124,-693,993,2,2,1
100460762,0.7471923828125,-0.01800537109375,0.66357421875,-0.03082275390625,-8105,-699,1006,3,2,0
100470745,0.7470703125,-0.017822265625,0.6636962890625,-0.03118896484375,-8110,-697,1015,3,2,-1
100480719,0.74688720703125,-0.01763916015625,0.66387939453125,-0.03155517578125,-8129,-704,1011,3,2,-1
100490701,0.7467041015625,-0.01739501953125,0.66412353515625,-0.031982421875,-8149,-725,1015,3,2,-1
100500683,0.74652099609375,-0.01715087890625,0.66424560546875,-0.0323486328125,-8165,-715,1031,3,2,-1
100510671,0.74639892578125,-0.01690673828125,0.6644287109375,-0.03265380859375,-8171,-719,1027,3,1,0
100520650,0.74627685546875,-0.01654052734375,0.66448974609375,-0.03302001953125,-8169,-720,1044,4,1,0
100530637,0.7462158203125,-0.0162353515625,0.66461181640625,-0.033447265625,-8156,-728,1070,4,1,-1
100540614,0.74615478515625,-0.01593017578125,0.6646728515625,-0.03399658203125,-8148,-740,1077,4,1,-2
100550593,0.74603271484375,-0.01568603515625,0.66473388671875,-0.03466796875,-8151,-756,1089,5,1,-2
100560576,0.7459716796875,-0.015380859375,0.664794921875,-0.035400390625,-8152,-790,1101,6,1,-3
100570558,0.7459716796875,-0.01507568359375,0.664794921875,-0.0362548828125,-8171,-827,1134,6,1,-2
100580542,0.7459716796875,-0.01458740234375,0.66473388671875,-0.0369873046875,-8189,-862,1158,7,0,-1
100590528,0.7459716796875,-0.01397705078125,0.6646728515625,-0.0377197265625,-8217,-888,1139,8,0,0
100600508,0.7459716796875,-0.01318359375,0.6646728515625,-0.038330078125,-8249,-911,1112,8,0,2
100610494,0.74603271484375,-0.01220703125,0.66461181640625,-0.0389404296875,-8264,-921,1073,9,-1,3
100620471,0.74603271484375,-0.01123046875,0.66455078125,-0.03961181640625,-8238,-923,1040,10,-1,2
100630456,0.74615478515625,-0.01025390625,0.6644287109375,-0.04046630859375,-8201,-908,1026,10,-2,0
100640434,0.74627685546875,-0.00946044921875,0.66424560546875,-0.04156494140625,-8172,-904,1021,11,-2,-2
100650423,0.74639892578125,-0.0087890625,0.66400146484375,-0.04296875,-8142,-906,1035,12,-2,-5
100660406,0.74652099609375,-0.00811767578125,0.66375732421875,-0.04461669921875,-8136,-913,1056,13,-2,-6
100670381,0.7467041015625,-0.00738525390625,0.6634521484375,-0.0462646484375,-8152,-921,1079,13,-2,-5
100680364,0.746826171875,-0.006591796875,0.6632080078125,-0.04791259765625,-8173,-946,1107,14,-2,-4
100690350,0.74700927734375,-0.0054931640625,0.66290283203125,-0.04937744140625,-8195,-976,1104,14,-2,-2
100700333,0.74713134765625,-0.00421142578125,0.66265869140625,-0.0506591796875,-8213,-1021,1094,15,-2,1
100710314,0.74737548828125,-0.00274658203125,0.662353515625,-0.05169677734375,-8210,-1042,1078,15,-3,4
100720295,0.74755859375,-0.0010986328125,0.66204833984375,-0.0526123046875,-8220,-1061,1080,15,-3,5
100730279,0.74786376953125,0.0006103515625,0.66162109375,-0.05352783203125,-8248,-1067,1098,15,-4,5
100740262,0.7481689453125,0.00225830078125,0.66119384765625,-0.054443359375,-8280,-1078,1125,15,-4,5
100750243,0.74859619140625,0.00384521484375,0.66058349609375,-0.055419921875,-8356,-1086,1192,15,-5,4
100760232,0.74920654296875,0.0052490234375,0.65985107421875,-0.0565185546875,-8438,-1110,1278,15,-6,3
100770215,0.74981689453125,0.006591796875,0.6590576171875,-0.05767822265625,-8545,-1126,1383,15,-7,2
100780194,0.75048828125,0.0078125,0.65814208984375,-0.058837890625,-8689,-1153,1463,14,-8,2
100790186,0.751220703125,0.00885009765625,0.65716552734375,-0.0599365234375,-8867,-1174,1554,13,-9,1
100800174,0.7520751953125,0.0096435546875,0.65606689453125,-0.0611572265625,-9059,-1182,1610,11,-10,-2
100810153,0.75299072265625,0.0098876953125,0.6549072265625,-0.0626220703125,-9233,-1188,1630,9,-12,-7
100820121,0.75396728515625,0.0093994140625,0.65362548828125,-0.0645751953125,-9392,-1198,1646,7,-14,-15
100830104,0.7550048828125,0.00787353515625,0.65216064453125,-0.06719970703125,-9551,-1235,1677,5,-16,-25
100840088,0.756103515625,0.005126953125,0.6505126953125,-0.07080078125,-9773,-1326,1736,2,-18,-37
100850068,0.75732421875,0.00103759765625,0.64862060546875,-0.07550048828125,-10081,-1478,1849,0,-21,-51
100860052,0.758544921875,-0.00457763671875,0.64642333984375,-0.081298828125,-10473,-1655,2009,-3,-23,-66
100870032,0.7598876953125,-0.0115966796875,0.64385986328125,-0.088134765625,-10906,-1858,2159,-7,-27,-80
100880014,0.76129150390625,-0.02008056640625,0.64093017578125,-0.095947265625,-11296,-2033,2212,-11,-32,-94
100890000,0.7626953125,-0.030029296875,0.63751220703125,-0.10455322265625,-11601,-2162,2211,-15,-37,-108
100899989,0.76416015625,-0.04156494140625,0.63348388671875,-0.11407470703125,-11784,-2270,2175,-20,-44,-124
100909964,0.765625,-0.0548095703125,0.628662109375,-0.1246337890625,-11864,-2412,2184,-25,-50,-140
100919948,0.76715087890625,-0.0697021484375,0.6229248046875,-0.13616943359375,-11868,-2615,2247,-29,-57,-155
100929932,0.76861572265625,-0.08587646484375,0.6162109375,-0.14837646484375,-11799,-2874,2343,-32,-64,-166
100939915,0.7701416015625,-0.10296630859375,0.6085205078125,-0.16094970703125,-11642,-3191,2444,-35,-71,-172
100949897,0.77166748046875,-0.12054443359375,0.599853515625,-0.1734619140625,-11395,-3527,2550,-36,-78,-173
100959881,0.77325439453125,-0.1380615234375,0.59033203125,-0.185546875,-11068,-3878,2675,-37,-84,-170
100969863,0.7750244140625,-0.1552734375,0.58001708984375,-0.19677734375,-10744,-4248,2843,-37,-89,-162
100979844,0.77703857421875,-0.1717529296875,0.5692138671875,-0.2066650390625,-10453,-4610,2963,-39,-94,-150
100989827,0.77923583984375,-0.18731689453125,0.55816650390625,-0.21484375,-10224,-4953,3032,-40,-98,-134
100999809,0.7816162109375,-0.2020263671875,0.5469970703125,-0.2213134765625,-10080,-5322,3084,-41,-102,-121
101009793,0.78411865234375,-0.21636962890625,0.53558349609375,-0.22674560546875,-9965,-5659,3135,-42,-105,-115
101019771,0.78643798828125,-0.23065185546875,0.52392578125,-0.23187255859375,-9833,-5962,3197,-43,-107,-117
101029765,0.78839111328125,-0.24542236328125,0.51165771484375,-0.23748779296875,-9652,-6219,3261,-44,-109,-126
101039747,0.7896728515625,-0.2608642578125,0.498779296875,-0.244140625,-9371,-6434,3321,-43,-109,-139
101049722,0.79010009765625,-0.27703857421875,0.48504638671875,-0.2523193359375,-9045,-6623,3402,-42,-109,-156
101059709,0.7896728515625,-0.29388427734375,0.470458984375,-0.26202392578125,-8699,-6807,3510,-40,-109,-173
101069692,0.788330078125,-0.31109619140625,0.455078125,-0.27313232421875,-8317,-7011,3610,-38,-108,-186
101079673,0.7861328125,-0.328369140625,0.43896484375,-0.28533935546875,-7880,-7196,3710,-35,-106,-197
101089655,0.783203125,-0.345458984375,0.4222412109375,-0.29827880859375,-7361,-7352,3816,-32,-104,-203
101099637,0.77947998046875,-0.36212158203125,0.40509033203125,-0.311767578125,-6785,-7447,3900,-29,-102,-208
101109621,0.77508544921875,-0.378173828125,0.38751220703125,-0.32562255859375,-6187,-7498,3974,-26,-98,-211
101119604,0.76995849609375,-0.39361572265625,0.36981201171875,-0.33984375,-5589,-7522,4025,-22,-94,-213
101129586,0.76416015625,-0.408203125,0.35205078125,-0.35418701171875,-4975,-7532,4081,-19,-90,-212
101139567,0.75787353515625,-0.421875,0.33441162109375,-0.368408203125,-4431,-7525,4138,-17,-85,-209
101149551,0.75128173828125,-0.43450927734375,0.3172607421875,-0.3822021484375,-3987,-7522,4207,-14,-80,-204
101159532,0.74444580078125,-0.44610595703125,0.30072021484375,-0.39544677734375,-3643,-7530,4265,-13,-75,-196
101169514,0.7374267578125,-0.45672607421875,0.284912109375,-0.40789794921875,-3387,-7548,4283,-12,-70,-188
101179496,0.73028564453125,-0.46661376953125,0.2698974609375,-0.419677734375,-3200,-7577,4296,-12,-67,-182
101189482,0.722900390625,-0.475830078125,0.2552490234375,-0.4310302734375,-3045,-7584,4322,-12,-64,-180
101199464,0.7152099609375,-0.48468017578125,0.2408447265625,-0.4422607421875,-2911,-7555,4279,-11,-62,-180
101209449,0.7069091796875,-0.49322509765625,0.22625732421875,-0.45367431640625,-2760,-7459,4209,-10,-61,-186
101219436,0.69775390625,-0.50164794921875,0.21099853515625,-0.46575927734375,-2612,-7298,4124,-9,-60,-196
101229417,0.687744140625,-0.5098876953125,0.19512939453125,-0.47845458984375,-2435,-7095,4024,-9,-60,-206
101239401,0.6767578125,-0.51812744140625,0.178466796875,-0.49163818359375,-2258,-6867,3909,-9,-61,-216
101249379,0.6649169921875,-0.5262451171875,0.1611328125,-0.5050048828125,-2033,-6640,3758,-9,-62,-222
101259363,0.65216064453125,-0.53424072265625,0.14306640625,-0.51849365234375,-1745,-6381,3588,-8,-64,-228
101269344,0.63861083984375,-0.5419921875,0.12445068359375,-0.5318603515625,-1399,-6151,3412,-7,-64,-233
101279327,0.6243896484375,-0.5494384765625,0.105224609375,-0.545166015625,-1009,-5946,3237,-6,-65,-236
101289309,0.60955810546875,-0.556396484375,0.08563232421875,-0.55816650390625,-690,-5753,3123,-4,-65,-238
101299293,0.5943603515625,-0.562744140625,0.06585693359375,-0.57080078125,-395,-5528,2991,-3,-66,-238
101309271,0.5787353515625,-0.568603515625,0.04583740234375,-0.582763671875,-114,-5240,2838,-1,-67,-236
101319258,0.56298828125,-0.573974609375,0.0257568359375,-0.5941162109375,162,-4888,2679,0,-68,-232
101329245,0.54705810546875,-0.5789794921875,0.005859375,-0.60455322265625,431,-4540,2506,1,-69,-227
101339225,0.53125,-0.583740234375,-0.01385498046875,-0.61395263671875,707,-4186,2328,1,-71,-219
101349210,0.51556396484375,-0.588134765625,-0.033203125,-0.622314453125,970,-3872,2171,2,-72,-212
101359189,0.49993896484375,-0.5921630859375,-0.05230712890625,-0.62982177734375,1248,-3551,2002,2,-73,-208
101369181,0.48388671875,-0.59576416015625,-0.07159423828125,-0.63702392578125,1533,-3225,1868,3,-72,-209
101379163,0.46710205078125,-0.59881591796875,-0.09124755859375,-0.64422607421875,1806,-2915,1758,4,-71,-215
101389140,0.44952392578125,-0.60113525390625,-0.11126708984375,-0.65130615234375,2037,-2595,1639,5,-70,-221
101399116,0.431396484375,-0.602783203125,-0.13177490234375,-0.658203125,2282,-2242,1488,7,-69,-224
101409099,0.4127197265625,-0.6038818359375,-0.15240478515625,-0.6646728515625,2505,-1862,1314,8,-68,-225
101419081,0.393798828125,-0.60443115234375,-0.17315673828125,-0.67059326171875,2730,-1451,1145,10,-68,-224
101429062,0.3746337890625,-0.60443115234375,-0.19378662109375,-0.67584228515625,2951,-1047,980,11,-68,-222
101439051,0.35540771484375,-0.60394287109375,-0.21435546875,-0.68048095703125,3148,-646,825,12,-68,-221
101449030,0.3358154296875,-0.602783203125,-0.23486328125,-0.6846923828125,3326,-244,710,13,-66,-222
101459011,0.3157958984375,-0.600830078125,-0.2554931640625,-0.68853759765625,3489,154,608,13,-64,-225
101468996,0.29534912109375,-0.5980224609375,-0.27606201171875,-0.69207763671875,3594,529,490,14,-61,-227
101478984,0.27484130859375,-0.59454345703125,-0.29632568359375,-0.69512939453125,3698,916,346,15,-59,-225
101488960,0.254638671875,-0.59063720703125,-0.3160400390625,-0.697509765625,3779,1322,191,15,-58,-218
101498942,0.23516845703125,-0.5865478515625,-0.3348388671875,-0.69903564453125,3840,1745,34,16,-56,-206
101508926,0.2169189453125,-0.58258056640625,-0.3521728515625,-0.69970703125,3896,2208,-116,16,-55,-187
101518907,0.2003173828125,-0.57891845703125,-0.367919921875,-0.6995849609375,3954,2686,-259,16,-52,-166
101528889,0.18548583984375,-0.575927734375,-0.3818359375,-0.69873046875,4015,3180,-402,14,-51,-142
101538878,0.1727294921875,-0.57379150390625,-0.3936767578125,-0.6971435546875,4096,3668,-572,13,-49,-114
101548854,0.162353515625,-0.57275390625,-0.4033203125,-0.69500732421875,4148,4124,-740,12,-47,-86
101558838,0.154296875,-0.5728759765625,-0.41082763671875,-0.69232177734375,4156,4576,-919,10,-45,-56
101568818,0.1485595703125,-0.5740966796875,-0.41619873046875,-0.6893310546875,4111,5029,-1109,9,-41,-28
101578800,0.144775390625,-0.57635498046875,-0.419677734375,-0.6861572265625,4053,5488,-1306,6,-39,-4
101588784,0.1427001953125,-0.57940673828125,-0.4215087890625,-0.68292236328125,4018,5958,-1507,5,-35,17
101598768,0.14190673828125,-0.5830078125,-0.4219970703125,-0.67974853515625,4011,6404,-1687,2,-31,33
101608751,0.14239501953125,-0.58697509765625,-0.42120361328125,-0.67669677734375,4023,6748,-1850,0,-26,48
101618735,0.1439208984375,-0.5911865234375,-0.41925048828125,-0.67388916015625,4075,7032,-1978,-2,-21,60
101628710,0.146728515625,-0.59564208984375,-0.41607666015625,-0.67132568359375,4167,7218,-2080,-3,-15,73
101638691,0.15081787109375,-0.6002197265625,-0.41162109375,-0.6690673828125,4326,7315,-2143,-5,-9,86
101648671,0.15625,-0.60498046875,-0.4058837890625,-0.66705322265625,4530,7309,-2156,-6,-2,99
101658659,0.16314697265625,-0.609619140625,-0.3988037109375,-0.6654052734375,4766,7193,-2113,-7,6,112
101668641,0.17156982421875,-0.6142578125,-0.39019775390625,-0.66412353515625,4977,6976,-2032,-8,14,127
101678622,0.18170166015625,-0.61883544921875,-0.38006591796875,-0.66302490234375,5141,6652,-1924,-9,23,142
101688604,0.19366455078125,-0.6234130859375,-0.36822509765625,-0.662109375,5232,6236,-1824,-9,32,160
101698587,0.2076416015625,-0.62799072265625,-0.3544921875,-0.6610107421875,5237,5758,-1730,-8,40,179
101708570,0.22369384765625,-0.63250732421875,-0.3388671875,-0.65966796875,5183,5232,-1626,-6,48,200
101718551,0.2418212890625,-0.63702392578125,-0.3211669921875,-0.65777587890625,5090,4678,-1532,-5,54,221
101728533,0.261962890625,-0.64129638671875,-0.30169677734375,-0.6551513671875,4950,4107,-1430,-2,60,240
101738521,0.28375244140625,-0.64508056640625,-0.2806396484375,-0.65167236328125,4763,3523,-1308,2,66,256
101748501,0.306884765625,-0.64825439453125,-0.25823974609375,-0.6473388671875,4539,2943,-1201,6,70,269
101758484,0.330810546875,-0.650390625,-0.23504638671875,-0.6422119140625,4298,2386,-1069,10,75,275
101768466,0.35528564453125,-0.65142822265625,-0.21136474609375,-0.63629150390625,3994,1818,-897,15,78,278
101778451,0.38006591796875,-0.65118408203125,-0.18743896484375,-0.629638671875,3663,1266,-731,21,81,279
101788430,0.40509033203125,-0.6497802734375,-0.16326904296875,-0.6221923828125,3320,721,-546,26,83,281
101798424,0.43017578125,-0.647216796875,-0.138916015625,-0.61383056640625,2947,178,-359,30,83,282
101808406,0.45526123046875,-0.6435546875,-0.11456298828125,-0.60455322265625,2544,-307,-164,35,83,281
101818389,0.47979736328125,-0.638671875,-0.090576171875,-0.5947265625,2243,-699,43,39,84,275
101828364,0.503173828125,-0.632568359375,-0.067626953125,-0.58489990234375,1996,-1034,303,42,84,261
101838350,0.52508544921875,-0.62518310546875,-0.046142578125,-0.57562255859375,1745,-1397,639,45,85,242
101848329,0.54534912109375,-0.61663818359375,-0.0262451171875,-0.56719970703125,1532,-1830,979,48,85,220
101858312,0.56414794921875,-0.6072998046875,-0.00762939453125,-0.55938720703125,1249,-2326,1294,50,86,203
101868298,0.58203125,-0.59735107421875,0.010498046875,-0.5516357421875,906,-2788,1617,50,86,196
101878281,0.599365234375,-0.5870361328125,0.028564453125,-0.54345703125,586,-3156,1953,48,84,197
101888263,0.61627197265625,-0.57647705078125,0.04693603515625,-0.53448486328125,359,-3388,2214,44,82,201
101898242,0.63250732421875,-0.56597900390625,0.06549072265625,-0.5247802734375,212,-3531,2402,40,80,202
101908234,0.6475830078125,-0.555419921875,0.0838623046875,-0.514892578125,148,-3727,2535,35,80,197
101918217,0.6612548828125,-0.544921875,0.10162353515625,-0.5054931640625,124,-4062,2757,32,81,184
101928195,0.673583984375,-0.53424072265625,0.11895751953125,-0.4967041015625,38,-4602,3061,30,83,174
101938187,0.685302734375,-0.5233154296875,0.1365966796875,-0.48773193359375,-241,-5282,3367,27,85,176
101948174,0.69708251953125,-0.51202392578125,0.15545654296875,-0.47723388671875,-647,-5866,3643,23,85,191
101958146,0.709228515625,-0.500244140625,0.1756591796875,-0.46466064453125,-1030,-6178,3833,19,85,209
101968123,0.72113037109375,-0.4881591796875,0.19659423828125,-0.4505615234375,-1318,-6223,3876,14,85,220
101978104,0.7320556640625,-0.47613525390625,0.217529296875,-0.43597412109375,-1591,-6159,3863,10,86,217
101988087,0.74151611328125,-0.4642333984375,0.23785400390625,-0.42193603515625,-1914,-6295,3871,7,88,204
101998069,0.74932861328125,-0.45257568359375,0.25738525390625,-0.40911865234375,-2239,-6640,3915,7,90,187
102008051,0.75579833984375,-0.44097900390625,0.276123046875,-0.3975830078125,-2617,-7216,4082,7,92,172
102018033,0.76129150390625,-0.42926025390625,0.29443359375,-0.3865966796875,-3126,-7966,4288,9,94,167
102028015,0.7664794921875,-0.41693115234375,0.31292724609375,-0.3751220703125,-3706,-8612,4491,10,95,173
102037999,0.77166748046875,-0.4036865234375,0.33184814453125,-0.36248779296875,-4245,-8940,4618,11,96,185
102047985,0.776611328125,-0.38983154296875,0.35089111328125,-0.34893798828125,-4717,-9007,4642,10,97,191
102057963,0.78082275390625,-0.3758544921875,0.36968994140625,-0.33526611328125,-5158,-8909,4597,10,98,187
102067945,0.78399658203125,-0.3619384765625,0.3878173828125,-0.3223876953125,-5637,-8779,4510,9,99,176
102077927,0.78594970703125,-0.34857177734375,0.405029296875,-0.31085205078125,-6069,-8689,4396,11,99,158
102087912,0.78692626953125,-0.3358154296875,0.42108154296875,-0.30096435546875,-6512,-8723,4315,13,98,141
102097893,0.78729248046875,-0.323486328125,0.43597412109375,-0.292236328125,-7017,-8918,4288,16,95,131
102107878,0.7874755859375,-0.31109619140625,0.4501953125,-0.28363037109375,-7618,-9205,4319,18,91,131
102117857,0.78778076171875,-0.2982177734375,0.46392822265625,-0.27423095703125,-8303,-9465,4384,20,86,140
102127841,0.7884521484375,-0.2845458984375,0.47735595703125,-0.263427734375,-9022,-9633,4405,21,81,151
102137824,0.7894287109375,-0.2703857421875,0.49029541015625,-0.25146484375,-9591,-9624,4395,21,75,160
102147808,0.79034423828125,-0.25628662109375,0.5023193359375,-0.2392578125,-9968,-9427,4362,21,69,157
102157789,0.79095458984375,-0.2430419921875,0.51312255859375,-0.22802734375,-10136,-9118,4310,20,64,142
102167771,0.79095458984375,-0.2314453125,0.5224609375,-0.21881103515625,-10132,-8797,4264,20,59,119
102177760,0.79034423828125,-0.22161865234375,0.5302734375,-0.2120361328125,-10103,-8601,4314,19,55,92
102187741,0.78936767578125,-0.213623046875,0.53680419921875,-0.2073974609375,-10125,-8583,4391,19,51,71
102197718,0.7882080078125,-0.20697021484375,0.5423583984375,-0.2041015625,-10186,-8657,4507,17,46,60
102207701,0.787109375,-0.20098876953125,0.5472412109375,-0.2012939453125,-10278,-8746,4627,16,41,54
102217683,0.7862548828125,-0.195556640625,0.5513916015625,-0.19854736328125,-10360,-8828,4728,14,35,53
102227667,0.78564453125,-0.19073486328125,0.554931640625,-0.19573974609375,-10396,-8837,4777,12,29,49
102237648,0.78521728515625,-0.18695068359375,0.5577392578125,-0.193359375,-10280,-8784,4796,8,23,39
102247635,0.7847900390625,-0.18475341796875,0.5594482421875,-0.19219970703125,-10005,-8664,4802,5,16,22
102257611,0.78424072265625,-0.18463134765625,0.56005859375,-0.19281005859375,-9622,-8560,4765,1,10,-1
102267590,0.783447265625,-0.186767578125,0.5595703125,-0.19537353515625,-9149,-8483,4751,-3,4,-25
102277570,0.782470703125,-0.19091796875,0.5579833984375,-0.19970703125,-8659,-8410,4775,-7,-1,-45
102287552,0.78143310546875,-0.196533203125,0.55548095703125,-0.20526123046875,-8183,-8334,4824,-10,-7,-61
102297533,0.78033447265625,-0.20343017578125,0.55218505859375,-0.21160888671875,-7676,-8267,4892,-14,-12,-71
102307517,0.779296875,-0.21124267578125,0.548095703125,-0.21826171875,-7171,-8242,4955,-17,-18,-77
102317499,0.77838134765625,-0.21954345703125,0.54345703125,-0.22479248046875,-6709,-8247,4965,-20,-23,-77
102327477,0.77764892578125,-0.22821044921875,0.53851318359375,-0.2305908203125,-6354,-8313,4929,-24,-28,-73
102337460,0.77716064453125,-0.2369384765625,0.53338623046875,-0.2353515625,-6182,-8478,4856,-28,-33,-67
102347440,0.77691650390625,-0.24554443359375,0.52825927734375,-0.23876953125,-6157,-8717,4740,-31,-38,-57
102357431,0.77691650390625,-0.25408935546875,0.52313232421875,-0.240966796875,-6182,-8915,4619,-35,-43,-49
102367417,0.77716064453125,-0.2628173828125,0.51788330078125,-0.24237060546875,-6243,-9095,4499,-38,-47,-48
102377399,0.77728271484375,-0.27203369140625,0.51220703125,-0.24383544921875,-6285,-9236,4432,-41,-51,-55
102387374,0.77703857421875,-0.28228759765625,0.50579833984375,-0.24615478515625,-6334,-9395,4343,-42,-54,-69
102397357,0.77630615234375,-0.29376220703125,0.49859619140625,-0.24981689453125,-6390,-9554,4228,-44,-57,-87
102407339,0.77484130859375,-0.30657958984375,0.49041748046875,-0.255126953125,-6456,-9717,4103,-45,-60,-109
102417322,0.7725830078125,-0.32061767578125,0.481201171875,-0.2620849609375,-6560,-9913,3938,-45,-63,-130
102427306,0.76959228515625,-0.3358154296875,0.470947265625,-0.27044677734375,-6612,-10140,3754,-45,-66,-148
102437293,0.765869140625,-0.35174560546875,0.45965576171875,-0.280029296875,-6625,-10372,3589,-45,-69,-164
102447273,0.761474609375,-0.3681640625,0.44744873046875,-0.29052734375,-6589,-10605,3399,-43,-72,-176
102457256,0.756591796875,-0.38470458984375,0.434326171875,-0.30145263671875,-6520,-10819,3233,-41,-75,-183
102467239,0.7513427734375,-0.4010009765625,0.420654296875,-0.31256103515625,-6410,-11033,3085,-38,-77,-186
102477231,0.74591064453125,-0.41693115234375,0.40631103515625,-0.32354736328125,-6213,-11220,2978,-35,-79,-188
102487213,0.74029541015625,-0.4322509765625,0.3914794921875,-0.33441162109375,-5937,-11325,2932,-32,-80,-188
102497193,0.73443603515625,-0.447021484375,0.3763427734375,-0.34515380859375,-5597,-11363,2914,-30,-79,-188
102507183,0.728271484375,-0.46124267578125,0.36083984375,-0.35589599609375,-5145,-11326,2909,-27,-78,-189
102517165,0.72161865234375,-0.4749755859375,0.3448486328125,-0.36700439453125,-4658,-11202,2929,-24,-76,-194
102527144,0.71441650390625,-0.48822021484375,0.32843017578125,-0.37872314453125,-4161,-11039,2944,-22,-73,-200
102537120,0.7064208984375,-0.5009765625,0.31158447265625,-0.39105224609375,-3640,-10818,2983,-20,-69,-207
102547103,0.69769287109375,-0.51312255859375,0.29449462890625,-0.40399169921875,-3158,-10588,3009,-18,-64,-212
102557085,0.688232421875,-0.52471923828125,0.27734375,-0.417236328125,-2672,-10377,3030,-17,-59,-215
102567068,0.67822265625,-0.5355224609375,0.26025390625,-0.4306640625,-2191,-10181,3072,-16,-54,-216
102577051,0.66766357421875,-0.54559326171875,0.24334716796875,-0.4442138671875,-1779,-9994,3128,-15,-49,-216
102587033,0.65679931640625,-0.5546875,0.226806640625,-0.4576416015625,-1442,-9784,3164,-13,-44,-214
102597014,0.6455078125,-0.56304931640625,0.2103271484375,-0.47125244140625,-1186,-9517,3186,-12,-40,-217
102606996,0.63348388671875,-0.5709228515625,0.19384765625,-0.48504638671875,-1005,-9200,3173,-12,-37,-222
102616986,0.62066650390625,-0.5782470703125,0.177001953125,-0.49908447265625,-859,-8846,3136,-12,-35,-229
102626961,0.60687255859375,-0.58526611328125,0.15972900390625,-0.51348876953125,-718,-8487,3088,-12,-33,-237
102636944,0.59210205078125,-0.5919189453125,0.1419677734375,-0.528076171875,-576,-8156,3031,-13,-33,-245
102646929,0.576416015625,-0.5982666015625,0.1236572265625,-0.54278564453125,-421,-7846,2951,-13,-32,-251
102656910,0.55975341796875,-0.6041259765625,0.1048583984375,-0.557373046875,-258,-7522,2859,-13,-33,-257
102666892,0.542236328125,-0.609619140625,0.08544921875,-0.5718994140625,-66,-7153,2749,-13,-33,-263
102676878,0.52374267578125,-0.6146240234375,0.0654296875,-0.58624267578125,132,-6743,2627,-12,-34,-269
102686857,0.50445556640625,-0.619140625,0.04486083984375,-0.60015869140625,334,-6322,2493,-12,-35,-272
102696839,0.484375,-0.62310791015625,0.0238037109375,-0.6136474609375,523,-5882,2345,-11,-36,-275
102706823,0.46368408203125,-0.62652587890625,0.0025634765625,-0.62646484375,705,-5440,2215,-11,-38,-276
102716805,0.442626953125,-0.62939453125,-0.01885986328125,-0.63848876953125,892,-4965,2067,-9,-39,-273
102726787,0.42132568359375,-0.6317138671875,-0.040283203125,-0.6495361328125,1037,-4459,1924,-8,-41,-269
102736768,0.400146484375,-0.63348388671875,-0.0614013671875,-0.659423828125,1124,-3941,1775,-8,-43,-262
102746758,0.37921142578125,-0.63494873046875,-0.08203125,-0.66815185546875,1178,-3449,1622,-7,-45,-252
102756740,0.3587646484375,-0.6361083984375,-0.1019287109375,-0.675537109375,1228,-2988,1469,-7,-47,-241
102766716,0.3387451171875,-0.63702392578125,-0.12115478515625,-0.68182373046875,1248,-2544,1339,-6,-50,-231
102776700,0.319091796875,-0.63775634765625,-0.1397705078125,-0.68701171875,1268,-2089,1195,-6,-52,-222
102786682,0.29974365234375,-0.6383056640625,-0.15802001953125,-0.69122314453125,1283,-1614,1024,-5,-54,-215
102796665,0.280517578125,-0.63861083984375,-0.17596435546875,-0.69464111328125,1326,-1138,878,-5,-56,-210
102806647,0.26153564453125,-0.6387939453125,-0.19354248046875,-0.697265625,1396,-665,754,-4,-57,-203
102816635,0.2427978515625,-0.6387939453125,-0.21063232421875,-0.69903564453125,1492,-187,652,-4,-58,-195
102826614,0.22467041015625,-0.638671875,-0.22698974609375,-0.70013427734375,1600,268,602,-4,-59,-185
102836597,0.20721435546875,-0.6383056640625,-0.24249267578125,-0.70062255859375,1730,759,569,-4,-59,-174
102846579,0.1903076171875,-0.6378173828125,-0.25726318359375,-0.70062255859375,1883,1288,538,-4,-57,-165
102856561,0.17401123046875,-0.63720703125,-0.2711181640625,-0.7001953125,2054,1860,473,-5,-56,-154
102866545,0.158447265625,-0.63641357421875,-0.28411865234375,-0.699462890625,2264,2430,399,-5,-53,-143
102876526,0.14361572265625,-0.6356201171875,-0.29608154296875,-0.69842529296875,2494,2995,293,-7,-51,-132
102886509,0.1298828125,-0.63494873046875,-0.30670166015625,-0.6971435546875,2741,3545,201,-8,-48,-116
102896491,0.1175537109375,-0.63446044921875,-0.3157958984375,-0.69573974609375,2965,4053,112,-9,-44,-97
102906475,0.1070556640625,-0.6343994140625,-0.3228759765625,-0.6942138671875,3140,4504,33,-11,-41,-73
102916458,0.09857177734375,-0.6348876953125,-0.32781982421875,-0.69268798828125,3271,4909,-29,-13,-37,-48
102926437,0.09210205078125,-0.635986328125,-0.33056640625,-0.69122314453125,3394,5293,-96,-15,-32,-23
102936430,0.087646484375,-0.63763427734375,-0.33135986328125,-0.68994140625,3525,5660,-177,-17,-27,0
102946407,0.0850830078125,-0.6397705078125,-0.3302001953125,-0.6888427734375,3688,5985,-261,-19,-22,22
102956390,0.0841064453125,-0.64227294921875,-0.327392578125,-0.68798828125,3873,6265,-340,-21,-17,41
102966366,0.08465576171875,-0.6448974609375,-0.32318115234375,-0.6875,4057,6486,-405,-22,-11,56
102976350,0.0865478515625,-0.64752197265625,-0.3177490234375,-0.687255859375,4230,6587,-469,-22,-5,70
102986334,0.08984375,-0.65020751953125,-0.31109619140625,-0.6873779296875,4370,6536,-508,-22,2,82
102996314,0.0948486328125,-0.6529541015625,-0.30303955078125,-0.68768310546875,4472,6372,-545,-22,7,99
103006294,0.101806640625,-0.65582275390625,-0.29345703125,-0.6881103515625,4520,6066,-532,-20,13,118
103016276,0.11102294921875,-0.65899658203125,-0.28204345703125,-0.6884765625,4535,5688,-503,-18,18,140
103026263,0.12255859375,-0.66229248046875,-0.26885986328125,-0.68853759765625,4513,5267,-477,-15,22,162
103036243,0.13641357421875,-0.66571044921875,-0.2540283203125,-0.68829345703125,4483,4827,-444,-11,27,182
103046233,0.15216064453125,-0.6690673828125,-0.2376708984375,-0.6876220703125,4427,4377,-395,-8,30,200
103056217,0.1695556640625,-0.6719970703125,-0.22015380859375,-0.68646240234375,4343,3871,-349,-4,34,214
103066205,0.18853759765625,-0.67449951171875,-0.2015380859375,-0.684814453125,4220,3320,-257,0,38,227
103076186,0.20904541015625,-0.67645263671875,-0.1820068359375,-0.68243408203125,4069,2739,-197,5,41,239
103086174,0.23114013671875,-0.67779541015625,-0.16143798828125,-0.67913818359375,3861,2143,-147,11,43,252
103096144,0.2547607421875,-0.67852783203125,-0.1397705078125,-0.6746826171875,3584,1545,-109,16,44,267
103106121,0.2799072265625,-0.6785888671875,-0.1170654296875,-0.6689453125,3288,966,-67,22,44,282
103116105,0.3062744140625,-0.6778564453125,-0.093505859375,-0.66180419921875,2986,433,-18,27,43,293
103126087,0.33343505859375,-0.6761474609375,-0.06939697265625,-0.65338134765625,2719,-100,58,32,43,300
103136069,0.36077880859375,-0.67340087890625,-0.04522705078125,-0.64373779296875,2467,-601,151,36,42,302
103146054,0.3880615234375,-0.66943359375,-0.0211181640625,-0.6331787109375,2216,-1193,293,39,42,300
103156034,0.414794921875,-0.664306640625,0.00244140625,-0.621826171875,1978,-1734,433,43,42,296
103166020,0.4410400390625,-0.6580810546875,0.0255126953125,-0.6097412109375,1715,-2288,561,46,41,291
103176002,0.46661376953125,-0.65087890625,0.048095703125,-0.596923828125,1431,-2815,670,49,40,287
103185992,0.491455078125,-0.64276123046875,0.070068359375,-0.58355712890625,1153,-3319,791,51,39,281
103195974,0.51531982421875,-0.6337890625,0.09136962890625,-0.569580078125,924,-3761,876,52,38,274
103205952,0.53790283203125,-0.624267578125,0.1116943359375,-0.555419921875,810,-4086,995,52,36,265
103215933,0.55902099609375,-0.61419677734375,0.1307373046875,-0.54150390625,748,-4373,1131,52,36,252
103225916,0.5784912109375,-0.603759765625,0.1485595703125,-0.5279541015625,693,-4676,1319,50,36,237
103235901,0.596435546875,-0.59307861328125,0.16546630859375,-0.51495361328125,638,-4976,1560,48,37,225
103245881,0.61309814453125,-0.58203125,0.18194580078125,-0.50225830078125,522,-5332,1821,45,39,218
103255866,0.62884521484375,-0.5706787109375,0.1983642578125,-0.48944091796875,394,-5696,2047,42,41,215
103265848,0.64361572265625,-0.5589599609375,0.2147216796875,-0.47662353515625,274,-6009,2273,39,45,213
103275832,0.6573486328125,-0.5469970703125,0.23089599609375,-0.464111328125,183,-6249,2487,37,48,206
103285811,0.669921875,-0.53466796875,0.24676513671875,-0.45220947265625,-27,-6557,2698,35,53,198
103295795,0.6815185546875,-0.52203369140625,0.26287841796875,-0.44036865234375,-423,-7026,2903,32,58,196
103305775,0.69244384765625,-0.5089111328125,0.27978515625,-0.427978515625,-957,-7559,3101,29,62,201
103315765,0.703125,-0.4951171875,0.2978515625,-0.4144287109375,-1580,-8029,3219,25,66,213
103325747,0.71337890625,-0.480712890625,0.31695556640625,-0.3994140625,-2128,-8325,3212,22,69,225
103335725,0.7230224609375,-0.4658203125,0.3365478515625,-0.38336181640625,-2598,-8437,3171,19,71,231
103345705,0.731689453125,-0.45068359375,0.35595703125,-0.3671875,-3092,-8466,3154,17,73,227
103355689,0.7391357421875,-0.435546875,0.37469482421875,-0.3515625,-3735,-8603,3162,16,75,215
103365671,0.7452392578125,-0.420654296875,0.39276123046875,-0.33673095703125,-4450,-8822,3169,15,76,204
103375653,0.7503662109375,-0.4058837890625,0.40997314453125,-0.32257080078125,-5278,-9103,3208,15,75,193
103385635,0.754638671875,-0.391357421875,0.4266357421875,-0.30865478515625,-6153,-9392,3198,14,73,187
103395619,0.7584228515625,-0.3768310546875,0.4427490234375,-0.29449462890625,-6921,-9556,3163,14,71,186
103405601,0.76171875,-0.36236572265625,0.458251953125,-0.2801513671875,-7586,-9542,3133,13,68,185
103415584,0.76458740234375,-0.3480224609375,0.472900390625,-0.26568603515625,-8130,-9394,3048,12,63,181
103425567,0.7669677734375,-0.334228515625,0.4864501953125,-0.251708984375,-8453,-9111,2935,11,59,172
103435550,0.768798828125,-0.32135009765625,0.49859619140625,-0.2388916015625,-8695,-8789,2934,11,54,156
103445532,0.77020263671875,-0.309326171875,0.50927734375,-0.2274169921875,-9059,-8597,2993,12,49,140
103455514,0.7713623046875,-0.29815673828125,0.5186767578125,-0.21685791015625,-9630,-8570,3081,12,43,129
103465496,0.7725830078125,-0.28729248046875,0.5272216796875,-0.206298828125,-10329,-8654,3139,11,36,128
103475479,0.774169921875,-0.27630615234375,0.53515625,-0.19451904296875,-11038,-8741,3164,9,27,138
103485462,0.77630615234375,-0.26483154296875,0.54266357421875,-0.18072509765625,-11618,-8773,3153,6,17,155
103495439,0.7789306640625,-0.2530517578125,0.54949951171875,-0.1649169921875,-11946,-8688,3136,1,8,170
103505431,0.78179931640625,-0.24151611328125,0.55535888671875,-0.1480712890625,-12002,-8413,3115,-5,-1,172
103515407,0.7845458984375,-0.2313232421875,0.5599365234375,-0.1317138671875,-11839,-8033,3087,-10,-8,157
103525390,0.7869873046875,-0.2232666015625,0.56304931640625,-0.1171875,-11490,-7640,3108,-14,-13,132
103535365,0.78900146484375,-0.21783447265625,0.56475830078125,-0.10528564453125,-11125,-7351,3195,-19,-16,100
103545350,0.79052734375,-0.21514892578125,0.565185546875,-0.09619140625,-10827,-7192,3277,-23,-18,69
103555331,0.79168701171875,-0.2149658203125,0.56475830078125,-0.08953857421875,-10566,-7162,3357,-28,-19,43
103565311,0.79248046875,-0.216796875,0.56365966796875,-0.08477783203125,-10253,-7216,3427,-32,-20,24
103575295,0.79302978515625,-0.220458984375,0.56201171875,-0.08135986328125,-9844,-7272,3466,-37,-19,8
103585278,0.793212890625,-0.22564697265625,0.55999755859375,-0.07928466796875,-9286,-7288,3472,-42,-19,-8
103595256,0.7930908203125,-0.2325439453125,0.557373046875,-0.07879638671875,-8577,-7268,3453,-45,-18,-27
103605244,0.7926025390625,-0.2413330078125,0.55419921875,-0.08013916015625,-7788,-7228,3416,-49,-17,-49
103615228,0.7916259765625,-0.25177001953125,0.5504150390625,-0.08343505859375,-7035,-7246,3347,-52,-16,-69
103625211,0.7901611328125,-0.26361083984375,0.546142578125,-0.088134765625,-6348,-7333,3245,-55,-15,-82
103635190,0.788330078125,-0.27618408203125,0.54168701171875,-0.093505859375,-5704,-7423,3115,-57,-14,-88
103645181,0.7862548828125,-0.28887939453125,0.53717041015625,-0.098876953125,-5152,-7528,2998,-58,-13,-87
103655163,0.78399658203125,-0.30126953125,0.53277587890625,-0.1036376953125,-4715,-7658,2893,-59,-13,-79
103665142,0.78167724609375,-0.3128662109375,0.52874755859375,-0.107177734375,-4421,-7815,2791,-60,-13,-67
103675117,0.7794189453125,-0.323486328125,0.52520751953125,-0.109375,-4360,-8109,2709,-60,-14,-52
103685102,0.77734375,-0.33306884765625,0.52215576171875,-0.11004638671875,-4546,-8536,2605,-59,-15,-36
103695085,0.775390625,-0.341552734375,0.51971435546875,-0.10906982421875,-4917,-9061,2485,-58,-17,-20
103705067,0.773681640625,-0.34906005859375,0.517822265625,-0.106689453125,-5402,-9596,2319,-57,-19,-6
103715055,0.7720947265625,-0.3558349609375,0.5162353515625,-0.1033935546875,-5935,-10085,2109,-55,-21,1
103725036,0.7706298828125,-0.3624267578125,0.5145263671875,-0.10003662109375,-6435,-10478,1937,-53,-23,-2
103735016,0.7691650390625,-0.36932373046875,0.51226806640625,-0.09765625,-6905,-10797,1794,-51,-24,-15
103744999,0.76751708984375,-0.3773193359375,0.50897216796875,-0.09735107421875,-7339,-11048,1648,-48,-25,-39
103754987,0.7657470703125,-0.38671875,0.50408935546875,-0.099853515625,-7674,-11249,1544,-44,-27,-71
103764963,0.76361083984375,-0.39788818359375,0.497314453125,-0.10589599609375,-7960,-11478,1453,-40,-28,-109
103774945,0.7611083984375,-0.4107666015625,0.48846435546875,-0.11541748046875,-8207,-11736,1414,-36,-29,-145
103784929,0.7581787109375,-0.42498779296875,0.47760009765625,-0.128173828125,-8337,-11996,1403,-32,-31,-179
103794912,0.75469970703125,-0.44012451171875,0.46484375,-0.14349365234375,-8373,-12237,1411,-27,-32,-205
103804896,0.75079345703125,-0.45556640625,0.450439453125,-0.16070556640625,-8309,-12457,1441,-22,-33,-225
103814878,0.746337890625,-0.47088623046875,0.434814453125,-0.17919921875,-8119,-12651,1440,-17,-35,-237
103824862,0.74151611328125,-0.4857177734375,0.418212890625,-0.1982421875,-7828,-12777,1477,-12,-36,-243
103834844,0.7364501953125,-0.49957275390625,0.40106201171875,-0.21722412109375,-7432,-12848,1526,-8,-36,-242
103844828,0.731201171875,-0.5123291015625,0.3837890625,-0.2357177734375,-6971,-12839,1583,-3,-36,-236
103854813,0.7259521484375,-0.52374267578125,0.36676025390625,-0.25323486328125,-6439,-12742,1657,1,-36,-225
103864791,0.72076416015625,-0.533935546875,0.35003662109375,-0.26995849609375,-5881,-12530,1757,4,-35,-217
103874770,0.7154541015625,-0.5430908203125,0.3336181640625,-0.28607177734375,-5338,-12249,1828,6,-33,-211
103884762,0.7099609375,-0.55145263671875,0.31744384765625,-0.3018798828125,-4792,-11908,1927,8,-30,-208
103894745,0.7041015625,-0.55908203125,0.30126953125,-0.31768798828125,-4310,-11523,2025,9,-28,-208
103904722,0.69781494140625,-0.56610107421875,0.28509521484375,-0.3336181640625,-3880,-11115,2089,11,-25,-210
103914705,0.69097900390625,-0.57269287109375,0.268798828125,-0.3497314453125,-3534,-10736,2146,11,-22,-213
103924687,0.6834716796875,-0.57891845703125,0.25238037109375,-0.3660888671875,-3223,-10390,2194,11,-20,-218
103934670,0.67535400390625,-0.58477783203125,0.23565673828125,-0.38262939453125,-2957,-10071,2222,10,-19,-224
103944652,0.66632080078125,-0.5904541015625,0.218505859375,-0.399658203125,-2671,-9732,2233,10,-17,-232
103954635,0.65625,-0.5958251953125,0.20062255859375,-0.417236328125,-2394,-9394,2233,10,-16,-242
103964616,0.6451416015625,-0.60089111328125,0.18206787109375,-0.43536376953125,-2130,-9036,2226,10,-14,-252
103974599,0.63299560546875,-0.6055908203125,0.16278076171875,-0.4539794921875,-1893,-8648,2204,10,-13,-261
103984583,0.61981201171875,-0.6099853515625,0.1429443359375,-0.47259521484375,-1719,-8226,2160,9,-14,-267
103994565,0.6058349609375,-0.614013671875,0.12274169921875,-0.49090576171875,-1554,-7848,2118,8,-15,-270
104004547,0.5911865234375,-0.61761474609375,0.1024169921875,-0.50848388671875,-1403,-7511,2059,6,-18,-268
104014528,0.576171875,-0.62091064453125,0.08209228515625,-0.525146484375,-1246,-7192,2012,5,-21,-265
104024511,0.56072998046875,-0.6239013671875,0.06170654296875,-0.5408935546875,-1061,-6922,1963,5,-24,-263
104034495,0.54498291015625,-0.62646484375,0.04132080078125,-0.5557861328125,-842,-6641,1879,5,-27,-260
104044477,0.52886962890625,-0.628662109375,0.02069091796875,-0.56982421875,-625,-6319,1801,6,-30,-259
104054460,0.51239013671875,-0.6304931640625,-0.000244140625,-0.58306884765625,-439,-5966,1705,8,-34,-257
104064439,0.4957275390625,-0.63189697265625,-0.02142333984375,-0.595458984375,-263,-5541,1616,9,-37,-255
104074431,0.4788818359375,-0.6329345703125,-0.042724609375,-0.60687255859375,-104,-5085,1512,11,-41,-251
104087995,0.46197509765625,-0.6336669921875,-0.06402587890625,-0.61724853515625,34,-4653,1390,12,-45,-245
104094397,0.44525146484375,-0.63421630859375,-0.0850830078125,-0.6263427734375,154,-4230,1303,12,-48,-237
104104371,0.42864990234375,-0.634521484375,-0.10595703125,-0.63446044921875,312,-3800,1219,14,-52,-231
104114355,0.41204833984375,-0.634521484375,-0.1265869140625,-0.6416015625,517,-3384,1142,15,-54,-226
104124337,0.39532470703125,-0.63421630859375,-0.147216796875,-0.64801025390625,771,-2957,1079,15,-56,-223
104134320,0.37841796875,-0.63348388671875,-0.16766357421875,-0.65380859375,1028,-2540,1022,16,-56,-220
104144303,0.36138916015625,-0.63226318359375,-0.18798828125,-0.6590576171875,1299,-2120,971,17,-55,-217
104154286,0.34429931640625,-0.63067626953125,-0.20806884765625,-0.6636962890625,1572,-1683,910,17,-55,-213
104164267,0.32733154296875,-0.62860107421875,-0.22760009765625,-0.6678466796875,1822,-1239,861,16,-54,-208
104174256,0.310546875,-0.626220703125,-0.24652099609375,-0.67138671875,2049,-791,825,16,-53,-200
104184238,0.2940673828125,-0.62347412109375,-0.26470947265625,-0.67437744140625,2229,-343,784,15,-51,-193
104194222,0.27801513671875,-0.62054443359375,-0.2821044921875,-0.6768798828125,2379,110,698,15,-50,-184
104204205,0.2623291015625,-0.6175537109375,-0.298583984375,-0.67877197265625,2499,558,591,14,-48,-175
104214192,0.24725341796875,-0.61444091796875,-0.314208984375,-0.68023681640625,2596,996,481,13,-46,-165
104224175,0.23291015625,-0.611328125,-0.32879638671875,-0.68115234375,2682,1423,373,12,-45,-153
104234157,0.21942138671875,-0.60845947265625,-0.3421630859375,-0.681640625,2742,1870,239,10,-44,-139
104244128,0.206787109375,-0.60595703125,-0.35430908203125,-0.681640625,2772,2333,129,8,-43,-124
104254110,0.1951904296875,-0.60394287109375,-0.36505126953125,-0.68115234375,2836,2814,-20,6,-42,-108
104264093,0.18463134765625,-0.6024169921875,-0.37445068359375,-0.68035888671875,2952,3323,-153,3,-41,-92
104274075,0.175048828125,-0.6015625,-0.3824462890625,-0.67926025390625,3124,3837,-272,1,-40,-76
104284057,0.16650390625,-0.6011962890625,-0.3890380859375,-0.67791748046875,3347,4372,-370,-2,-39,-60
104294038,0.158935546875,-0.601318359375,-0.394287109375,-0.67657470703125,3568,4913,-441,-5,-37,-45
104304023,0.15252685546875,-0.60198974609375,-0.39813232421875,-0.67523193359375,3758,5436,-503,-8,-34,-29
104314005,0.147216796875,-0.6031494140625,-0.4005126953125,-0.6739501953125,3919,5928,-557,-11,-31,-12
104323995,0.14312744140625,-0.60491943359375,-0.40142822265625,-0.67266845703125,4080,6384,-682,-14,-28,5
104333965,0.140380859375,-0.60736083984375,-0.4007568359375,-0.6715087890625,4234,6804,-777,-17,-25,23
104343950,0.13897705078125,-0.61029052734375,-0.39862060546875,-0.67041015625,4384,7153,-837,-19,-20,41
104353933,0.13909912109375,-0.61370849609375,-0.39483642578125,-0.66949462890625,4542,7423,-861,-21,-16,58
104363914,0.140625,-0.617431640625,-0.3896484375,-0.66876220703125,4713,7604,-865,-23,-10,73
104373897,0.1434326171875,-0.621337890625,-0.38299560546875,-0.66839599609375,4906,7674,-841,-25,-4,87
104383881,0.1475830078125,-0.62530517578125,-0.37518310546875,-0.66827392578125,5085,7611,-790,-26,3,99
104393859,0.1529541015625,-0.629150390625,-0.36614990234375,-0.66839599609375,5252,7429,-760,-26,9,109
104403843,0.15966796875,-0.6329345703125,-0.35601806640625,-0.66876220703125,5377,7118,-735,-26,16,121
104413828,0.16802978515625,-0.6368408203125,-0.344482421875,-0.6690673828125,5441,6710,-729,-25,22,137
104423810,0.17816162109375,-0.640869140625,-0.33154296875,-0.66912841796875,5435,6223,-713,-24,27,153
104433792,0.19024658203125,-0.64501953125,-0.31707763671875,-0.66876220703125,5364,5678,-689,-20,32,171
104443772,0.20428466796875,-0.6492919921875,-0.3011474609375,-0.66790771484375,5264,5089,-658,-17,36,189
104453764,0.2200927734375,-0.65338134765625,-0.28387451171875,-0.66644287109375,5140,4508,-619,-13,40,204
104463746,0.23724365234375,-0.65716552734375,-0.26556396484375,-0.66436767578125,4997,3930,-575,-9,43,216
104473722,0.25567626953125,-0.6605224609375,-0.24639892578125,-0.66162109375,4801,3306,-500,-5,46,226
104483710,0.2752685546875,-0.66326904296875,-0.2264404296875,-0.6580810546875,4570,2655,-424,0,49,235
104493689,0.29608154296875,-0.66546630859375,-0.20556640625,-0.6536865234375,4275,2005,-368,5,51,246
104503671,0.31817626953125,-0.6671142578125,-0.18377685546875,-0.64813232421875,3924,1344,-322,10,52,258
104513655,0.3414306640625,-0.6680908203125,-0.1611328125,-0.64129638671875,3553,733,-280,15,52,269
104523637,0.365478515625,-0.66827392578125,-0.13775634765625,-0.63311767578125,3193,152,-229,20,52,277
104533620,0.38995361328125,-0.66766357421875,-0.11395263671875,-0.6239013671875,2906,-375,-131,24,52,282
104543604,0.41436767578125,-0.6658935546875,-0.0902099609375,-0.61383056640625,2677,-900,-1,27,52,281
104553588,0.43829345703125,-0.66302490234375,-0.06683349609375,-0.603271484375,2468,-1396,138,31,53,275
104563570,0.46136474609375,-0.65899658203125,-0.044189453125,-0.59246826171875,2295,-1869,294,34,54,265
104573552,0.4833984375,-0.65380859375,-0.0224609375,-0.58172607421875,2134,-2327,435,37,56,254
104583536,0.50433349609375,-0.64764404296875,-0.00164794921875,-0.5711669921875,1941,-2784,563,40,57,241
104593517,0.5242919921875,-0.640625,0.01837158203125,-0.560791015625,1702,-3228,710,41,59,232
104603499,0.5435791015625,-0.63287353515625,0.0380859375,-0.55010986328125,1376,-3723,824,42,59,228
104613482,0.5626220703125,-0.62445068359375,0.05810546875,-0.5386962890625,996,-4239,937,43,59,231
104623465,0.5814208984375,-0.615478515625,0.07861328125,-0.5262451171875,646,-4766,1068,42,58,237
104633449,0.60003662109375,-0.6058349609375,0.099365234375,-0.51287841796875,351,-5248,1205,43,57,241
104643430,0.6181640625,-0.595458984375,0.11993408203125,-0.49896240234375,116,-5673,1397,43,57,240
104653421,0.6353759765625,-0.58447265625,0.14013671875,-0.48480224609375,-111,-6062,1572,43,57,237
104663404,0.65167236328125,-0.57305908203125,0.159912109375,-0.47052001953125,-324,-6307,1716,43,57,233
104673382,0.66680908203125,-0.561279296875,0.1790771484375,-0.45635986328125,-477,-6383,1867,41,58,226
104683362,0.6806640625,-0.54931640625,0.19744873046875,-0.4427490234375,-576,-6406,1981,39,59,217
104693350,0.69317626953125,-0.5372314453125,0.21527099609375,-0.4295654296875,-707,-6468,2079,36,60,208
104703328,0.70465087890625,-0.52508544921875,0.2327880859375,-0.4166259765625,-889,-6661,2244,34,62,203
104713310,0.71533203125,-0.5125732421875,0.25042724609375,-0.40362548828125,-1114,-6979,2407,33,65,203
104723293,0.72540283203125,-0.49957275390625,0.26824951171875,-0.39019775390625,-1364,-7318,2597,32,68,206
104733275,0.7349853515625,-0.48590087890625,0.28631591796875,-0.37652587890625,-1670,-7616,2798,32,72,209
104743256,0.7440185546875,-0.471435546875,0.30474853515625,-0.36236572265625,-2162,-7916,3017,32,75,213
104753245,0.75262451171875,-0.45611572265625,0.32373046875,-0.34735107421875,-2789,-8170,3237,31,78,220
104763228,0.7607421875,-0.44000244140625,0.3433837890625,-0.33123779296875,-3464,-8349,3396,29,81,230
104773212,0.7681884765625,-0.42327880859375,0.363525390625,-0.31396484375,-4042,-8436,3466,26,84,238
104783190,0.77459716796875,-0.40625,0.38360595703125,-0.29632568359375,-4412,-8399,3488,25,86,238
104793181,0.77972412109375,-0.3892822265625,0.40289306640625,-0.27947998046875,-4661,-8297,3475,25,89,228
104803163,0.78350830078125,-0.37261962890625,0.421142578125,-0.2642822265625,-4978,-8180,3476,28,92,209
104813139,0.7860107421875,-0.3563232421875,0.43829345703125,-0.251220703125,-5484,-8126,3494,31,95,188
104823116,0.78741455078125,-0.34039306640625,0.4544677734375,-0.23992919921875,-6181,-8221,3504,34,96,170
104833098,0.7879638671875,-0.3245849609375,0.469970703125,-0.2298583984375,-7002,-8374,3509,38,96,160
104843081,0.7880859375,-0.30865478515625,0.48492431640625,-0.2200927734375,-7894,-8495,3501,40,95,157
104853065,0.7879638671875,-0.29229736328125,0.49951171875,-0.2100830078125,-8746,-8498,3431,41,92,160
104863051,0.78759765625,-0.2755126953125,0.51373291015625,-0.199462890625,-9402,-8428,3351,42,90,165
104873029,0.787109375,-0.25830078125,0.52740478515625,-0.18829345703125,-9822,-8215,3282,43,87,169
104883012,0.786376953125,-0.24114990234375,0.54034423828125,-0.1773681640625,-10082,-7898,3208,43,85,165
104892996,0.7852783203125,-0.22454833984375,0.55218505859375,-0.1673583984375,-10221,-7515,3110,45,81,153
104902983,0.78369140625,-0.208984375,0.5628662109375,-0.15887451171875,-10370,-7135,3042,46,77,135
104912959,0.7818603515625,-0.194580078125,0.57232666015625,-0.15216064453125,-10617,-6810,3033,46,73,116
104922941,0.77984619140625,-0.1815185546875,0.5806884765625,-0.14697265625,-10888,-6535,3012,46,67,99
104932925,0.77783203125,-0.1695556640625,0.5880126953125,-0.1429443359375,-11081,-6283,2985,45,61,87
104942907,0.77593994140625,-0.1585693359375,0.59429931640625,-0.1396484375,-11141,-5993,2949,43,54,77
104952890,0.7742919921875,-0.14849853515625,0.5997314453125,-0.13690185546875,-11046,-5667,2925,41,48,69
104962878,0.7728271484375,-0.13934326171875,0.604248046875,-0.13470458984375,-10844,-5361,2903,39,42,61
104972854,0.77154541015625,-0.131103515625,0.60809326171875,-0.13299560546875,-10570,-5060,2856,37,36,53
104982838,0.77044677734375,-0.1239013671875,0.6112060546875,-0.1319580078125,-10291,-4796,2788,35,31,43
104992820,0.76953125,-0.1177978515625,0.6136474609375,-0.13165283203125,-10012,-4545,2709,33,26,32
105002802,0.7686767578125,-0.1126708984375,0.61553955078125,-0.132080078125,-9731,-4339,2677,30,21,23
105012784,0.76812744140625,-0.10833740234375,0.6168212890625,-0.13287353515625,-9496,-4173,2696,28,17,18
105022772,0.767822265625,-0.1043701171875,0.61773681640625,-0.13372802734375,-9288,-4047,2726,26,14,17
105032753,0.76776123046875,-0.1005859375,0.61834716796875,-0.1341552734375,-9089,-3924,2771,24,11,19
105042736,0.7679443359375,-0.09674072265625,0.6187744140625,-0.13385009765625,-8934,-3819,2828,21,8,26
105052712,0.7684326171875,-0.09259033203125,0.619140625,-0.132568359375,-8799,-3690,2854,17,6,33
105062696,0.76904296875,-0.0882568359375,0.61944580078125,-0.13037109375,-8648,-3550,2837,14,5,40
105072680,0.76971435546875,-0.08392333984375,0.61981201171875,-0.12750244140625,-8477,-3393,2788,11,4,43
105082662,0.77044677734375,-0.0797119140625,0.6201171875,-0.1241455078125,-8291,-3225,2734,8,3,45
105092644,0.7711181640625,-0.075927734375,0.6204833984375,-0.12060546875,-8107,-3072,2655,5,2,44
105102629,0.771728515625,-0.07257080078125,0.62078857421875,-0.1170654296875,-7892,-2942,2575,2,2,41
105112610,0.772216796875,-0.06976318359375,0.62115478515625,-0.11370849609375,-7657,-2813,2510,-1,3,37
105122589,0.77252197265625,-0.0673828125,0.62158203125,-0.11041259765625,-7462,-2692,2456,-3,4,35
105132570,0.7728271484375,-0.0653076171875,0.6220703125,-0.1070556640625,-7349,-2579,2408,-5,4,34
105142554,0.77294921875,-0.0633544921875,0.6226806640625,-0.1036376953125,-7297,-2496,2365,-7,5,34
105152542,0.77294921875,-0.06158447265625,0.6234130859375,-0.10009765625,-7296,-2412,2313,-8,6,33
105162519,0.77288818359375,-0.0599365234375,0.624267578125,-0.096435546875,-7327,-2327,2263,-10,6,33
105172501,0.772705078125,-0.0584716796875,0.6251220703125,-0.0927734375,-7375,-2248,2186,-11,7,32
105182483,0.77252197265625,-0.0572509765625,0.62603759765625,-0.0892333984375,-7452,-2194,2123,-12,7,30
105192464,0.772216796875,-0.05615234375,0.62701416015625,-0.08563232421875,-7542,-2137,2050,-13,7,29
105202449,0.7718505859375,-0.05517578125,0.62799072265625,-0.08203125,-7591,-2092,1967,-13,7,29
105212438,0.771484375,-0.05426025390625,0.62896728515625,-0.07843017578125,-7620,-2071,1913,-14,7,29
105222419,0.77105712890625,-0.0533447265625,0.6300048828125,-0.07489013671875,-7665,-2067,1845,-14,7,29
105232403,0.7706298828125,-0.052490234375,0.63104248046875,-0.07135009765625,-7715,-2054,1804,-14,8,29
105242378,0.7701416015625,-0.05169677734375,0.632080078125,-0.0679931640625,-7773,-2027,1771,-13,8,27
105252363,0.76959228515625,-0.05096435546875,0.63311767578125,-0.06488037109375,-7861,-2000,1719,-12,8,25
105262350,0.76910400390625,-0.05029296875,0.63409423828125,-0.06195068359375,-7959,-1968,1687,-12,8,23
105272326,0.76849365234375,-0.04974365234375,0.63507080078125,-0.05926513671875,-8023,-1944,1649,-11,8,21
105282308,0.76800537109375,-0.0491943359375,0.635986328125,-0.0567626953125,-8085,-1925,1619,-10,7,20
105292293,0.7674560546875,-0.048583984375,0.63690185546875,-0.0543212890625,-8134,-1901,1583,-9,7,20
105302274,0.766845703125,-0.04779052734375,0.63787841796875,-0.052001953125,-8186,-1898,1539,-8,8,21
