subject,Peter Cope
arm,left
label,0
hz,100.17546562936869
time,5.360594

timestamp_us,q0,q1,q2,q3,ax,ay,az,gx,gy,gz
79088229,0.6719970703125,0.21807861328125,0.69580078125,-0.12890625,-8176,988,-561,-2,0,0
79098211,0.6719970703125,0.218017578125,0.69586181640625,-0.128662109375,-8176,985,-559,-3,0,0
79108189,0.6719970703125,0.2178955078125,0.69598388671875,-0.12841796875,-8153,980,-560,-2,0,0
79118185,0.6719970703125,0.21771240234375,0.69610595703125,-0.128173828125,-8129,975,-554,-3,0,-1
79128164,0.67193603515625,0.21746826171875,0.69622802734375,-0.12799072265625,-8139,975,-556,-3,0,-1
79138139,0.671875,0.2171630859375,0.6964111328125,-0.12786865234375,-8153,986,-551,-3,1,-2
79148116,0.67181396484375,0.216796875,0.69659423828125,-0.12774658203125,-8142,985,-543,-3,1,-3
79158098,0.6717529296875,0.21636962890625,0.69683837890625,-0.12774658203125,-8134,986,-538,-3,1,-4
79168080,0.671630859375,0.21588134765625,0.69708251953125,-0.12762451171875,-8135,986,-548,-3,1,-4
79178064,0.6715087890625,0.2154541015625,0.6973876953125,-0.1275634765625,-8135,982,-546,-3,1,-3
79188051,0.67138671875,0.215087890625,0.6976318359375,-0.12744140625,-8114,963,-537,-4,1,-3
79198027,0.6712646484375,0.2147216796875,0.6978759765625,-0.127197265625,-8109,959,-535,-4,2,-2
79208011,0.671142578125,0.21441650390625,0.6981201171875,-0.126953125,-8112,951,-541,-4,2,-1
79217998,0.6710205078125,0.21417236328125,0.6983642578125,-0.1265869140625,-8114,937,-542,-4,2,0
79227983,0.67095947265625,0.21392822265625,0.6986083984375,-0.12615966796875,-8124,933,-537,-4,2,0
79237961,0.6707763671875,0.2137451171875,0.69891357421875,-0.125732421875,-8140,904,-545,-4,3,0
79247941,0.67059326171875,0.21356201171875,0.69921875,-0.12530517578125,-8167,896,-547,-4,3,1
79257926,0.67047119140625,0.21337890625,0.699462890625,-0.12481689453125,-8171,890,-552,-4,3,1
79267908,0.6702880859375,0.2132568359375,0.69976806640625,-0.1243896484375,-8204,888,-551,-4,3,0
79277894,0.67010498046875,0.2130126953125,0.7000732421875,-0.1240234375,-8221,894,-563,-4,3,-1
79287870,0.66986083984375,0.21270751953125,0.700439453125,-0.123779296875,-8223,887,-565,-4,3,-1
79297853,0.669677734375,0.21240234375,0.70074462890625,-0.12359619140625,-8203,885,-546,-3,3,-2
79307835,0.66943359375,0.21197509765625,0.70111083984375,-0.12347412109375,-8193,885,-536,-3,3,-3
79317819,0.669189453125,0.21142578125,0.70147705078125,-0.12347412109375,-8189,877,-524,-3,3,-4
79327801,0.6689453125,0.2109375,0.701904296875,-0.12353515625,-8171,854,-514,-3,3,-4
79337784,0.66876220703125,0.21044921875,0.70220947265625,-0.12359619140625,-8157,834,-513,-3,2,-4
79347771,0.66851806640625,0.2100830078125,0.70257568359375,-0.12359619140625,-8159,827,-526,-2,3,-3
79357753,0.66827392578125,0.2098388671875,0.702880859375,-0.12353515625,-8179,835,-530,-2,3,-2
79367743,0.66802978515625,0.209716796875,0.703125,-0.12335205078125,-8206,834,-530,-2,3,0
79377715,0.6678466796875,0.2095947265625,0.703369140625,-0.1231689453125,-8218,827,-528,-2,3,0
79387699,0.667724609375,0.20953369140625,0.70355224609375,-0.123046875,-8212,840,-504,-1,2,-1
79397677,0.6676025390625,0.20941162109375,0.7037353515625,-0.12298583984375,-8214,840,-495,-1,2,-1
79407661,0.66748046875,0.20928955078125,0.70391845703125,-0.12286376953125,-8228,855,-504,-1,2,-1
79417641,0.6673583984375,0.20916748046875,0.7041015625,-0.12286376953125,-8229,864,-494,-1,1,-2
79427626,0.667236328125,0.208984375,0.7042236328125,-0.1229248046875,-8223,875,-500,-1,1,-2
79437607,0.6671142578125,0.2088623046875,0.704345703125,-0.1229248046875,-8223,879,-518,-1,1,-2
79447589,0.6669921875,0.2088623046875,0.7044677734375,-0.1229248046875,-8231,878,-551,-1,1,-1
79457580,0.66693115234375,0.20880126953125,0.70452880859375,-0.1229248046875,-8237,881,-562,-1,0,0
79467558,0.66693115234375,0.20880126953125,0.70458984375,-0.122802734375,-8236,871,-574,-1,0,0
79477542,0.6668701171875,0.20880126953125,0.70465087890625,-0.12274169921875,-8234,858,-574,-1,0,0
79487524,0.66693115234375,0.208740234375,0.70465087890625,-0.12274169921875,-8245,871,-571,-1,0,-1
79497504,0.6669921875,0.20867919921875,0.70458984375,-0.12274169921875,-8266,871,-570,-1,-1,-1
79507488,0.6669921875,0.2086181640625,0.70452880859375,-0.122802734375,-8285,885,-572,0,-1,-1
79517470,0.6671142578125,0.20849609375,0.7044677734375,-0.12286376953125,-8305,898,-567,-1,-2,-1
79527463,0.66729736328125,0.20849609375,0.704345703125,-0.12286376953125,-8328,900,-567,0,-2,0
79537438,0.66741943359375,0.20849609375,0.7042236328125,-0.12286376953125,-8328,918,-582,0,-2,0
79547425,0.6676025390625,0.2086181640625,0.70404052734375,-0.12274169921875,-8326,908,-593,-1,-2,1
79557404,0.66778564453125,0.20867919921875,0.70379638671875,-0.12261962890625,-8313,919,-584,-1,-2,1
79567389,0.66802978515625,0.20880126953125,0.70361328125,-0.12255859375,-8275,917,-586,-1,-3,1
79577363,0.66827392578125,0.20880126953125,0.703369140625,-0.1224365234375,-8235,927,-574,-1,-3,0
79587350,0.66845703125,0.208740234375,0.70318603515625,-0.1224365234375,-8209,926,-576,-1,-3,0
79597328,0.66864013671875,0.20867919921875,0.70306396484375,-0.1224365234375,-8178,930,-580,-1,-2,-1
79607310,0.6688232421875,0.20855712890625,0.702880859375,-0.12249755859375,-8163,930,-578,-1,-2,-1
79617293,0.66900634765625,0.20843505859375,0.7027587890625,-0.12249755859375,-8143,931,-576,-1,-2,-1
79627273,0.66912841796875,0.2083740234375,0.70263671875,-0.12249755859375,-8152,935,-560,-1,-2,-1
79637260,0.6693115234375,0.2083740234375,0.7025146484375,-0.12237548828125,-8164,934,-564,-1,-2,0
79647237,0.66943359375,0.2083740234375,0.70245361328125,-0.12225341796875,-8163,946,-565,-1,-1,0
79657230,0.6695556640625,0.2083740234375,0.70233154296875,-0.1220703125,-8150,933,-571,-2,-1,1
79667211,0.66961669921875,0.2083740234375,0.7022705078125,-0.1219482421875,-8141,925,-569,-1,-1,0
79677192,0.669677734375,0.20831298828125,0.7022705078125,-0.121826171875,-8121,929,-578,-2,-1,-1
79687180,0.66973876953125,0.20819091796875,0.7022705078125,-0.12176513671875,-8108,932,-573,-2,-1,-1
79697166,0.66973876953125,0.2080078125,0.70233154296875,-0.1217041015625,-8101,936,-577,-1,0,-2
79707142,0.66973876953125,0.20782470703125,0.70245361328125,-0.12164306640625,-8106,937,-574,-2,0,-2
79717118,0.669677734375,0.2076416015625,0.7025146484375,-0.12158203125,-8117,946,-583,-2,0,-2
79727102,0.66961669921875,0.20745849609375,0.70263671875,-0.12152099609375,-8145,942,-589,-2,0,-2
79737082,0.66961669921875,0.207275390625,0.70269775390625,-0.12139892578125,-8157,936,-591,-2,0,-1
79747064,0.6695556640625,0.2071533203125,0.70281982421875,-0.12127685546875,-8160,928,-594,-2,0,-1
79757051,0.6695556640625,0.20697021484375,0.70294189453125,-0.12109375,-8151,926,-596,-2,0,-1
79767030,0.66949462890625,0.206787109375,0.70306396484375,-0.12103271484375,-8157,930,-588,-2,1,-1
79777014,0.66949462890625,0.20654296875,0.70318603515625,-0.12091064453125,-8180,933,-600,-2,0,-2
79786996,0.66943359375,0.20635986328125,0.70330810546875,-0.1207275390625,-8204,945,-603,-2,0,-1
79796984,0.66937255859375,0.2061767578125,0.703369140625,-0.12060546875,-8204,940,-604,-2,0,-1
79806960,0.66937255859375,0.20599365234375,0.7034912109375,-0.120361328125,-8213,944,-616,-3,0,-1
79816950,0.6693115234375,0.20587158203125,0.70361328125,-0.1201171875,-8222,948,-626,-3,1,0
79826927,0.6693115234375,0.20574951171875,0.7037353515625,-0.119873046875,-8224,934,-640,-3,1,0
79836908,0.6693115234375,0.20556640625,0.703857421875,-0.11956787109375,-8223,934,-641,-3,0,0
79846892,0.6693115234375,0.20538330078125,0.7039794921875,-0.11932373046875,-8208,933,-638,-3,0,-1
79856878,0.6693115234375,0.205078125,0.70404052734375,-0.119140625,-8194,920,-636,-3,0,-1
79866854,0.6693115234375,0.20477294921875,0.70416259765625,-0.1190185546875,-8180,914,-624,-3,0,-3
79876838,0.6693115234375,0.204345703125,0.70428466796875,-0.11895751953125,-8162,909,-622,-3,0,-3
79886819,0.6693115234375,0.203857421875,0.7044677734375,-0.11895751953125,-8147,913,-612,-3,0,-4
79896802,0.6693115234375,0.203369140625,0.70458984375,-0.11895751953125,-8143,900,-604,-3,0,-4
79906786,0.6693115234375,0.202880859375,0.7047119140625,-0.11895751953125,-8145,893,-612,-3,0,-4
79916766,0.6693115234375,0.20245361328125,0.704833984375,-0.118896484375,-8164,886,-622,-3,0,-2
79926756,0.66937255859375,0.20208740234375,0.7049560546875,-0.11871337890625,-8175,881,-622,-3,0,-1
79936746,0.66943359375,0.201904296875,0.7049560546875,-0.11846923828125,-8169,893,-625,-3,-1,0
79946717,0.66949462890625,0.2017822265625,0.70501708984375,-0.11810302734375,-8190,883,-652,-3,-1,1
79956697,0.66961669921875,0.20172119140625,0.70501708984375,-0.11767578125,-8196,873,-655,-3,-1,2
79966683,0.669677734375,0.20172119140625,0.70501708984375,-0.1171875,-8209,871,-657,-3,0,3
79976663,0.6697998046875,0.2017822265625,0.7049560546875,-0.11663818359375,-8226,879,-637,-3,0,3
79986648,0.669921875,0.20184326171875,0.70489501953125,-0.11614990234375,-8223,875,-628,-3,0,3
79996635,0.66998291015625,0.201904296875,0.70489501953125,-0.11572265625,-8206,868,-612,-3,0,3
80006612,0.67010498046875,0.20196533203125,0.704833984375,-0.115234375,-8198,878,-594,-3,0,2
80016594,0.670166015625,0.20196533203125,0.704833984375,-0.11480712890625,-8187,886,-591,-3,0,2
80026578,0.67022705078125,0.20184326171875,0.70489501953125,-0.114501953125,-8167,879,-593,-3,0,0
80036563,0.67022705078125,0.20172119140625,0.7049560546875,-0.11431884765625,-8148,882,-602,-2,0,-1
80046542,0.670166015625,0.20147705078125,0.705078125,-0.1142578125,-8122,888,-597,-2,1,-2
80056522,0.67010498046875,0.20111083984375,0.7052001953125,-0.1142578125,-8108,891,-588,-2,0,-3
80069995,0.6700439453125,0.2008056640625,0.70538330078125,-0.11431884765625,-8107,877,-588,-2,1,-3
80076489,0.66998291015625,0.200439453125,0.70550537109375,-0.1143798828125,-8113,859,-578,-2,1,-3
80086471,0.66986083984375,0.2000732421875,0.7056884765625,-0.11444091796875,-8129,863,-592,-2,1,-3
80096453,0.6697998046875,0.1998291015625,0.70587158203125,-0.11456298828125,-8126,854,-579,-1,1,-3
80106432,0.66973876953125,0.19952392578125,0.70599365234375,-0.11468505859375,-8130,841,-577,-1,0,-3
80116423,0.66961669921875,0.19921875,0.7061767578125,-0.11480712890625,-8124,843,-589,-1,1,-3
80126406,0.66949462890625,0.198974609375,0.706298828125,-0.11492919921875,-8129,832,-589,-1,1,-3
80136382,0.66937255859375,0.19879150390625,0.70648193359375,-0.11505126953125,-8124,837,-590,-1,1,-2
80146369,0.66925048828125,0.19866943359375,0.70660400390625,-0.1151123046875,-8126,835,-611,0,1,-2
80156353,0.66912841796875,0.1986083984375,0.70672607421875,-0.1151123046875,-8150,832,-628,0,1,-1
80166339,0.6689453125,0.19866943359375,0.7069091796875,-0.1151123046875,-8188,826,-625,0,1,0
80176317,0.6688232421875,0.19879150390625,0.70697021484375,-0.11505126953125,-8220,817,-642,0,1,1
80186299,0.668701171875,0.198974609375,0.70709228515625,-0.114990234375,-8241,821,-654,0,1,1
80196282,0.6685791015625,0.19915771484375,0.7071533203125,-0.11492919921875,-8270,834,-661,0,1,1
80206264,0.66845703125,0.1993408203125,0.70721435546875,-0.11492919921875,-8273,831,-672,0,0,0
80216244,0.6683349609375,0.19940185546875,0.707275390625,-0.11505126953125,-8266,842,-673,1,0,-1
80226231,0.66827392578125,0.19940185546875,0.707275390625,-0.11529541015625,-8273,862,-668,1,0,-2
80236215,0.66815185546875,0.19940185546875,0.70733642578125,-0.11553955078125,-8273,871,-670,1,0,-3
80246205,0.6680908203125,0.19940185546875,0.7073974609375,-0.1158447265625,-8271,863,-681,1,-1,-2
80256186,0.66802978515625,0.19940185546875,0.7073974609375,-0.1160888671875,-8281,865,-690,2,-1,-1
80266167,0.66796875,0.19952392578125,0.70733642578125,-0.1163330078125,-8275,862,-704,2,-1,-1
80276156,0.66796875,0.19970703125,0.707275390625,-0.11651611328125,-8269,865,-714,2,-1,0
80286122,0.66796875,0.199951171875,0.70721435546875,-0.11663818359375,-8257,864,-716,2,-1,0
80296104,0.66796875,0.20025634765625,0.70709228515625,-0.11676025390625,-8246,879,-709,2,-1,1
80306086,0.66802978515625,0.2005615234375,0.7069091796875,-0.116943359375,-8251,884,-703,2,-2,0
80316068,0.6680908203125,0.2008056640625,0.706787109375,-0.11712646484375,-8244,882,-696,2,-2,0
80326051,0.6680908203125,0.2010498046875,0.7066650390625,-0.117431640625,-8224,886,-695,2,-2,-1
80336033,0.66815185546875,0.201171875,0.70654296875,-0.1177978515625,-8218,880,-707,3,-2,-2
80346015,0.66815185546875,0.20135498046875,0.70635986328125,-0.1181640625,-8208,881,-707,3,-2,-1
80355997,0.668212890625,0.2015380859375,0.70623779296875,-0.1185302734375,-8208,891,-697,3,-2,-2
80365987,0.66827392578125,0.2017822265625,0.7060546875,-0.118896484375,-8218,895,-715,3,-2,-1
80375974,0.6683349609375,0.2020263671875,0.70587158203125,-0.11920166015625,-8218,894,-717,3,-3,0
80385945,0.66845703125,0.20233154296875,0.70562744140625,-0.11944580078125,-8208,905,-706,3,-3,0
80395930,0.66851806640625,0.2027587890625,0.70538330078125,-0.11962890625,-8202,906,-706,3,-3,1
80405910,0.66864013671875,0.20318603515625,0.70513916015625,-0.11981201171875,-8179,912,-697,3,-3,1
80415895,0.66876220703125,0.20361328125,0.70489501953125,-0.1199951171875,-8156,914,-679,3,-2,1
80425878,0.6688232421875,0.20404052734375,0.70458984375,-0.12017822265625,-8146,928,-664,3,-3,1
80435859,0.66888427734375,0.20452880859375,0.704345703125,-0.12042236328125,-8123,936,-650,4,-2,1
80445843,0.66900634765625,0.2049560546875,0.70416259765625,-0.12060546875,-8115,943,-632,3,-2,1
80455822,0.6690673828125,0.2054443359375,0.70391845703125,-0.1207275390625,-8119,958,-641,3,-2,1
80465806,0.6690673828125,0.20587158203125,0.7037353515625,-0.12091064453125,-8130,963,-651,3,-2,1
80475787,0.6690673828125,0.2064208984375,0.70361328125,-0.12103271484375,-8128,971,-662,3,-1,2
80485769,0.66900634765625,0.2069091796875,0.7034912109375,-0.12115478515625,-8123,978,-672,3,-1,1
80495760,0.6689453125,0.20733642578125,0.703369140625,-0.12127685546875,-8124,980,-661,3,-1,1
80505741,0.6689453125,0.20770263671875,0.7032470703125,-0.12139892578125,-8111,982,-652,3,-1,0
80515723,0.6688232421875,0.20806884765625,0.7032470703125,-0.12164306640625,-8113,983,-639,3,0,0
80525703,0.668701171875,0.20831298828125,0.70318603515625,-0.12188720703125,-8130,1002,-634,3,0,-1
80535685,0.6685791015625,0.20855712890625,0.7032470703125,-0.1221923828125,-8143,1006,-636,3,1,-2
80545667,0.66839599609375,0.20867919921875,0.70330810546875,-0.12249755859375,-8139,997,-640,3,0,-2
80555649,0.66815185546875,0.20880126953125,0.703369140625,-0.12286376953125,-8141,999,-639,3,1,-3
80565635,0.66796875,0.20892333984375,0.7034912109375,-0.123291015625,-8139,996,-631,3,1,-3
80575613,0.667724609375,0.20892333984375,0.70361328125,-0.1236572265625,-8134,1001,-629,2,1,-3
80585597,0.66748046875,0.20892333984375,0.70379638671875,-0.12408447265625,-8113,994,-637,2,1,-4
80595579,0.667236328125,0.20892333984375,0.7039794921875,-0.12445068359375,-8100,984,-637,2,1,-4
80605561,0.66693115234375,0.208984375,0.70416259765625,-0.12481689453125,-8102,971,-638,2,2,-3
80615542,0.666748046875,0.20904541015625,0.70428466796875,-0.1251220703125,-8118,970,-631,2,1,-3
80625525,0.66650390625,0.209228515625,0.70440673828125,-0.12530517578125,-8137,974,-648,2,2,-1
80635514,0.66632080078125,0.20941162109375,0.70452880859375,-0.12542724609375,-8143,970,-642,2,2,0
80645492,0.66607666015625,0.209716796875,0.70465087890625,-0.12548828125,-8141,958,-648,2,1,0
80655476,0.66595458984375,0.21002197265625,0.7047119140625,-0.12542724609375,-8136,957,-649,1,1,1
80665458,0.665771484375,0.2103271484375,0.70477294921875,-0.12542724609375,-8138,963,-656,1,1,1
80675438,0.66558837890625,0.21063232421875,0.704833984375,-0.1253662109375,-8156,966,-664,1,1,1
80685428,0.6654052734375,0.2109375,0.7049560546875,-0.1253662109375,-8152,967,-672,1,1,0
80695410,0.665283203125,0.211181640625,0.70501708984375,-0.1253662109375,-8146,969,-674,1,1,0
80705395,0.66510009765625,0.21142578125,0.705078125,-0.1253662109375,-8166,976,-697,1,1,0
80715371,0.66497802734375,0.21160888671875,0.70513916015625,-0.12530517578125,-8166,974,-678,0,1,0
80725353,0.6649169921875,0.21185302734375,0.70513916015625,-0.125244140625,-8177,975,-684,1,1,1
80735335,0.664794921875,0.2120361328125,0.7052001953125,-0.12518310546875,-8199,972,-694,0,1,0
80745319,0.66473388671875,0.2122802734375,0.70526123046875,-0.1251220703125,-8228,967,-699,0,0,1
80755299,0.66461181640625,0.21246337890625,0.70526123046875,-0.125,-8237,974,-705,0,0,1
80765283,0.66461181640625,0.212646484375,0.70526123046875,-0.12493896484375,-8233,976,-704,0,0,0
80775268,0.66455078125,0.212646484375,0.705322265625,-0.12493896484375,-8216,974,-693,0,0,-1
80785244,0.66448974609375,0.212646484375,0.70538330078125,-0.125,-8208,967,-683,0,0,-2
80795233,0.6644287109375,0.21258544921875,0.70538330078125,-0.1251220703125,-8206,970,-673,0,0,-3
80805222,0.66436767578125,0.21240234375,0.70550537109375,-0.12530517578125,-8195,967,-674,0,0,-3
80815205,0.664306640625,0.21221923828125,0.70556640625,-0.12548828125,-8173,973,-664,0,0,-3
80825189,0.664306640625,0.2120361328125,0.70562744140625,-0.12554931640625,-8186,967,-662,-1,0,-2
80835174,0.664306640625,0.21197509765625,0.70562744140625,-0.1256103515625,-8206,955,-683,-1,0,-1
80845159,0.664306640625,0.21197509765625,0.70562744140625,-0.12554931640625,-8217,954,-686,-1,0,0
80855125,0.664306640625,0.2120361328125,0.70562744140625,-0.1253662109375,-8207,938,-691,-1,-1,1
80865108,0.6644287109375,0.21209716796875,0.70556640625,-0.12518310546875,-8212,933,-683,-1,-1,1
80875090,0.66448974609375,0.21221923828125,0.7054443359375,-0.12493896484375,-8201,929,-688,-1,-1,2
80885068,0.66461181640625,0.2122802734375,0.70538330078125,-0.12469482421875,-8184,916,-698,-1,-1,2
80895051,0.6646728515625,0.21240234375,0.705322265625,-0.12445068359375,-8192,925,-686,-1,-1,1
80905036,0.664794921875,0.21240234375,0.70526123046875,-0.124267578125,-8205,916,-671,-1,-1,1
80915017,0.66485595703125,0.21246337890625,0.7052001953125,-0.1240234375,-8217,928,-674,-2,-1,1
80925000,0.66497802734375,0.21246337890625,0.70513916015625,-0.12384033203125,-8208,928,-671,-2,-1,0
80934988,0.6650390625,0.21246337890625,0.70513916015625,-0.1236572265625,-8207,940,-690,-2,-1,0
80944965,0.6650390625,0.21246337890625,0.70513916015625,-0.12347412109375,-8232,935,-701,-2,-1,0
80954951,0.66510009765625,0.2122802734375,0.70513916015625,-0.1234130859375,-8237,923,-708,-2,-1,-1
80964927,0.6651611328125,0.212158203125,0.7052001953125,-0.12335205078125,-8214,919,-717,-2,-1,-2
80974914,0.6651611328125,0.2119140625,0.70526123046875,-0.12335205078125,-8191,920,-719,-2,0,-2
80984894,0.6651611328125,0.21160888671875,0.705322265625,-0.1234130859375,-8176,913,-708,-2,0,-3
80994878,0.66510009765625,0.21124267578125,0.7054443359375,-0.12347412109375,-8182,910,-702,-2,0,-3
81004860,0.66510009765625,0.21087646484375,0.70550537109375,-0.12353515625,-8191,919,-690,-2,0,-3
81014841,0.6651611328125,0.2105712890625,0.70562744140625,-0.12353515625,-8184,924,-678,-2,0,-2
81024824,0.6651611328125,0.2103271484375,0.7056884765625,-0.12347412109375,-8189,923,-669,-2,0,-2
81034807,0.6651611328125,0.21014404296875,0.70574951171875,-0.12335205078125,-8184,916,-694,-2,0,-1
81044788,0.6651611328125,0.2099609375,0.705810546875,-0.12322998046875,-8179,928,-713,-2,0,-1
81054768,0.66522216796875,0.20977783203125,0.70587158203125,-0.123046875,-8173,924,-701,-2,-1,-1
81064766,0.665283203125,0.2095947265625,0.7059326171875,-0.12286376953125,-8184,924,-714,-2,0,-1
81074749,0.66534423828125,0.20941162109375,0.7059326171875,-0.1226806640625,-8184,932,-709,-3,-1,0
81084720,0.66546630859375,0.209228515625,0.7059326171875,-0.1224365234375,-8183,925,-702,-3,-1,0
81094701,0.66558837890625,0.20904541015625,0.7059326171875,-0.12213134765625,-8173,934,-688,-3,-1,0
81104685,0.66571044921875,0.20892333984375,0.70587158203125,-0.121826171875,-8168,936,-683,-3,-1,0
81114666,0.665771484375,0.208740234375,0.70587158203125,-0.1214599609375,-8158,930,-686,-4,-1,1
81124654,0.6658935546875,0.20855712890625,0.7059326171875,-0.12109375,-8151,935,-693,-4,0,0
81134635,0.666015625,0.20831298828125,0.70599365234375,-0.1207275390625,-8139,942,-690,-4,0,0
81144620,0.66607666015625,0.20794677734375,0.7060546875,-0.12042236328125,-8140,940,-676,-4,-1,-1
81154599,0.6661376953125,0.20758056640625,0.70611572265625,-0.12017822265625,-8131,941,-679,-4,0,-2
81164578,0.66619873046875,0.20709228515625,0.70623779296875,-0.11993408203125,-8119,943,-691,-5,0,-2
81174561,0.666259765625,0.20660400390625,0.70635986328125,-0.11962890625,-8116,941,-688,-5,0,-2
81184546,0.66632080078125,0.20611572265625,0.70648193359375,-0.119384765625,-8115,937,-680,-5,0,-2
81194527,0.6663818359375,0.20562744140625,0.7066650390625,-0.1190185546875,-8121,945,-666,-5,0,-2
81204509,0.66650390625,0.2052001953125,0.706787109375,-0.11865234375,-8104,960,-656,-5,0,-1
81214492,0.66656494140625,0.204833984375,0.7069091796875,-0.1181640625,-8096,956,-644,-5,1,-1
81224480,0.6666259765625,0.20440673828125,0.70703125,-0.11767578125,-8100,962,-632,-6,1,0
81234465,0.66668701171875,0.2039794921875,0.70721435546875,-0.1171875,-8113,954,-621,-6,1,0
81244438,0.666748046875,0.20355224609375,0.70733642578125,-0.11663818359375,-8118,958,-617,-6,1,-1
81254424,0.666748046875,0.203125,0.70751953125,-0.11614990234375,-8120,955,-621,-6,1,-1
81264407,0.666748046875,0.20263671875,0.707763671875,-0.1156005859375,-8129,957,-630,-6,1,-1
81274389,0.666748046875,0.2021484375,0.7080078125,-0.11505126953125,-8141,964,-641,-6,1,-1
81284365,0.66668701171875,0.20166015625,0.708251953125,-0.11456298828125,-8144,965,-651,-7,1,-1
81294350,0.66668701171875,0.201171875,0.70849609375,-0.114013671875,-8154,947,-649,-7,2,-1
81304330,0.66668701171875,0.20062255859375,0.708740234375,-0.1134033203125,-8152,937,-649,-7,2,-1
81314314,0.66656494140625,0.2000732421875,0.7091064453125,-0.11285400390625,-8132,913,-643,-7,3,-1
81324296,0.66644287109375,0.1995849609375,0.70947265625,-0.11224365234375,-8100,900,-651,-7,3,-1
81334279,0.6661376953125,0.1990966796875,0.7099609375,-0.1116943359375,-8062,907,-652,-6,5,-2
81344261,0.665771484375,0.19854736328125,0.7105712890625,-0.11114501953125,-8018,904,-650,-6,6,-3
81354240,0.66522216796875,0.19793701171875,0.7113037109375,-0.11065673828125,-7959,904,-656,-6,7,-4
81364232,0.66455078125,0.19720458984375,0.71221923828125,-0.11029052734375,-7904,909,-660,-6,9,-5
81374213,0.6636962890625,0.19647216796875,0.7132568359375,-0.10992431640625,-7854,898,-665,-6,10,-6
81384194,0.6627197265625,0.19561767578125,0.71441650390625,-0.10955810546875,-7790,897,-674,-6,12,-6
81394186,0.66162109375,0.19482421875,0.71575927734375,-0.109130859375,-7740,893,-675,-7,13,-7
81404174,0.660400390625,0.19403076171875,0.7171630859375,-0.108642578125,-7693,898,-686,-7,15,-6
81414144,0.6590576171875,0.19329833984375,0.71868896484375,-0.10797119140625,-7685,913,-701,-7,17,-5
81424119,0.6575927734375,0.19268798828125,0.7203369140625,-0.107177734375,-7690,935,-729,-8,18,-4
81434102,0.65606689453125,0.192138671875,0.72198486328125,-0.10614013671875,-7719,961,-758,-8,20,-3
81444084,0.65447998046875,0.19171142578125,0.7237548828125,-0.10491943359375,-7742,969,-784,-9,21,-1
81454075,0.65277099609375,0.19146728515625,0.7255859375,-0.10345458984375,-7757,986,-818,-9,22,1
81464054,0.65106201171875,0.19134521484375,0.72735595703125,-0.10174560546875,-7777,994,-843,-10,23,4
81474038,0.64935302734375,0.19140625,0.72918701171875,-0.09967041015625,-7797,1012,-855,-11,24,7
81484021,0.64752197265625,0.191650390625,0.73101806640625,-0.0972900390625,-7810,1025,-921,-12,25,9
81494003,0.6456298828125,0.19207763671875,0.73297119140625,-0.09466552734375,-7809,1051,-978,-13,26,11
81503991,0.6436767578125,0.192626953125,0.73492431640625,-0.0916748046875,-7813,1082,-1039,-14,27,13
81513967,0.64166259765625,0.19317626953125,0.73687744140625,-0.08856201171875,-7805,1092,-1085,-15,28,15
81523949,0.63958740234375,0.19378662109375,0.73895263671875,-0.08526611328125,-7826,1129,-1136,-16,29,15
81533932,0.637451171875,0.19427490234375,0.74102783203125,-0.0819091796875,-7853,1152,-1190,-16,29,14
81543916,0.63531494140625,0.19464111328125,0.74310302734375,-0.07855224609375,-7887,1198,-1252,-17,30,13
81553899,0.63311767578125,0.19482421875,0.74530029296875,-0.07525634765625,-7943,1228,-1320,-18,30,12
81563882,0.630859375,0.19476318359375,0.74749755859375,-0.072021484375,-8017,1268,-1386,-18,30,10
81573866,0.628662109375,0.1944580078125,0.749755859375,-0.06890869140625,-8082,1289,-1458,-19,30,8
81583848,0.62646484375,0.19390869140625,0.75201416015625,-0.06591796875,-8159,1300,-1524,-19,29,5
81593831,0.624267578125,0.193115234375,0.7542724609375,-0.0631103515625,-8221,1309,-1588,-20,29,4
81603813,0.6221923828125,0.19207763671875,0.7564697265625,-0.0604248046875,-8271,1320,-1639,-20,27,2
81613794,0.6202392578125,0.1907958984375,0.75860595703125,-0.05780029296875,-8306,1318,-1697,-21,26,0
81623784,0.6182861328125,0.189453125,0.76068115234375,-0.0552978515625,-8345,1320,-1760,-21,25,0
81633767,0.6165771484375,0.18804931640625,0.76263427734375,-0.052734375,-8369,1303,-1804,-22,24,0
81643750,0.6148681640625,0.1865234375,0.7645263671875,-0.05023193359375,-8363,1294,-1867,-22,22,-1
81653733,0.61334228515625,0.18499755859375,0.76629638671875,-0.04766845703125,-8386,1299,-1905,-22,21,0
81663708,0.61199951171875,0.1834716796875,0.7679443359375,-0.045166015625,-8422,1296,-1955,-23,20,0
81673689,0.6107177734375,0.18194580078125,0.7694091796875,-0.0426025390625,-8450,1288,-1999,-23,18,1
81683672,0.609619140625,0.18035888671875,0.77081298828125,-0.04010009765625,-8464,1287,-2025,-23,17,0
81693655,0.60870361328125,0.1787109375,0.77203369140625,-0.03765869140625,-8480,1289,-2056,-23,15,0
81703638,0.60797119140625,0.17706298828125,0.77313232421875,-0.0352783203125,-8489,1293,-2099,-23,13,-1
81713618,0.60736083984375,0.17529296875,0.77410888671875,-0.03302001953125,-8484,1286,-2131,-23,11,-2
81723600,0.60687255859375,0.17352294921875,0.77496337890625,-0.03082275390625,-8474,1289,-2155,-23,9,-2
81733583,0.6065673828125,0.17169189453125,0.77569580078125,-0.02862548828125,-8445,1282,-2183,-23,8,-2
81743565,0.60638427734375,0.1697998046875,0.77630615234375,-0.0264892578125,-8409,1292,-2198,-23,6,-2
81753549,0.60638427734375,0.16802978515625,0.77679443359375,-0.02435302734375,-8367,1289,-2210,-23,5,-1
81763530,0.60638427734375,0.166259765625,0.7772216796875,-0.022216796875,-8320,1296,-2220,-23,4,-1
81773517,0.6065673828125,0.16461181640625,0.77752685546875,-0.02001953125,-8263,1300,-2228,-23,3,0
81783497,0.60675048828125,0.16290283203125,0.77777099609375,-0.01776123046875,-8200,1316,-2219,-23,2,0
81793482,0.60693359375,0.1612548828125,0.77801513671875,-0.01556396484375,-8146,1333,-2238,-24,2,0
81803463,0.607177734375,0.1595458984375,0.7781982421875,-0.0133056640625,-8107,1351,-2233,-24,2,0
81813449,0.607421875,0.15777587890625,0.7784423828125,-0.0111083984375,-8083,1374,-2243,-24,2,-1
81823431,0.60760498046875,0.156005859375,0.77862548828125,-0.0089111328125,-8061,1397,-2258,-24,1,-1
81833414,0.60784912109375,0.1541748046875,0.77886962890625,-0.00677490234375,-8020,1407,-2266,-24,1,-2
81843395,0.608154296875,0.15216064453125,0.779052734375,-0.0047607421875,-7978,1419,-2256,-24,1,-3
81853369,0.6083984375,0.15008544921875,0.77923583984375,-0.00274658203125,-7937,1437,-2251,-24,1,-4
81863353,0.60870361328125,0.14801025390625,0.7794189453125,-0.00079345703125,-7917,1420,-2254,-24,1,-4
81873336,0.6090087890625,0.14581298828125,0.77960205078125,0.00115966796875,-7909,1411,-2256,-24,0,-5
81883316,0.60931396484375,0.14361572265625,0.77972412109375,0.00311279296875,-7900,1414,-2251,-24,0,-4
81893300,0.609619140625,0.14141845703125,0.7799072265625,0.005126953125,-7895,1419,-2252,-25,0,-5
81903284,0.60992431640625,0.13916015625,0.780029296875,0.0069580078125,-7882,1410,-2253,-24,0,-6
81913266,0.6102294921875,0.13677978515625,0.78021240234375,0.0087890625,-7868,1408,-2270,-25,0,-7
81923245,0.61053466796875,0.13427734375,0.7803955078125,0.010498046875,-7859,1402,-2277,-24,0,-8
81933237,0.61083984375,0.1317138671875,0.78057861328125,0.01214599609375,-7858,1392,-2284,-24,0,-8
81943220,0.61114501953125,0.1292724609375,0.78070068359375,0.0137939453125,-7858,1378,-2287,-24,0,-7
81953205,0.611328125,0.126953125,0.7808837890625,0.0155029296875,-7860,1353,-2288,-23,0,-6
81963190,0.611572265625,0.124755859375,0.78106689453125,0.01727294921875,-7869,1348,-2293,-23,0,-5
81973174,0.61175537109375,0.1226806640625,0.78118896484375,0.01904296875,-7858,1344,-2291,-23,1,-4
81983155,0.61187744140625,0.12066650390625,0.7813720703125,0.02081298828125,-7848,1345,-2294,-22,1,-4
81993126,0.61199951171875,0.11865234375,0.781494140625,0.02252197265625,-7835,1334,-2272,-22,1,-5
82003109,0.61212158203125,0.1165771484375,0.78167724609375,0.024169921875,-7841,1334,-2279,-21,1,-5
82013089,0.6121826171875,0.114501953125,0.78192138671875,0.02569580078125,-7837,1325,-2280,-21,1,-6
82023073,0.6121826171875,0.11236572265625,0.78216552734375,0.02716064453125,-7819,1306,-2275,-20,2,-7
82033056,0.61224365234375,0.1102294921875,0.78240966796875,0.02850341796875,-7798,1284,-2272,-20,1,-7
82043039,0.61224365234375,0.10809326171875,0.7825927734375,0.02978515625,-7794,1267,-2256,-19,1,-7
82053021,0.61224365234375,0.10614013671875,0.7828369140625,0.03094482421875,-7793,1251,-2244,-18,2,-7
82063003,0.6121826171875,0.10418701171875,0.7830810546875,0.0321044921875,-7783,1241,-2234,-18,2,-6
82072992,0.61212158203125,0.10235595703125,0.7833251953125,0.033203125,-7777,1235,-2231,-16,2,-6
82082975,0.612060546875,0.1005859375,0.7835693359375,0.0341796875,-7789,1230,-2221,-16,2,-6
82092951,0.61199951171875,0.098876953125,0.7838134765625,0.03515625,-7807,1244,-2210,-15,2,-6
82102932,0.61187744140625,0.09722900390625,0.7840576171875,0.03594970703125,-7812,1256,-2205,-14,2,-7
82112915,0.61175537109375,0.09564208984375,0.7843017578125,0.0367431640625,-7800,1257,-2207,-13,2,-7
82122899,0.61163330078125,0.09405517578125,0.78460693359375,0.037353515625,-7774,1252,-2207,-12,2,-7
82132881,0.61151123046875,0.092529296875,0.78485107421875,0.03790283203125,-7752,1253,-2190,-12,2,-7
82142863,0.61138916015625,0.091064453125,0.78509521484375,0.0384521484375,-7739,1247,-2192,-11,2,-6
82152846,0.6112060546875,0.08978271484375,0.78533935546875,0.03900146484375,-7729,1245,-2174,-10,2,-5
82162830,0.61102294921875,0.0887451171875,0.7855224609375,0.0396728515625,-7759,1240,-2191,-10,2,-3
82172812,0.61077880859375,0.0880126953125,0.78582763671875,0.0404052734375,-7784,1230,-2201,-8,2,-1
82182800,0.61053466796875,0.08746337890625,0.7860107421875,0.0411376953125,-7787,1225,-2181,-8,2,1
82192784,0.61029052734375,0.08721923828125,0.78619384765625,0.0419921875,-7790,1231,-2181,-7,2,3
82202767,0.6099853515625,0.08709716796875,0.786376953125,0.0428466796875,-7798,1234,-2163,-6,3,4
82212750,0.60968017578125,0.08709716796875,0.78656005859375,0.04364013671875,-7812,1261,-2183,-5,3,4
82222733,0.609375,0.08709716796875,0.78680419921875,0.04437255859375,-7820,1265,-2175,-5,3,4
82232711,0.60906982421875,0.08709716796875,0.7869873046875,0.04498291015625,-7831,1280,-2158,-4,3,3
82242696,0.6087646484375,0.08709716796875,0.78717041015625,0.04547119140625,-7819,1298,-2162,-3,3,2
82252677,0.6083984375,0.087158203125,0.78741455078125,0.0458984375,-7807,1317,-2157,-3,3,2
82262660,0.60809326171875,0.08721923828125,0.78765869140625,0.0462646484375,-7819,1332,-2168,-2,3,2
82272643,0.60772705078125,0.0872802734375,0.78790283203125,0.046630859375,-7836,1359,-2172,-2,3,2
82282622,0.607421875,0.08740234375,0.7880859375,0.04693603515625,-7843,1384,-2166,-2,3,2
82292605,0.60711669921875,0.0875244140625,0.788330078125,0.0472412109375,-7848,1421,-2161,-1,3,2
82302587,0.60675048828125,0.08770751953125,0.78857421875,0.04754638671875,-7839,1446,-2160,-1,3,2
82312571,0.60638427734375,0.087890625,0.788818359375,0.04779052734375,-7836,1456,-2148,-1,3,2
82322553,0.60601806640625,0.08807373046875,0.78900146484375,0.04803466796875,-7830,1456,-2140,-1,3,2
82332536,0.60565185546875,0.0882568359375,0.789306640625,0.04827880859375,-7839,1466,-2149,-1,3,2
82342522,0.60528564453125,0.0885009765625,0.78955078125,0.0484619140625,-7823,1472,-2153,0,3,2
82352507,0.60491943359375,0.0887451171875,0.78973388671875,0.0487060546875,-7835,1474,-2159,0,3,3
82362484,0.60455322265625,0.0889892578125,0.7900390625,0.04901123046875,-7839,1490,-2164,0,3,3
82372469,0.60418701171875,0.08929443359375,0.79022216796875,0.04925537109375,-7861,1506,-2168,-1,3,3
82382451,0.60382080078125,0.089599609375,0.79046630859375,0.049560546875,-7887,1527,-2169,0,3,3
82392438,0.60357666015625,0.08984375,0.7906494140625,0.04974365234375,-7891,1524,-2156,0,3,2
82402421,0.603271484375,0.09014892578125,0.790771484375,0.04998779296875,-7901,1540,-2158,0,3,3
82412403,0.60296630859375,0.09039306640625,0.79095458984375,0.0501708984375,-7906,1538,-2151,0,3,2
82422379,0.6026611328125,0.09063720703125,0.7911376953125,0.0504150390625,-7913,1543,-2167,0,2,2
82432362,0.6024169921875,0.0909423828125,0.79132080078125,0.05059814453125,-7921,1544,-2180,0,2,3
82442343,0.6021728515625,0.09124755859375,0.79144287109375,0.05084228515625,-7912,1543,-2192,0,2,3
82452327,0.6019287109375,0.09161376953125,0.79156494140625,0.051025390625,-7907,1546,-2206,0,2,3
82462307,0.60174560546875,0.09197998046875,0.79168701171875,0.05133056640625,-7900,1557,-2201,0,2,3
82472293,0.60150146484375,0.09234619140625,0.79180908203125,0.05157470703125,-7892,1560,-2204,0,2,3
82482275,0.601318359375,0.0926513671875,0.7918701171875,0.0517578125,-7894,1573,-2192,0,2,3
82492257,0.60113525390625,0.09295654296875,0.7919921875,0.05194091796875,-7876,1582,-2200,0,1,2
82502236,0.6009521484375,0.0931396484375,0.7921142578125,0.052001953125,-7887,1601,-2210,0,2,1
82512229,0.60076904296875,0.09326171875,0.792236328125,0.05206298828125,-7873,1608,-2216,0,1,0
82522219,0.6005859375,0.09326171875,0.7923583984375,0.0521240234375,-7873,1601,-2234,0,1,-1
82532189,0.60040283203125,0.09326171875,0.79248046875,0.05206298828125,-7861,1602,-2233,0,1,-1
82542179,0.6002197265625,0.09320068359375,0.7926025390625,0.052001953125,-7849,1583,-2241,0,1,-1
82552163,0.60003662109375,0.0931396484375,0.79278564453125,0.0518798828125,-7846,1581,-2222,0,2,-1
82562139,0.599853515625,0.0931396484375,0.79290771484375,0.05181884765625,-7843,1565,-2224,1,2,-1
82572121,0.59967041015625,0.09320068359375,0.7930908203125,0.05169677734375,-7850,1558,-2232,1,2,0
82582099,0.59942626953125,0.09332275390625,0.79327392578125,0.05157470703125,-7844,1555,-2252,1,2,0
82592082,0.59918212890625,0.093505859375,0.79339599609375,0.051513671875,-7835,1547,-2237,1,2,1
82602065,0.59893798828125,0.09368896484375,0.7935791015625,0.0513916015625,-7822,1551,-2245,2,2,0
82612051,0.59869384765625,0.0938720703125,0.79376220703125,0.05120849609375,-7811,1543,-2245,2,2,0
82622030,0.59844970703125,0.09405517578125,0.7939453125,0.05096435546875,-7810,1534,-2236,2,2,0
82632012,0.59820556640625,0.09423828125,0.79412841796875,0.05072021484375,-7811,1527,-2245,3,2,0
82641995,0.597900390625,0.09442138671875,0.7943115234375,0.0504150390625,-7806,1508,-2250,3,2,0
82651983,0.59759521484375,0.0947265625,0.7945556640625,0.050048828125,-7818,1486,-2275,4,3,0
82661959,0.59722900390625,0.09503173828125,0.7947998046875,0.0496826171875,-7831,1466,-2285,4,3,0
82671937,0.596923828125,0.0953369140625,0.7950439453125,0.0491943359375,-7835,1440,-2288,5,2,0
82681921,0.59661865234375,0.0958251953125,0.79522705078125,0.04864501953125,-7850,1406,-2282,6,2,1
82691904,0.59637451171875,0.09637451171875,0.79541015625,0.0479736328125,-7858,1381,-2282,7,2,1
82701886,0.59613037109375,0.09698486328125,0.7955322265625,0.04718017578125,-7888,1357,-2284,8,1,1
82711865,0.595947265625,0.09771728515625,0.795654296875,0.04632568359375,-7937,1346,-2315,9,0,1
82721850,0.5958251953125,0.09857177734375,0.795654296875,0.04541015625,-7992,1327,-2345,10,-1,2
82731830,0.5958251953125,0.099609375,0.79559326171875,0.04437255859375,-8041,1304,-2376,11,-2,3
82741812,0.5958251953125,0.100830078125,0.7955322265625,0.0433349609375,-8072,1277,-2403,13,-3,4
82751794,0.59600830078125,0.102294921875,0.7952880859375,0.04217529296875,-8086,1246,-2399,14,-4,6
82761775,0.59625244140625,0.10394287109375,0.794921875,0.04095458984375,-8095,1199,-2393,16,-6,7
82771766,0.5966796875,0.10589599609375,0.79443359375,0.03961181640625,-8088,1160,-2368,17,-7,9
82781747,0.59716796875,0.108154296875,0.7938232421875,0.03826904296875,-8085,1141,-2374,19,-9,11
82791722,0.59771728515625,0.11083984375,0.7930908203125,0.0369873046875,-8099,1158,-2372,20,-10,14
82801706,0.59844970703125,0.1138916015625,0.79217529296875,0.03570556640625,-8122,1184,-2373,22,-12,16
82811689,0.5992431640625,0.1171875,0.7911376953125,0.03436279296875,-8144,1206,-2385,24,-13,17
82821672,0.60015869140625,0.12066650390625,0.78997802734375,0.03289794921875,-8162,1242,-2377,25,-15,17
82831655,0.6011962890625,0.124267578125,0.7886962890625,0.0313720703125,-8189,1274,-2375,26,-16,18
82841638,0.602294921875,0.12786865234375,0.787353515625,0.0296630859375,-8183,1318,-2365,27,-17,16
82851621,0.603515625,0.13140869140625,0.785888671875,0.02777099609375,-8171,1359,-2352,28,-19,15
82861602,0.6048583984375,0.13494873046875,0.7843017578125,0.02569580078125,-8147,1408,-2342,29,-20,14
82871583,0.60638427734375,0.138427734375,0.78265380859375,0.0234375,-8140,1465,-2317,29,-22,13
82881567,0.60791015625,0.14190673828125,0.7808837890625,0.0211181640625,-8144,1505,-2308,30,-23,13
82891549,0.6094970703125,0.14544677734375,0.779052734375,0.01873779296875,-8133,1554,-2312,30,-24,13
82901532,0.6112060546875,0.14898681640625,0.77703857421875,0.01629638671875,-8151,1599,-2299,30,-26,13
82911515,0.61309814453125,0.15264892578125,0.77496337890625,0.01385498046875,-8157,1627,-2278,31,-27,13
82921497,0.6151123046875,0.15631103515625,0.77264404296875,0.01141357421875,-8166,1657,-2234,31,-29,14
82931482,0.6171875,0.1600341796875,0.770263671875,0.009033203125,-8186,1711,-2200,31,-30,15
82941464,0.61944580078125,0.1639404296875,0.76763916015625,0.0067138671875,-8194,1744,-2152,31,-32,16
82951449,0.621826171875,0.16790771484375,0.764892578125,0.0045166015625,-8198,1773,-2120,30,-34,18
82961430,0.62432861328125,0.17205810546875,0.76190185546875,0.00244140625,-8214,1808,-2075,30,-35,19
82971421,0.62701416015625,0.17633056640625,0.75872802734375,0.00048828125,-8229,1841,-2037,30,-37,21
82981403,0.6297607421875,0.18072509765625,0.75537109375,-0.00128173828125,-8258,1894,-2001,29,-38,23
82991380,0.63275146484375,0.18524169921875,0.7518310546875,-0.0029296875,-8285,1950,-1950,28,-40,24
83001362,0.6358642578125,0.189697265625,0.748046875,-0.0045166015625,-8312,2016,-1901,28,-42,24
83011350,0.6390380859375,0.194091796875,0.74420166015625,-0.00616455078125,-8328,2071,-1858,27,-44,24
83021330,0.64239501953125,0.19842529296875,0.74017333984375,-0.00775146484375,-8325,2118,-1804,27,-45,23
83031312,0.6458740234375,0.2025146484375,0.7359619140625,-0.00933837890625,-8321,2179,-1736,26,-47,22
83041297,0.64947509765625,0.2064208984375,0.731689453125,-0.01104736328125,-8312,2237,-1662,25,-48,21
83051278,0.6531982421875,0.2100830078125,0.727294921875,-0.0128173828125,-8314,2301,-1598,24,-50,19
83061260,0.65704345703125,0.2135009765625,0.7227783203125,-0.01458740234375,-8315,2369,-1546,22,-51,17
83071240,0.66094970703125,0.216796875,0.71820068359375,-0.0164794921875,-8289,2426,-1486,22,-52,16
83081232,0.6649169921875,0.21978759765625,0.71356201171875,-0.018310546875,-8237,2479,-1407,20,-53,15
83091214,0.66888427734375,0.22265625,0.7088623046875,-0.0201416015625,-8174,2511,-1316,19,-53,14
83101194,0.67291259765625,0.225341796875,0.70416259765625,-0.02191162109375,-8110,2540,-1215,18,-53,13
83111184,0.67694091796875,0.227783203125,0.699462890625,-0.023681640625,-8053,2577,-1100,16,-53,12
83121174,0.680908203125,0.2301025390625,0.6947021484375,-0.025390625,-7990,2604,-999,16,-53,11
83131142,0.68487548828125,0.23223876953125,0.6900634765625,-0.027099609375,-7932,2643,-907,14,-52,9
83141121,0.688720703125,0.234130859375,0.68548583984375,-0.02880859375,-7879,2674,-808,13,-51,8
83151105,0.69256591796875,0.23577880859375,0.68096923828125,-0.030517578125,-7825,2689,-697,12,-51,7
83161086,0.69635009765625,0.2371826171875,0.676513671875,-0.0321044921875,-7773,2713,-594,10,-50,6
83171070,0.7000732421875,0.23834228515625,0.67218017578125,-0.03375244140625,-7703,2733,-494,9,-49,4
83181051,0.7037353515625,0.2392578125,0.66796875,-0.035400390625,-7637,2742,-395,8,-48,2
83191031,0.707275390625,0.239990234375,0.66387939453125,-0.0369873046875,-7586,2760,-277,6,-46,1
83201013,0.71075439453125,0.240478515625,0.65985107421875,-0.03857421875,-7552,2776,-166,5,-45,0
83210995,0.71417236328125,0.24078369140625,0.656005859375,-0.04010009765625,-7524,2792,-63,4,-44,-1
83220982,0.71746826171875,0.24090576171875,0.6522216796875,-0.04150390625,-7518,2817,33,2,-42,-2
83230957,0.72064208984375,0.240966796875,0.64862060546875,-0.04278564453125,-7486,2843,102,1,-41,-2
83240938,0.72369384765625,0.2408447265625,0.64520263671875,-0.0438232421875,-7440,2850,173,0,-39,-2
83250920,0.72662353515625,0.24066162109375,0.64190673828125,-0.04473876953125,-7391,2843,254,-2,-37,-2
83260902,0.7293701171875,0.2403564453125,0.6387939453125,-0.04547119140625,-7343,2839,332,-3,-34,-1
83270884,0.7320556640625,0.239990234375,0.6358642578125,-0.0460205078125,-7284,2836,420,-5,-33,-1
83280868,0.7344970703125,0.23944091796875,0.6331787109375,-0.04644775390625,-7233,2836,513,-5,-30,-2
83290849,0.73687744140625,0.23876953125,0.630615234375,-0.04669189453125,-7190,2829,601,-7,-28,-2
83300831,0.7391357421875,0.23797607421875,0.6282958984375,-0.04693603515625,-7166,2831,676,-8,-26,-3
83310813,0.74127197265625,0.23699951171875,0.62615966796875,-0.0469970703125,-7175,2842,737,-9,-24,-3
83320799,0.74322509765625,0.23602294921875,0.62420654296875,-0.046875,-7207,2853,795,-11,-22,-2
83330784,0.7451171875,0.23492431640625,0.62237548828125,-0.0465087890625,-7244,2870,833,-12,-20,-2
83340769,0.74688720703125,0.23382568359375,0.6207275390625,-0.0458984375,-7301,2881,872,-14,-18,-1
83350752,0.74853515625,0.23272705078125,0.61920166015625,-0.0450439453125,-7337,2881,911,-15,-17,0
83360735,0.7501220703125,0.23138427734375,0.6177978515625,-0.04412841796875,-7364,2876,953,-16,-15,0
83370713,0.751708984375,0.22998046875,0.61651611328125,-0.04302978515625,-7363,2862,1000,-18,-14,-1
83380692,0.753173828125,0.2283935546875,0.61541748046875,-0.0418701171875,-7361,2867,1039,-19,-13,-1
83390673,0.754638671875,0.2266845703125,0.61431884765625,-0.04058837890625,-7368,2859,1071,-20,-12,-1
83400655,0.75604248046875,0.224853515625,0.6134033203125,-0.0391845703125,-7393,2848,1110,-22,-11,-1
83410642,0.7574462890625,0.22296142578125,0.6124267578125,-0.03753662109375,-7453,2840,1126,-23,-11,1
83420622,0.7587890625,0.2210693359375,0.61151123046875,-0.03564453125,-7527,2827,1126,-24,-10,3
83430604,0.7601318359375,0.21923828125,0.61065673828125,-0.033447265625,-7583,2820,1148,-26,-10,4
83440590,0.76153564453125,0.21734619140625,0.6097412109375,-0.03106689453125,-7606,2803,1181,-27,-9,6
83450570,0.76287841796875,0.21533203125,0.60888671875,-0.028564453125,-7618,2791,1225,-28,-9,5
83460552,0.76422119140625,0.21319580078125,0.60809326171875,-0.02606201171875,-7604,2766,1252,-29,-8,5
83470536,0.7655029296875,0.21099853515625,0.6072998046875,-0.0234375,-7599,2758,1291,-30,-8,5
83480517,0.76678466796875,0.2086181640625,0.60662841796875,-0.02081298828125,-7615,2742,1323,-31,-7,5
83490499,0.76806640625,0.2061767578125,0.60589599609375,-0.01806640625,-7643,2730,1336,-32,-8,5
83500483,0.76934814453125,0.2037353515625,0.60516357421875,-0.01531982421875,-7681,2703,1337,-32,-7,5
83510466,0.7706298828125,0.201171875,0.6044921875,-0.012451171875,-7710,2672,1355,-33,-7,6
83520449,0.77191162109375,0.1986083984375,0.603759765625,-0.009521484375,-7719,2643,1373,-34,-7,6
83530431,0.773193359375,0.19598388671875,0.60302734375,-0.00653076171875,-7710,2613,1394,-34,-7,6
83540423,0.77447509765625,0.193359375,0.602294921875,-0.00347900390625,-7707,2579,1428,-35,-7,7
83550407,0.7757568359375,0.190673828125,0.60150146484375,-0.00030517578125,-7685,2547,1465,-35,-7,7
83560389,0.77703857421875,0.18804931640625,0.60064697265625,0.00286865234375,-7673,2525,1504,-35,-8,8
83570365,0.7783203125,0.18548583984375,0.59979248046875,0.00616455078125,-7660,2517,1552,-35,-7,9
83580350,0.779541015625,0.1829833984375,0.598876953125,0.0096435546875,-7641,2501,1580,-35,-7,11
83590330,0.78076171875,0.18060302734375,0.597900390625,0.0133056640625,-7650,2491,1612,-35,-7,14
83600312,0.781982421875,0.178466796875,0.59686279296875,0.01727294921875,-7675,2483,1638,-36,-7,16
83610297,0.7830810546875,0.176513671875,0.59588623046875,0.02142333984375,-7695,2489,1655,-35,-7,19
83620278,0.7841796875,0.174560546875,0.5948486328125,0.0257568359375,-7680,2486,1690,-35,-6,19
83630261,0.78521728515625,0.17266845703125,0.59381103515625,0.030029296875,-7643,2475,1739,-35,-5,19
83640240,0.78619384765625,0.17071533203125,0.5928955078125,0.03424072265625,-7598,2471,1786,-35,-5,18
83650233,0.78704833984375,0.168701171875,0.592041015625,0.03826904296875,-7553,2463,1817,-34,-4,16
83660215,0.787841796875,0.1666259765625,0.59130859375,0.0421142578125,-7520,2456,1846,-34,-3,15
83670194,0.78857421875,0.16448974609375,0.59063720703125,0.0457763671875,-7488,2451,1871,-33,-3,14
83680183,0.78924560546875,0.162353515625,0.590087890625,0.04937744140625,-7450,2454,1898,-32,-1,12
83690165,0.789794921875,0.16015625,0.58966064453125,0.0528564453125,-7422,2442,1918,-32,-1,12
83700154,0.790283203125,0.157958984375,0.58929443359375,0.05621337890625,-7411,2433,1944,-31,0,11
83710120,0.7906494140625,0.15576171875,0.58905029296875,0.0594482421875,-7393,2436,1963,-31,1,11
83720104,0.79095458984375,0.153564453125,0.5888671875,0.06256103515625,-7379,2440,1984,-30,2,9
83730084,0.791259765625,0.15130615234375,0.58880615234375,0.06549072265625,-7351,2423,2013,-29,3,7
83740067,0.79144287109375,0.14898681640625,0.58880615234375,0.06817626953125,-7326,2412,2038,-28,4,6
83750051,0.79156494140625,0.1466064453125,0.58892822265625,0.0706787109375,-7309,2398,2068,-28,4,4
83760033,0.79156494140625,0.14422607421875,0.5892333984375,0.07305908203125,-7279,2398,2075,-27,6,3
83770013,0.79156494140625,0.14190673828125,0.58953857421875,0.07537841796875,-7258,2399,2089,-26,6,4
83779998,0.79144287109375,0.13970947265625,0.58990478515625,0.07769775390625,-7274,2390,2093,-25,7,4
83789984,0.79119873046875,0.13763427734375,0.59033203125,0.080078125,-7297,2396,2091,-25,7,5
83799961,0.79095458984375,0.1357421875,0.5908203125,0.08258056640625,-7333,2396,2087,-24,8,6
83809944,0.79052734375,0.13397216796875,0.59136962890625,0.08502197265625,-7357,2400,2079,-23,9,7
83819928,0.79010009765625,0.13226318359375,0.592041015625,0.08740234375,-7372,2393,2094,-22,9,7
83829911,0.78961181640625,0.13055419921875,0.59271240234375,0.089599609375,-7379,2380,2103,-21,10,5
83839891,0.7890625,0.12884521484375,0.593505859375,0.0916748046875,-7374,2376,2109,-20,11,5
83849878,0.78851318359375,0.12713623046875,0.5943603515625,0.09356689453125,-7358,2383,2120,-19,11,3
83859858,0.787841796875,0.12548828125,0.59527587890625,0.0953369140625,-7343,2371,2123,-18,12,3
83869839,0.78717041015625,0.12384033203125,0.59625244140625,0.0970458984375,-7351,2368,2105,-17,12,3
83879821,0.786376953125,0.122314453125,0.59735107421875,0.09869384765625,-7357,2386,2081,-16,13,2
83889805,0.78558349609375,0.12078857421875,0.59844970703125,0.100341796875,-7365,2401,2072,-16,13,2
83899787,0.78466796875,0.119384765625,0.59967041015625,0.10186767578125,-7379,2419,2046,-15,14,2
83909767,0.78375244140625,0.117919921875,0.600830078125,0.10333251953125,-7415,2435,2017,-15,14,1
83919758,0.7828369140625,0.1165771484375,0.60211181640625,0.104736328125,-7436,2429,1988,-14,14,1
83929740,0.7818603515625,0.11517333984375,0.6033935546875,0.1060791015625,-7455,2435,1983,-14,14,2
83939719,0.78094482421875,0.1138916015625,0.6046142578125,0.10736083984375,-7480,2431,1973,-13,15,1
83949700,0.77996826171875,0.11260986328125,0.60589599609375,0.108642578125,-7519,2431,1973,-13,14,1
83959682,0.77899169921875,0.11138916015625,0.60711669921875,0.10986328125,-7559,2445,1951,-12,14,1
83969664,0.7779541015625,0.11029052734375,0.6083984375,0.11114501953125,-7608,2469,1919,-12,14,3
83979648,0.7769775390625,0.10931396484375,0.60955810546875,0.1124267578125,-7654,2482,1905,-12,14,3
83989629,0.77606201171875,0.10833740234375,0.6107177734375,0.11376953125,-7686,2509,1888,-11,13,3
83999611,0.77508544921875,0.107421875,0.61187744140625,0.1151123046875,-7704,2528,1868,-11,13,3
84009594,0.77410888671875,0.10650634765625,0.61297607421875,0.11639404296875,-7700,2536,1836,-11,13,3
84019576,0.773193359375,0.1055908203125,0.61407470703125,0.11767578125,-7709,2520,1812,-11,12,3
84029560,0.77227783203125,0.104736328125,0.6151123046875,0.11895751953125,-7719,2505,1796,-10,12,4
84039542,0.77142333984375,0.10394287109375,0.6160888671875,0.12030029296875,-7733,2488,1774,-10,11,4
84049525,0.7705078125,0.10321044921875,0.6170654296875,0.12158203125,-7764,2481,1741,-10,11,5
84059506,0.7696533203125,0.10247802734375,0.61798095703125,0.12286376953125,-7760,2492,1724,-10,11,4
84072995,0.76885986328125,0.10174560546875,0.618896484375,0.1240234375,-7767,2495,1708,-10,11,3
84079473,0.76806640625,0.1009521484375,0.6197509765625,0.1251220703125,-7770,2494,1704,-10,10,3
84089456,0.767333984375,0.10009765625,0.62060546875,0.1260986328125,-7759,2482,1703,-9,10,1
84099432,0.7666015625,0.09918212890625,0.62152099609375,0.126953125,-7754,2477,1691,-9,10,1
84109423,0.765869140625,0.0982666015625,0.62237548828125,0.12774658203125,-7750,2452,1682,-8,10,0
84119407,0.76513671875,0.097412109375,0.62322998046875,0.12841796875,-7742,2429,1684,-8,10,0
84129382,0.76446533203125,0.09649658203125,0.6241455078125,0.12908935546875,-7735,2404,1670,-7,10,0
84139365,0.76373291015625,0.09564208984375,0.62506103515625,0.12969970703125,-7725,2393,1658,-7,10,0
84149350,0.76300048828125,0.0948486328125,0.62591552734375,0.1302490234375,-7715,2386,1629,-6,10,-1
84159328,0.76226806640625,0.09405517578125,0.6268310546875,0.13067626953125,-7695,2360,1606,-6,10,-1
84169312,0.76153564453125,0.09320068359375,0.6278076171875,0.1309814453125,-7675,2331,1591,-5,10,-2
84179293,0.76080322265625,0.0924072265625,0.62872314453125,0.1312255859375,-7648,2326,1575,-5,10,-2
84189276,0.76007080078125,0.0916748046875,0.62969970703125,0.13140869140625,-7658,2325,1567,-4,10,-3
84199258,0.75927734375,0.09100341796875,0.6307373046875,0.131591796875,-7679,2335,1550,-4,10,-3
84209238,0.758544921875,0.09039306640625,0.63165283203125,0.1317138671875,-7689,2337,1549,-3,10,-2
84219230,0.75775146484375,0.08984375,0.63262939453125,0.13189697265625,-7713,2344,1548,-2,11,-1
84229217,0.7569580078125,0.0894775390625,0.63360595703125,0.1322021484375,-7738,2359,1530,-3,10,0
84239190,0.75616455078125,0.089111328125,0.63458251953125,0.1324462890625,-7729,2364,1508,-2,10,0
84249181,0.75531005859375,0.08892822265625,0.635498046875,0.13275146484375,-7727,2369,1479,-2,10,1
84259163,0.75445556640625,0.08868408203125,0.63653564453125,0.133056640625,-7736,2371,1446,-1,10,1
84269142,0.75360107421875,0.0885009765625,0.63751220703125,0.13323974609375,-7733,2371,1440,-1,10,1
84279126,0.75274658203125,0.08837890625,0.638427734375,0.1334228515625,-7746,2375,1428,0,10,1
84289110,0.751953125,0.0882568359375,0.639404296875,0.13360595703125,-7751,2385,1427,0,10,0
84299087,0.7510986328125,0.08807373046875,0.64044189453125,0.1336669921875,-7735,2376,1419,0,11,0
84309069,0.750244140625,0.08795166015625,0.64141845703125,0.13372802734375,-7726,2385,1410,0,10,0
84319053,0.7493896484375,0.08782958984375,0.6424560546875,0.13372802734375,-7728,2408,1394,1,11,-1
84329031,0.74853515625,0.087646484375,0.64349365234375,0.1336669921875,-7727,2428,1383,1,11,-2
84339014,0.74761962890625,0.08746337890625,0.64459228515625,0.13348388671875,-7738,2441,1346,1,11,-3
84348996,0.74676513671875,0.087158203125,0.64569091796875,0.13323974609375,-7743,2459,1332,1,11,-3
84358986,0.74591064453125,0.08685302734375,0.64678955078125,0.13299560546875,-7755,2466,1310,1,11,-4
84368962,0.7449951171875,0.08648681640625,0.64794921875,0.13262939453125,-7748,2478,1286,1,11,-5
84378946,0.744140625,0.08599853515625,0.6490478515625,0.13226318359375,-7741,2480,1270,1,11,-6
84388928,0.74322509765625,0.0855712890625,0.65020751953125,0.13177490234375,-7734,2492,1250,1,12,-6
84398910,0.74237060546875,0.08502197265625,0.6513671875,0.13128662109375,-7732,2487,1224,1,12,-6
84408891,0.74151611328125,0.08447265625,0.65252685546875,0.13092041015625,-7724,2482,1205,0,12,-6
84418878,0.74053955078125,0.083984375,0.65374755859375,0.1304931640625,-7754,2477,1164,0,12,-6
84428857,0.7396240234375,0.0833740234375,0.65496826171875,0.130126953125,-7778,2470,1132,0,12,-5
84438841,0.7386474609375,0.08282470703125,0.65618896484375,0.12982177734375,-7793,2455,1120,0,13,-5
84448823,0.73773193359375,0.08221435546875,0.65740966796875,0.1295166015625,-7797,2442,1105,-1,12,-6
