subject,Peter Cope
arm,right
label,0
hz,100.1759947549534
time,5.46039

timestamp_us,q0,q1,q2,q3,ax,ay,az,gx,gy,gz
179197388,-0.58544921875,-0.59344482421875,0.33819580078125,-0.436767578125,7527,3366,611,2,1,0
179207372,-0.58538818359375,-0.593505859375,0.33795166015625,-0.43701171875,7524,3345,608,2,1,0
179217354,-0.5853271484375,-0.5936279296875,0.337646484375,-0.43719482421875,7510,3339,603,2,1,-1
179227333,-0.58526611328125,-0.59368896484375,0.33734130859375,-0.4373779296875,7519,3338,602,2,1,-1
179237327,-0.58514404296875,-0.59381103515625,0.33709716796875,-0.43756103515625,7506,3343,598,2,1,0
179247299,-0.5850830078125,-0.5938720703125,0.3367919921875,-0.437744140625,7505,3351,597,2,1,-1
179257290,-0.58502197265625,-0.59393310546875,0.3365478515625,-0.43792724609375,7492,3351,586,2,1,0
179267271,-0.58489990234375,-0.59405517578125,0.33636474609375,-0.4381103515625,7476,3346,556,1,1,0
179277253,-0.58489990234375,-0.5941162109375,0.3360595703125,-0.43829345703125,7466,3357,561,1,2,-1
179287231,-0.58489990234375,-0.59423828125,0.33575439453125,-0.4383544921875,7434,3350,557,1,1,-1
179297223,-0.58489990234375,-0.59429931640625,0.33544921875,-0.4384765625,7414,3349,554,1,1,-2
179307208,-0.5849609375,-0.59442138671875,0.33514404296875,-0.4384765625,7415,3345,545,1,1,-2
179317187,-0.58502197265625,-0.59454345703125,0.33489990234375,-0.4384765625,7399,3359,538,0,0,-2
179327158,-0.58502197265625,-0.59466552734375,0.33465576171875,-0.43841552734375,7399,3363,546,1,0,-2
179337143,-0.58502197265625,-0.5947265625,0.33453369140625,-0.4383544921875,7410,3347,553,0,-1,-1
179347121,-0.58502197265625,-0.5948486328125,0.33447265625,-0.43829345703125,7426,3358,554,0,-1,-1
179357105,-0.5849609375,-0.594970703125,0.33447265625,-0.43829345703125,7452,3374,551,0,-1,0
179367089,-0.5848388671875,-0.594970703125,0.33453369140625,-0.43829345703125,7457,3386,562,0,-1,1
179377070,-0.584716796875,-0.594970703125,0.33465576171875,-0.4383544921875,7473,3386,554,0,-1,1
179387054,-0.58465576171875,-0.594970703125,0.33477783203125,-0.4383544921875,7476,3402,568,-1,-1,1
179397036,-0.58465576171875,-0.594970703125,0.33477783203125,-0.4383544921875,7487,3394,558,-1,-1,0
179407030,-0.584716796875,-0.594970703125,0.33477783203125,-0.4383544921875,7480,3382,549,-1,0,-1
179417001,-0.5848388671875,-0.594970703125,0.33465576171875,-0.438232421875,7498,3376,540,-1,0,-2
179426983,-0.58502197265625,-0.59503173828125,0.33441162109375,-0.4381103515625,7528,3377,545,-1,0,-4
179436965,-0.585205078125,-0.5950927734375,0.33416748046875,-0.43792724609375,7536,3368,561,-1,0,-3
179446952,-0.5853271484375,-0.59515380859375,0.333984375,-0.4378662109375,7531,3349,569,0,0,-3
179456932,-0.58544921875,-0.59515380859375,0.33380126953125,-0.4378662109375,7507,3334,587,0,0,-1
179466912,-0.58544921875,-0.59515380859375,0.33367919921875,-0.4378662109375,7531,3340,600,0,0,-1
179476896,-0.58551025390625,-0.59515380859375,0.3336181640625,-0.4378662109375,7527,3350,597,-1,0,-1
179486887,-0.5855712890625,-0.5950927734375,0.3336181640625,-0.4378662109375,7520,3348,604,-1,0,0
179496863,-0.5855712890625,-0.59503173828125,0.3336181640625,-0.43792724609375,7509,3342,625,-1,0,0
179506841,-0.58563232421875,-0.59490966796875,0.3336181640625,-0.43804931640625,7498,3343,613,-1,0,0
179516823,-0.585693359375,-0.5948486328125,0.3336181640625,-0.4381103515625,7491,3318,610,-1,0,0
179526804,-0.5858154296875,-0.59478759765625,0.33355712890625,-0.43804931640625,7466,3302,601,-1,0,-1
179536793,-0.58587646484375,-0.5947265625,0.33349609375,-0.43798828125,7430,3290,587,-1,0,-2
179546775,-0.58599853515625,-0.59478759765625,0.33343505859375,-0.43792724609375,7421,3287,585,-1,0,-2
179556755,-0.58612060546875,-0.59478759765625,0.3333740234375,-0.437744140625,7409,3280,583,-1,-1,-2
179566733,-0.58624267578125,-0.5948486328125,0.33331298828125,-0.43756103515625,7400,3266,574,-1,-1,-2
179576715,-0.5863037109375,-0.594970703125,0.333251953125,-0.4373779296875,7404,3271,565,-1,-2,-2
179586703,-0.58636474609375,-0.5950927734375,0.33319091796875,-0.43719482421875,7427,3271,561,0,-1,-2
179596682,-0.58636474609375,-0.59515380859375,0.33319091796875,-0.43707275390625,7449,3274,564,-1,-1,-2
179606671,-0.5863037109375,-0.59521484375,0.333251953125,-0.43695068359375,7474,3280,559,0,-2,0
179616649,-0.586181640625,-0.59527587890625,0.3333740234375,-0.43701171875,7478,3283,564,0,-2,1
179626631,-0.58599853515625,-0.59527587890625,0.33355712890625,-0.43707275390625,7493,3288,567,0,-1,1
179636613,-0.58587646484375,-0.59527587890625,0.33367919921875,-0.4371337890625,7508,3309,578,0,-1,1
179646594,-0.5858154296875,-0.59527587890625,0.33367919921875,-0.43719482421875,7524,3320,576,0,-1,0
179656578,-0.58587646484375,-0.59539794921875,0.33355712890625,-0.4371337890625,7534,3335,599,0,-1,-2
179666563,-0.58599853515625,-0.59552001953125,0.33331298828125,-0.43707275390625,7537,3343,615,0,0,-3
179676543,-0.58612060546875,-0.59564208984375,0.3330078125,-0.43695068359375,7533,3341,625,0,0,-3
179686524,-0.586181640625,-0.595703125,0.332763671875,-0.43682861328125,7530,3344,626,0,0,-3
179696509,-0.58624267578125,-0.5958251953125,0.3326416015625,-0.43682861328125,7504,3331,612,0,0,-1
179706498,-0.58612060546875,-0.5958251953125,0.33258056640625,-0.4368896484375,7496,3324,610,0,-1,0
179716483,-0.5860595703125,-0.5958251953125,0.3326416015625,-0.43701171875,7482,3321,603,0,-1,1
179726461,-0.58587646484375,-0.5958251953125,0.33270263671875,-0.43719482421875,7470,3325,597,1,-1,1
179736443,-0.58575439453125,-0.5958251953125,0.33282470703125,-0.43731689453125,7460,3343,585,0,-1,1
179746427,-0.585693359375,-0.5958251953125,0.33282470703125,-0.43731689453125,7449,3359,575,0,-1,0
179756401,-0.585693359375,-0.59588623046875,0.33270263671875,-0.437255859375,7462,3376,573,0,-1,-2
179766384,-0.5858154296875,-0.59600830078125,0.33258056640625,-0.4371337890625,7475,3382,560,0,-1,-3
179776365,-0.58587646484375,-0.59619140625,0.3323974609375,-0.4368896484375,7477,3401,543,-1,-1,-3
179786348,-0.58599853515625,-0.59637451171875,0.332275390625,-0.4366455078125,7475,3406,525,0,-1,-3
179796330,-0.58599853515625,-0.596435546875,0.33221435546875,-0.4365234375,7469,3400,520,-1,-1,-1
179806310,-0.58599853515625,-0.59649658203125,0.332275390625,-0.4364013671875,7471,3393,530,-1,-1,-1
179816296,-0.58599853515625,-0.59649658203125,0.3323974609375,-0.43634033203125,7461,3384,522,-1,-2,0
179826275,-0.5859375,-0.59649658203125,0.33258056640625,-0.43621826171875,7432,3363,521,-1,-2,0
179836265,-0.5859375,-0.59649658203125,0.33270263671875,-0.4361572265625,7414,3349,521,-1,-2,0
179846253,-0.5859375,-0.59649658203125,0.33282470703125,-0.43597412109375,7396,3328,529,-2,-2,-1
179856227,-0.58599853515625,-0.59661865234375,0.33294677734375,-0.43572998046875,7394,3311,539,-1,-2,-2
179866218,-0.58612060546875,-0.5966796875,0.33294677734375,-0.4354248046875,7400,3297,545,-2,-2,-3
179876200,-0.58624267578125,-0.59686279296875,0.33294677734375,-0.43511962890625,7416,3300,533,-1,-2,-3
179886177,-0.5863037109375,-0.59698486328125,0.33294677734375,-0.43475341796875,7442,3301,532,-1,-2,-3
179896151,-0.58642578125,-0.59710693359375,0.3330078125,-0.4344482421875,7460,3291,539,-1,-3,-2
179906135,-0.58642578125,-0.59722900390625,0.3331298828125,-0.43426513671875,7471,3291,553,-1,-3,-2
179916118,-0.58642578125,-0.59735107421875,0.33319091796875,-0.4339599609375,7474,3308,552,-1,-3,-2
179926100,-0.58636474609375,-0.59747314453125,0.33331298828125,-0.43377685546875,7472,3314,552,-1,-3,-1
179936085,-0.58636474609375,-0.5975341796875,0.33343505859375,-0.43359375,7481,3320,557,-1,-2,-2
179946066,-0.58642578125,-0.59765625,0.33355712890625,-0.433349609375,7487,3321,550,-1,-3,-1
179956047,-0.58642578125,-0.59771728515625,0.33367919921875,-0.43310546875,7505,3326,550,-1,-3,-2
179966031,-0.58636474609375,-0.59783935546875,0.3338623046875,-0.432861328125,7515,3325,543,-1,-3,-1
179976019,-0.58636474609375,-0.597900390625,0.33404541015625,-0.43267822265625,7520,3327,544,-1,-3,-1
179985995,-0.58636474609375,-0.597900390625,0.33416748046875,-0.4324951171875,7515,3323,536,-1,-2,-1
179995975,-0.58636474609375,-0.59796142578125,0.3343505859375,-0.432373046875,7522,3330,535,-1,-2,-1
180005959,-0.5863037109375,-0.59796142578125,0.33447265625,-0.4322509765625,7526,3318,519,-1,-2,-1
180015941,-0.58636474609375,-0.59808349609375,0.33453369140625,-0.43206787109375,7530,3320,521,-1,-2,-2
180025928,-0.58636474609375,-0.59820556640625,0.33447265625,-0.43182373046875,7546,3312,504,0,-2,-3
180035914,-0.58648681640625,-0.598388671875,0.3343505859375,-0.43157958984375,7552,3321,509,0,-1,-4
180045895,-0.5865478515625,-0.5985107421875,0.334228515625,-0.43133544921875,7571,3325,505,0,-1,-3
180055873,-0.58660888671875,-0.59869384765625,0.3341064453125,-0.43115234375,7593,3334,500,0,-1,-3
180065855,-0.58660888671875,-0.5987548828125,0.3341064453125,-0.4310302734375,7589,3356,494,0,-1,-1
180075842,-0.5865478515625,-0.5987548828125,0.33416748046875,-0.43109130859375,7589,3359,491,0,-1,0
180085821,-0.58648681640625,-0.5987548828125,0.334228515625,-0.43115234375,7582,3360,482,0,-1,0
180095802,-0.58636474609375,-0.5987548828125,0.3343505859375,-0.43121337890625,7553,3348,482,0,-1,0
180105797,-0.5863037109375,-0.59869384765625,0.33441162109375,-0.43133544921875,7540,3343,480,0,0,0
180115782,-0.5863037109375,-0.59869384765625,0.33441162109375,-0.43133544921875,7522,3330,473,0,-1,-1
180125754,-0.5863037109375,-0.5987548828125,0.3343505859375,-0.43133544921875,7499,3330,464,0,0,-1
180139030,-0.5863037109375,-0.59881591796875,0.33428955078125,-0.43133544921875,7491,3325,468,0,0,-2
180145716,-0.58624267578125,-0.598876953125,0.33416748046875,-0.4312744140625,7466,3301,474,0,0,-1
180155698,-0.58624267578125,-0.5989990234375,0.33404541015625,-0.43133544921875,7461,3321,476,1,0,-1
180165680,-0.586181640625,-0.59912109375,0.33392333984375,-0.4312744140625,7460,3333,471,1,-1,-2
180175662,-0.586181640625,-0.59930419921875,0.33380126953125,-0.43115234375,7464,3348,467,1,-1,-2
180185645,-0.586181640625,-0.59942626953125,0.33367919921875,-0.43109130859375,7473,3367,464,1,-1,-2
180195627,-0.58612060546875,-0.599609375,0.33355712890625,-0.4310302734375,7488,3382,454,1,-1,-2
180205609,-0.5860595703125,-0.5997314453125,0.33343505859375,-0.43096923828125,7494,3388,457,1,-1,-1
180215598,-0.58599853515625,-0.59979248046875,0.33343505859375,-0.4310302734375,7491,3394,458,1,-1,0
180225577,-0.58587646484375,-0.59979248046875,0.33349609375,-0.43109130859375,7497,3395,464,0,-1,1
180235559,-0.58575439453125,-0.59979248046875,0.33355712890625,-0.43121337890625,7475,3388,472,0,-1,1
180245540,-0.58563232421875,-0.59979248046875,0.33367919921875,-0.43133544921875,7472,3389,483,0,-1,1
180255524,-0.5855712890625,-0.59979248046875,0.33367919921875,-0.431396484375,7480,3411,528,0,-1,0
180265508,-0.58563232421875,-0.599853515625,0.33349609375,-0.43133544921875,7544,3451,560,0,-1,-2
180275491,-0.58587646484375,-0.59991455078125,0.33319091796875,-0.43121337890625,7636,3529,600,0,0,-4
180285469,-0.5863037109375,-0.60003662109375,0.3326416015625,-0.430908203125,7780,3630,654,-1,1,-6
180295457,-0.58685302734375,-0.60003662109375,0.33197021484375,-0.43060302734375,7921,3727,692,-1,2,-7
180305441,-0.58758544921875,-0.59991455078125,0.3311767578125,-0.430419921875,8069,3823,761,-2,4,-7
180315424,-0.5885009765625,-0.59967041015625,0.3302001953125,-0.4302978515625,8215,3931,856,-3,6,-8
180325396,-0.589599609375,-0.59912109375,0.32916259765625,-0.4302978515625,8342,4032,954,-4,8,-7
180335378,-0.5909423828125,-0.59832763671875,0.32794189453125,-0.430419921875,8432,4126,1033,-6,11,-7
180345360,-0.592529296875,-0.5972900390625,0.32659912109375,-0.43072509765625,8502,4190,1093,-7,14,-8
180355344,-0.5943603515625,-0.5960693359375,0.3250732421875,-0.43109130859375,8564,4214,1160,-9,16,-9
180365327,-0.59649658203125,-0.5946044921875,0.3233642578125,-0.43145751953125,8612,4204,1224,-10,19,-11
180375307,-0.5989990234375,-0.59295654296875,0.32122802734375,-0.43182373046875,8620,4146,1294,-11,22,-15
180385290,-0.601806640625,-0.59124755859375,0.31884765625,-0.43212890625,8588,4042,1350,-13,25,-18
180395278,-0.60479736328125,-0.58929443359375,0.316162109375,-0.4324951171875,8548,3927,1423,-13,28,-19
180405264,-0.60784912109375,-0.5872802734375,0.31329345703125,-0.43304443359375,8511,3836,1497,-13,30,-19
180415245,-0.61083984375,-0.58502197265625,0.310302734375,-0.43402099609375,8474,3731,1553,-11,33,-17
180425225,-0.61358642578125,-0.5826416015625,0.3072509765625,-0.43548583984375,8398,3627,1576,-9,36,-13
180435215,-0.615966796875,-0.58013916015625,0.3043212890625,-0.4376220703125,8301,3495,1596,-7,39,-7
180445208,-0.6177978515625,-0.57733154296875,0.30157470703125,-0.44061279296875,8172,3355,1621,-4,41,0
180455177,-0.61907958984375,-0.5743408203125,0.29901123046875,-0.4444580078125,8021,3234,1627,-1,44,8
180465159,-0.61968994140625,-0.5712890625,0.29669189453125,-0.44915771484375,7854,3132,1605,3,46,17
180475138,-0.61968994140625,-0.56805419921875,0.29449462890625,-0.45458984375,7693,3037,1576,6,48,23
180485121,-0.61920166015625,-0.5648193359375,0.29241943359375,-0.46063232421875,7524,2952,1542,9,49,29
180495104,-0.61822509765625,-0.5616455078125,0.290283203125,-0.467041015625,7369,2883,1503,13,50,32
180505086,-0.61700439453125,-0.55865478515625,0.2879638671875,-0.47369384765625,7248,2852,1456,16,51,33
180515067,-0.61553955078125,-0.55596923828125,0.28533935546875,-0.48028564453125,7169,2849,1428,19,51,30
180525052,-0.6141357421875,-0.55364990234375,0.2821044921875,-0.48663330078125,7108,2835,1390,22,52,25
180535033,-0.6129150390625,-0.5518798828125,0.27813720703125,-0.492431640625,7065,2848,1371,25,52,16
180545023,-0.61212158203125,-0.5506591796875,0.27325439453125,-0.49749755859375,7017,2856,1348,28,52,5
180555000,-0.61175537109375,-0.55010986328125,0.26751708984375,-0.501708984375,6974,2876,1321,31,51,-6
180564979,-0.61181640625,-0.55010986328125,0.26080322265625,-0.50506591796875,6902,2898,1304,34,51,-18
180574961,-0.61236572265625,-0.5506591796875,0.25323486328125,-0.50762939453125,6824,2951,1280,36,50,-29
180584943,-0.61328125,-0.5517578125,0.24493408203125,-0.50946044921875,6749,3014,1257,38,49,-37
180594927,-0.61444091796875,-0.55322265625,0.23602294921875,-0.51068115234375,6663,3073,1249,40,49,-44
180604912,-0.61578369140625,-0.55499267578125,0.22662353515625,-0.5113525390625,6540,3135,1256,42,48,-50
180614893,-0.61724853515625,-0.55706787109375,0.21685791015625,-0.5115966796875,6441,3220,1278,44,46,-54
180624886,-0.61871337890625,-0.559326171875,0.20684814453125,-0.51153564453125,6320,3289,1300,45,45,-57
180634870,-0.62005615234375,-0.56170654296875,0.19671630859375,-0.51129150390625,6198,3387,1331,47,44,-58
180644853,-0.6212158203125,-0.564208984375,0.18658447265625,-0.51092529296875,6074,3479,1362,48,43,-57
180654833,-0.62200927734375,-0.56671142578125,0.17669677734375,-0.5106201171875,5973,3578,1365,48,41,-54
180664818,-0.6224365234375,-0.5693359375,0.16705322265625,-0.51043701171875,5879,3694,1376,50,39,-50
180674805,-0.62249755859375,-0.572021484375,0.15777587890625,-0.51043701171875,5788,3786,1357,50,38,-46
180684787,-0.6220703125,-0.57464599609375,0.14892578125,-0.5106201171875,5722,3887,1359,51,36,-41
180694768,-0.6212158203125,-0.5772705078125,0.14044189453125,-0.51104736328125,5635,3985,1375,51,34,-36
180704746,-0.6199951171875,-0.5799560546875,0.13238525390625,-0.51171875,5546,4088,1387,52,33,-31
180714729,-0.618408203125,-0.5826416015625,0.12469482421875,-0.512451171875,5476,4204,1415,52,31,-28
180724710,-0.61663818359375,-0.58538818359375,0.11737060546875,-0.51324462890625,5428,4320,1431,52,28,-26
180734694,-0.61468505859375,-0.5882568359375,0.11016845703125,-0.51385498046875,5391,4441,1438,52,26,-25
180744675,-0.6126708984375,-0.59112548828125,0.103271484375,-0.514404296875,5345,4525,1445,52,24,-24
180754658,-0.61053466796875,-0.5941162109375,0.0965576171875,-0.5147705078125,5278,4597,1478,52,21,-23
180764641,-0.6083984375,-0.59716796875,0.09014892578125,-0.5150146484375,5230,4678,1507,51,19,-22
180774623,-0.606201171875,-0.6002197265625,0.083984375,-0.51507568359375,5219,4784,1540,50,16,-22
180784607,-0.60394287109375,-0.6033935546875,0.0780029296875,-0.51495361328125,5229,4909,1572,50,14,-22
180794589,-0.60174560546875,-0.60662841796875,0.07220458984375,-0.5145263671875,5252,5050,1579,49,12,-23
180804570,-0.59967041015625,-0.60992431640625,0.06658935546875,-0.513916015625,5263,5175,1616,48,9,-23
180814553,-0.59759521484375,-0.6131591796875,0.06121826171875,-0.5130615234375,5248,5301,1661,47,6,-22
180824536,-0.59552001953125,-0.616455078125,0.05621337890625,-0.5120849609375,5222,5408,1713,46,3,-21
180834511,-0.59344482421875,-0.6197509765625,0.0516357421875,-0.510986328125,5188,5509,1747,44,1,-19
180844495,-0.59136962890625,-0.623046875,0.04754638671875,-0.50982666015625,5147,5602,1767,43,-3,-16
180854471,-0.589111328125,-0.62640380859375,0.0439453125,-0.50872802734375,5142,5697,1791,41,-5,-13
180864464,-0.58685302734375,-0.62969970703125,0.04083251953125,-0.50750732421875,5148,5800,1813,39,-8,-11
180874447,-0.5845947265625,-0.633056640625,0.03814697265625,-0.50616455078125,5164,5890,1805,37,-11,-10
180884428,-0.5823974609375,-0.6363525390625,0.03582763671875,-0.50469970703125,5171,5959,1793,36,-13,-9
180894404,-0.580322265625,-0.63958740234375,0.033935546875,-0.50311279296875,5164,6019,1777,33,-15,-8
180904387,-0.5782470703125,-0.64276123046875,0.03240966796875,-0.50146484375,5128,6048,1761,31,-17,-6
180914369,-0.57623291015625,-0.64593505859375,0.0313720703125,-0.49981689453125,5104,6080,1729,29,-20,-4
180924351,-0.5743408203125,-0.6490478515625,0.03082275390625,-0.498046875,5089,6115,1715,27,-22,-2
180934335,-0.572509765625,-0.652099609375,0.03070068359375,-0.4962158203125,5077,6155,1678,24,-25,0
180944313,-0.57080078125,-0.655029296875,0.031005859375,-0.49420166015625,5084,6221,1644,21,-27,1
180954296,-0.5693359375,-0.657958984375,0.03173828125,-0.491943359375,5093,6273,1602,18,-30,1
180964274,-0.5679931640625,-0.660888671875,0.0328369140625,-0.489501953125,5110,6328,1540,15,-33,1
180974266,-0.56695556640625,-0.66375732421875,0.0343017578125,-0.48681640625,5118,6386,1484,12,-36,2
180984248,-0.5660400390625,-0.66656494140625,0.0361328125,-0.48382568359375,5120,6431,1429,9,-39,2
180994227,-0.56524658203125,-0.66937255859375,0.0384521484375,-0.48065185546875,5129,6470,1379,7,-42,3
181004219,-0.56463623046875,-0.67218017578125,0.04132080078125,-0.47723388671875,5132,6486,1298,4,-46,4
181014197,-0.56414794921875,-0.6749267578125,0.04461669921875,-0.4736328125,5149,6495,1205,1,-49,5
181024175,-0.563720703125,-0.677734375,0.04840087890625,-0.46978759765625,5180,6489,1091,-2,-52,7
181034148,-0.56341552734375,-0.680419921875,0.05267333984375,-0.46575927734375,5202,6485,983,-5,-55,8
181044132,-0.56317138671875,-0.68310546875,0.057373046875,-0.46148681640625,5234,6486,875,-8,-57,9
181054116,-0.5631103515625,-0.6856689453125,0.06256103515625,-0.45709228515625,5282,6490,781,-11,-60,10
181064098,-0.56317138671875,-0.6881103515625,0.068115234375,-0.45257568359375,5329,6498,678,-13,-62,11
181074085,-0.5633544921875,-0.69036865234375,0.07415771484375,-0.4478759765625,5388,6500,575,-17,-64,13
181084064,-0.5635986328125,-0.6925048828125,0.0806884765625,-0.443115234375,5456,6478,460,-20,-66,15
181094046,-0.56396484375,-0.6944580078125,0.08770751953125,-0.4383544921875,5533,6447,336,-23,-67,17
181104030,-0.56427001953125,-0.6961669921875,0.09521484375,-0.43359375,5624,6439,211,-26,-68,20
181114016,-0.564697265625,-0.6976318359375,0.1031494140625,-0.4288330078125,5740,6435,103,-29,-69,23
181123992,-0.565185546875,-0.6988525390625,0.11151123046875,-0.42413330078125,5846,6404,-19,-33,-69,24
181133974,-0.56573486328125,-0.69976806640625,0.1202392578125,-0.41943359375,5936,6385,-136,-36,-70,26
181143956,-0.56646728515625,-0.70037841796875,0.1292724609375,-0.4146728515625,6007,6337,-235,-39,-70,28
181153939,-0.5672607421875,-0.70068359375,0.13861083984375,-0.40997314453125,6054,6263,-343,-42,-70,30
181163922,-0.56817626953125,-0.70068359375,0.14825439453125,-0.40533447265625,6110,6194,-417,-45,-70,32
181173906,-0.5692138671875,-0.70037841796875,0.15814208984375,-0.4007568359375,6178,6129,-472,-48,-70,33
181183887,-0.5703125,-0.69976806640625,0.168212890625,-0.3961181640625,6274,6078,-552,-50,-69,33
181193869,-0.57147216796875,-0.6988525390625,0.17840576171875,-0.3914794921875,6385,6027,-633,-53,-69,34
181203851,-0.57281494140625,-0.6976318359375,0.188720703125,-0.3868408203125,6509,5953,-716,-56,-68,35
181213833,-0.57421875,-0.69610595703125,0.1990966796875,-0.38232421875,6617,5865,-791,-58,-66,35
181223820,-0.57568359375,-0.6942138671875,0.20953369140625,-0.3779296875,6680,5771,-854,-60,-65,36
181233807,-0.5772705078125,-0.69195556640625,0.2200927734375,-0.3736572265625,6720,5675,-876,-62,-63,39
181243790,-0.578857421875,-0.68927001953125,0.2308349609375,-0.36962890625,6762,5555,-919,-64,-61,41
181253775,-0.5804443359375,-0.686279296875,0.24169921875,-0.36578369140625,6797,5454,-949,-66,-60,43
181263750,-0.58203125,-0.6829833984375,0.25262451171875,-0.362060546875,6856,5359,-979,-67,-59,44
181273733,-0.5836181640625,-0.679443359375,0.26348876953125,-0.3583984375,6904,5249,-1019,-68,-57,44
181283716,-0.585205078125,-0.6756591796875,0.27423095703125,-0.354736328125,6938,5119,-1050,-68,-56,44
181293698,-0.58685302734375,-0.67181396484375,0.28472900390625,-0.35113525390625,6975,4966,-1095,-69,-53,42
181303680,-0.58856201171875,-0.66778564453125,0.2950439453125,-0.34747314453125,6988,4821,-1102,-69,-52,41
181313662,-0.59033203125,-0.66363525390625,0.30499267578125,-0.34381103515625,6985,4668,-1089,-69,-51,39
181323645,-0.592041015625,-0.659423828125,0.314697265625,-0.34014892578125,6961,4512,-1069,-68,-50,38
181333627,-0.59375,-0.6551513671875,0.32415771484375,-0.33642578125,6945,4386,-1046,-67,-49,36
181343611,-0.595458984375,-0.65087890625,0.3333740234375,-0.332763671875,6965,4301,-1037,-67,-47,35
181353593,-0.59716796875,-0.6466064453125,0.34228515625,-0.3289794921875,6998,4244,-1035,-66,-47,34
181363577,-0.5987548828125,-0.64239501953125,0.3509521484375,-0.3251953125,7059,4205,-1063,-65,-45,32
181373557,-0.60040283203125,-0.63812255859375,0.35931396484375,-0.3214111328125,7108,4162,-1075,-64,-44,30
181383542,-0.60198974609375,-0.634033203125,0.36724853515625,-0.3175048828125,7154,4109,-1078,-63,-42,27
181393522,-0.60369873046875,-0.62994384765625,0.374755859375,-0.31353759765625,7221,4042,-1079,-62,-41,23
181403504,-0.60552978515625,-0.62603759765625,0.38177490234375,-0.3094482421875,7280,4004,-1085,-61,-39,20
181413488,-0.60748291015625,-0.62225341796875,0.38824462890625,-0.30517578125,7312,3985,-1091,-60,-37,15
181423467,-0.60955810546875,-0.6185302734375,0.394287109375,-0.30078125,7338,3977,-1068,-59,-35,13
181433459,-0.61175537109375,-0.61492919921875,0.39984130859375,-0.29632568359375,7363,3992,-1044,-59,-33,10
181443441,-0.6141357421875,-0.611328125,0.405029296875,-0.2918701171875,7374,4003,-1026,-58,-31,7
181453424,-0.6165771484375,-0.6077880859375,0.4097900390625,-0.28729248046875,7389,4027,-1020,-58,-29,4
181463401,-0.619140625,-0.60430908203125,0.41424560546875,-0.28271484375,7414,4051,-1004,-57,-27,3
181473384,-0.621826171875,-0.60076904296875,0.41839599609375,-0.2781982421875,7467,4073,-1001,-58,-25,1
181483362,-0.6246337890625,-0.59722900390625,0.4222412109375,-0.27374267578125,7520,4099,-996,-57,-23,0
181493347,-0.62744140625,-0.59368896484375,0.42578125,-0.26947021484375,7561,4111,-974,-56,-21,-1
181503328,-0.63031005859375,-0.59002685546875,0.42919921875,-0.265380859375,7602,4129,-955,-56,-18,0
181513311,-0.6331787109375,-0.5863037109375,0.43243408203125,-0.261474609375,7638,4131,-929,-55,-16,0
181523292,-0.6361083984375,-0.58251953125,0.43548583984375,-0.25787353515625,7680,4126,-886,-54,-14,1
181533272,-0.6390380859375,-0.57855224609375,0.4383544921875,-0.2545166015625,7721,4104,-847,-53,-11,1
181543263,-0.64202880859375,-0.57464599609375,0.4410400390625,-0.25140380859375,7730,4060,-801,-52,-9,1
181553244,-0.64501953125,-0.5706787109375,0.4434814453125,-0.2484130859375,7742,4035,-756,-52,-7,1
181563225,-0.64801025390625,-0.566650390625,0.44573974609375,-0.24566650390625,7744,3990,-702,-51,-5,1
181573216,-0.651123046875,-0.56268310546875,0.44769287109375,-0.24310302734375,7747,3954,-641,-49,-3,0
181583196,-0.65423583984375,-0.5587158203125,0.44940185546875,-0.24072265625,7737,3894,-562,-48,-1,0
181593177,-0.6573486328125,-0.5548095703125,0.45086669921875,-0.238525390625,7733,3838,-479,-46,1,-1
181603147,-0.660400390625,-0.55096435546875,0.45208740234375,-0.2364501953125,7730,3789,-392,-45,3,-1
181613130,-0.66351318359375,-0.5472412109375,0.453125,-0.234619140625,7704,3751,-320,-44,5,-2
181623111,-0.66668701171875,-0.5435791015625,0.45379638671875,-0.23284912109375,7691,3701,-225,-42,7,-3
181633095,-0.6697998046875,-0.54010009765625,0.45416259765625,-0.23114013671875,7681,3671,-145,-40,8,-5
181643085,-0.67291259765625,-0.5367431640625,0.454345703125,-0.2296142578125,7658,3610,-65,-38,10,-5
181653060,-0.67596435546875,-0.53350830078125,0.45428466796875,-0.228271484375,7627,3551,12,-36,11,-6
181663042,-0.67889404296875,-0.5303955078125,0.4541015625,-0.22711181640625,7573,3479,89,-33,12,-6
181673030,-0.6817626953125,-0.5274658203125,0.4537353515625,-0.22613525390625,7527,3395,173,-31,13,-6
181683014,-0.6844482421875,-0.52471923828125,0.4532470703125,-0.2254638671875,7496,3335,259,-28,14,-6
181692991,-0.68701171875,-0.522216796875,0.4525146484375,-0.22491455078125,7449,3305,325,-25,15,-6
181702973,-0.689453125,-0.5198974609375,0.45166015625,-0.22454833984375,7427,3299,383,-22,16,-6
181712957,-0.69171142578125,-0.517822265625,0.45074462890625,-0.22430419921875,7417,3314,432,-20,16,-6
181722938,-0.69384765625,-0.51593017578125,0.4495849609375,-0.2242431640625,7402,3336,487,-17,17,-6
181732921,-0.6959228515625,-0.51422119140625,0.44830322265625,-0.22430419921875,7397,3373,541,-16,18,-7
181742904,-0.69793701171875,-0.5126953125,0.44683837890625,-0.22442626953125,7388,3427,596,-13,18,-7
181752886,-0.69989013671875,-0.51141357421875,0.4451904296875,-0.22467041015625,7396,3481,640,-11,19,-8
181762868,-0.7017822265625,-0.51019287109375,0.44342041015625,-0.2249755859375,7408,3540,678,-10,20,-8
181772850,-0.70361328125,-0.50921630859375,0.4415283203125,-0.225341796875,7393,3585,722,-8,21,-9
181782834,-0.705322265625,-0.50836181640625,0.439453125,-0.22589111328125,7396,3618,762,-6,22,-9
181792818,-0.70697021484375,-0.50762939453125,0.43731689453125,-0.2265625,7389,3650,788,-4,22,-8
181802802,-0.70849609375,-0.507080078125,0.43499755859375,-0.2274169921875,7390,3687,835,-2,23,-8
181812783,-0.71002197265625,-0.50653076171875,0.43267822265625,-0.22845458984375,7387,3726,858,-1,24,-7
181822769,-0.71136474609375,-0.506103515625,0.43023681640625,-0.2296142578125,7387,3772,873,1,25,-7
181832744,-0.7127685546875,-0.5057373046875,0.42767333984375,-0.23095703125,7374,3820,895,2,26,-6
181842725,-0.714111328125,-0.50543212890625,0.425048828125,-0.23248291015625,7381,3871,928,3,27,-6
181852708,-0.71539306640625,-0.50518798828125,0.42230224609375,-0.23406982421875,7367,3905,939,4,28,-6
181862691,-0.7166748046875,-0.5050048828125,0.41937255859375,-0.2357177734375,7354,3951,976,4,29,-7
181872675,-0.71795654296875,-0.50482177734375,0.41632080078125,-0.2374267578125,7338,3998,993,5,30,-6
181882656,-0.71929931640625,-0.5047607421875,0.41314697265625,-0.2392578125,7319,4045,1015,6,32,-7
181892637,-0.720703125,-0.50469970703125,0.40966796875,-0.2410888671875,7282,4094,1050,6,33,-8
181902622,-0.72210693359375,-0.504638671875,0.4061279296875,-0.24298095703125,7255,4138,1064,7,34,-8
181912605,-0.7236328125,-0.504638671875,0.40234375,-0.24481201171875,7225,4183,1089,7,36,-9
181922590,-0.72515869140625,-0.50469970703125,0.3983154296875,-0.2467041015625,7192,4238,1116,7,38,-10
181932570,-0.72674560546875,-0.50469970703125,0.3941650390625,-0.24859619140625,7160,4279,1141,7,38,-11
181942551,-0.72833251953125,-0.5047607421875,0.389892578125,-0.25048828125,7123,4321,1175,7,39,-11
181952537,-0.73004150390625,-0.5047607421875,0.385498046875,-0.25244140625,7081,4363,1200,7,40,-11
181962518,-0.731689453125,-0.5047607421875,0.38104248046875,-0.25439453125,7045,4402,1233,7,41,-11
181972500,-0.7333984375,-0.50469970703125,0.37640380859375,-0.25653076171875,6987,4439,1282,8,42,-10
181982484,-0.73504638671875,-0.50457763671875,0.371826171875,-0.2586669921875,6936,4452,1339,8,43,-10
181992472,-0.73675537109375,-0.50439453125,0.36712646484375,-0.26092529296875,6873,4454,1402,8,44,-9
182002454,-0.7384033203125,-0.504150390625,0.3624267578125,-0.2633056640625,6819,4465,1466,8,45,-9
182012436,-0.739990234375,-0.50390625,0.35760498046875,-0.2657470703125,6747,4469,1516,9,45,-8
182022412,-0.7415771484375,-0.50372314453125,0.352783203125,-0.26824951171875,6690,4498,1570,9,45,-8
182032396,-0.7431640625,-0.50347900390625,0.347900390625,-0.27069091796875,6653,4525,1636,9,45,-8
182042378,-0.74468994140625,-0.503173828125,0.343017578125,-0.27325439453125,6598,4533,1680,9,46,-8
182052358,-0.7462158203125,-0.50286865234375,0.33807373046875,-0.27581787109375,6550,4546,1737,9,46,-8
182062342,-0.7476806640625,-0.5025634765625,0.33306884765625,-0.2784423828125,6501,4539,1811,10,46,-8
182072327,-0.7491455078125,-0.50225830078125,0.32806396484375,-0.2811279296875,6446,4542,1878,10,47,-7
182082308,-0.75048828125,-0.501953125,0.322998046875,-0.28375244140625,6395,4531,1936,11,47,-8
182092290,-0.75189208984375,-0.501708984375,0.31781005859375,-0.28643798828125,6338,4539,2006,11,47,-8
182102279,-0.75323486328125,-0.50152587890625,0.31256103515625,-0.28900146484375,6285,4547,2071,12,47,-10
182112262,-0.75457763671875,-0.50140380859375,0.30718994140625,-0.2913818359375,6252,4554,2119,12,47,-12
182122245,-0.7559814453125,-0.50140380859375,0.30157470703125,-0.29364013671875,6216,4596,2189,12,48,-13
182132223,-0.7574462890625,-0.50146484375,0.2957763671875,-0.29571533203125,6199,4646,2247,13,48,-16
182142215,-0.75897216796875,-0.5015869140625,0.28973388671875,-0.2974853515625,6189,4714,2316,13,49,-19
182152196,-0.7606201171875,-0.5018310546875,0.28338623046875,-0.2989501953125,6176,4804,2396,13,49,-22
182162174,-0.7623291015625,-0.50213623046875,0.27691650390625,-0.3001708984375,6166,4887,2463,12,49,-25
182172150,-0.76416015625,-0.50238037109375,0.27020263671875,-0.30120849609375,6139,4958,2531,12,50,-27
182182132,-0.76605224609375,-0.50262451171875,0.26336669921875,-0.3021240234375,6082,5045,2610,12,50,-28
182192115,-0.7679443359375,-0.5028076171875,0.25640869140625,-0.30291748046875,6008,5110,2689,11,51,-29
182202097,-0.76983642578125,-0.5029296875,0.24945068359375,-0.3037109375,5921,5161,2751,11,51,-28
182212085,-0.771728515625,-0.50299072265625,0.24249267578125,-0.30450439453125,5820,5203,2823,10,50,-28
182222063,-0.7735595703125,-0.5029296875,0.235595703125,-0.3052978515625,5720,5239,2887,10,50,-28
182232049,-0.77545166015625,-0.50274658203125,0.228759765625,-0.30609130859375,5607,5269,2974,9,50,-27
182242031,-0.7772216796875,-0.50250244140625,0.22198486328125,-0.30694580078125,5509,5314,3054,9,50,-26
182252017,-0.7789306640625,-0.502197265625,0.21539306640625,-0.307861328125,5404,5336,3131,9,49,-25
182261995,-0.78057861328125,-0.50177001953125,0.20892333984375,-0.30889892578125,5276,5371,3210,8,48,-22
182271975,-0.78204345703125,-0.501220703125,0.2027587890625,-0.31005859375,5155,5414,3289,8,47,-20
182281958,-0.783447265625,-0.5006103515625,0.19677734375,-0.31134033203125,5042,5454,3359,7,46,-17
182291939,-0.78472900390625,-0.5,0.19110107421875,-0.312744140625,4926,5477,3429,7,44,-15
182301924,-0.785888671875,-0.499267578125,0.1856689453125,-0.314208984375,4825,5499,3490,6,43,-13
182311905,-0.78692626953125,-0.49847412109375,0.1805419921875,-0.31573486328125,4732,5528,3545,6,41,-12
182321888,-0.7879638671875,-0.49774169921875,0.175537109375,-0.31732177734375,4617,5551,3587,6,40,-10
182331872,-0.78887939453125,-0.4969482421875,0.17083740234375,-0.31884765625,4529,5571,3623,5,38,-9
182341853,-0.78973388671875,-0.49615478515625,0.16632080078125,-0.3203125,4446,5559,3667,5,37,-9
182351835,-0.7906494140625,-0.49530029296875,0.16192626953125,-0.32159423828125,4373,5562,3693,4,35,-10
182361818,-0.79150390625,-0.4945068359375,0.15771484375,-0.32275390625,4294,5551,3727,3,33,-10
182371807,-0.7923583984375,-0.4937744140625,0.15374755859375,-0.32379150390625,4223,5556,3754,3,31,-10
182381787,-0.79315185546875,-0.4930419921875,0.14990234375,-0.32464599609375,4170,5580,3770,3,29,-10
182391771,-0.7939453125,-0.49237060546875,0.1463623046875,-0.32537841796875,4122,5603,3787,2,27,-10
182401747,-0.79473876953125,-0.49176025390625,0.1429443359375,-0.32598876953125,4088,5628,3805,2,25,-10
182411729,-0.79547119140625,-0.49114990234375,0.1397705078125,-0.32647705078125,4080,5660,3832,1,23,-10
182421713,-0.79620361328125,-0.4906005859375,0.13671875,-0.3267822265625,4078,5698,3845,1,22,-10
182431695,-0.79693603515625,-0.49005126953125,0.1339111328125,-0.3270263671875,4088,5755,3871,0,20,-11
182441677,-0.79766845703125,-0.48956298828125,0.13116455078125,-0.3270263671875,4122,5792,3899,0,19,-12
182451659,-0.79840087890625,-0.48907470703125,0.1285400390625,-0.32696533203125,4161,5816,3912,0,18,-12
182461642,-0.7991943359375,-0.48858642578125,0.1259765625,-0.32684326171875,4179,5842,3917,-1,18,-13
182471623,-0.7999267578125,-0.48809814453125,0.12347412109375,-0.32672119140625,4200,5848,3924,-1,17,-12
182481604,-0.80059814453125,-0.487548828125,0.12115478515625,-0.32672119140625,4210,5857,3935,-1,17,-11
182491588,-0.80126953125,-0.48699951171875,0.118896484375,-0.3267822265625,4211,5865,3953,-1,17,-10
182501570,-0.80181884765625,-0.48651123046875,0.11669921875,-0.326904296875,4223,5887,3966,-1,16,-9
182511553,-0.8023681640625,-0.4859619140625,0.1146240234375,-0.3270263671875,4242,5884,3999,-1,16,-9
182521540,-0.802978515625,-0.4854736328125,0.11248779296875,-0.3271484375,4242,5872,4023,0,16,-10
182531518,-0.80352783203125,-0.4849853515625,0.1103515625,-0.32720947265625,4252,5837,4038,0,16,-10
182541501,-0.80401611328125,-0.4844970703125,0.10809326171875,-0.327392578125,4244,5812,4067,1,17,-10
182551484,-0.80450439453125,-0.48406982421875,0.10595703125,-0.32769775390625,4236,5770,4083,1,17,-9
182561472,-0.8048095703125,-0.483642578125,0.103759765625,-0.328125,4228,5737,4096,2,18,-7
182571455,-0.8050537109375,-0.4832763671875,0.10150146484375,-0.32879638671875,4208,5712,4087,3,19,-6
182581437,-0.80517578125,-0.48291015625,0.0992431640625,-0.32965087890625,4192,5692,4086,4,20,-4
182591414,-0.80523681640625,-0.48260498046875,0.09698486328125,-0.33074951171875,4170,5682,4093,4,20,-2
182601394,-0.80517578125,-0.4822998046875,0.0947265625,-0.33203125,4148,5684,4115,5,21,-1
182611376,-0.8050537109375,-0.48193359375,0.09234619140625,-0.33343505859375,4125,5686,4152,6,22,-1
182621359,-0.80487060546875,-0.481689453125,0.08990478515625,-0.3348388671875,4070,5702,4188,7,22,-1
182631344,-0.8046875,-0.48150634765625,0.0872802734375,-0.33624267578125,4025,5715,4221,8,23,-1
182641327,-0.80450439453125,-0.4813232421875,0.08453369140625,-0.337646484375,3977,5733,4250,8,24,-3
182651308,-0.8043212890625,-0.481201171875,0.08160400390625,-0.33892822265625,3923,5740,4278,9,24,-3
182661295,-0.80419921875,-0.48114013671875,0.07855224609375,-0.340087890625,3879,5737,4284,10,25,-5
182671272,-0.8040771484375,-0.48114013671875,0.0753173828125,-0.34112548828125,3835,5747,4291,10,25,-7
182681263,-0.80401611328125,-0.481201171875,0.07196044921875,-0.34197998046875,3810,5768,4301,10,25,-9
182691248,-0.803955078125,-0.48126220703125,0.06842041015625,-0.3426513671875,3789,5785,4321,11,26,-12
182701226,-0.80401611328125,-0.48138427734375,0.064697265625,-0.3431396484375,3766,5819,4337,11,26,-13
182711216,-0.8040771484375,-0.48150634765625,0.060791015625,-0.3436279296875,3758,5877,4370,12,27,-13
182721199,-0.8040771484375,-0.4815673828125,0.056884765625,-0.3441162109375,3741,5931,4393,12,28,-13
182731179,-0.80401611328125,-0.48162841796875,0.05291748046875,-0.34478759765625,3715,5993,4402,11,29,-12
182741153,-0.8038330078125,-0.48162841796875,0.0489501953125,-0.34576416015625,3692,6059,4411,11,30,-9
182751138,-0.80364990234375,-0.48150634765625,0.04510498046875,-0.346923828125,3681,6122,4418,11,31,-7
182761120,-0.80340576171875,-0.4813232421875,0.04119873046875,-0.34832763671875,3677,6205,4436,10,32,-6
182771103,-0.80303955078125,-0.48101806640625,0.037353515625,-0.3499755859375,3690,6287,4434,10,34,-4
182781085,-0.80267333984375,-0.48052978515625,0.033447265625,-0.35186767578125,3693,6363,4455,9,35,-3
182791066,-0.80224609375,-0.47991943359375,0.029541015625,-0.35394287109375,3692,6440,4474,8,37,-1
182801051,-0.80181884765625,-0.4791259765625,0.02557373046875,-0.3563232421875,3696,6515,4490,7,38,1
182811032,-0.80133056640625,-0.4781494140625,0.0216064453125,-0.35894775390625,3696,6578,4494,6,40,2
182821018,-0.80078125,-0.47705078125,0.01763916015625,-0.36187744140625,3699,6621,4480,5,43,5
182830997,-0.8001708984375,-0.47564697265625,0.01373291015625,-0.36517333984375,3684,6663,4487,3,44,8
182840978,-0.79949951171875,-0.4739990234375,0.0098876953125,-0.36895751953125,3684,6688,4472,2,46,11
182850958,-0.79864501953125,-0.47210693359375,0.00616455078125,-0.37322998046875,3659,6689,4467,0,48,16
182860942,-0.79766845703125,-0.469970703125,0.00262451171875,-0.37811279296875,3617,6664,4454,-1,50,21
182870922,-0.7965087890625,-0.46759033203125,-0.00079345703125,-0.38348388671875,3594,6628,4455,-3,52,25
182880905,-0.79522705078125,-0.46490478515625,-0.004150390625,-0.3892822265625,3552,6615,4492,-4,54,29
182890889,-0.79388427734375,-0.46197509765625,-0.00750732421875,-0.3955078125,3508,6585,4535,-5,56,31
182900869,-0.79241943359375,-0.45880126953125,-0.01080322265625,-0.40191650390625,3469,6564,4582,-7,57,33
182910851,-0.79095458984375,-0.4554443359375,-0.0142822265625,-0.408447265625,3407,6531,4614,-7,59,33
182920835,-0.78955078125,-0.45184326171875,-0.01788330078125,-0.41497802734375,3334,6470,4651,-9,61,32
182930818,-0.78826904296875,-0.447998046875,-0.02166748046875,-0.42138671875,3263,6383,4692,-10,62,30
182940806,-0.78704833984375,-0.44403076171875,-0.02569580078125,-0.42755126953125,3193,6313,4730,-10,64,26
182950787,-0.7861328125,-0.4398193359375,-0.0301513671875,-0.43328857421875,3103,6250,4778,-11,65,22
182960770,-0.78546142578125,-0.4354248046875,-0.034912109375,-0.43853759765625,3005,6205,4825,-12,65,16
182970746,-0.78509521484375,-0.430908203125,-0.0400390625,-0.4432373046875,2891,6167,4867,-12,66,11
182980729,-0.78497314453125,-0.4261474609375,-0.04547119140625,-0.44744873046875,2777,6114,4920,-14,67,5
182990711,-0.78521728515625,-0.421142578125,-0.0511474609375,-0.451171875,2652,6070,4966,-15,67,0
183000694,-0.78564453125,-0.416015625,-0.0570068359375,-0.45440673828125,2547,6029,5020,-16,67,-4
183010675,-0.786376953125,-0.4107666015625,-0.06298828125,-0.45721435546875,2416,5984,5051,-17,67,-8
183020658,-0.7872314453125,-0.40533447265625,-0.06903076171875,-0.459716796875,2289,5950,5095,-18,67,-11
183030640,-0.7882080078125,-0.39971923828125,-0.0751953125,-0.46197509765625,2135,5936,5136,-19,66,-13
183040622,-0.789306640625,-0.3939208984375,-0.08123779296875,-0.4639892578125,1982,5936,5184,-21,66,-14
183050604,-0.79052734375,-0.3880615234375,-0.0872802734375,-0.46575927734375,1845,5970,5246,-22,65,-16
183060586,-0.7918701171875,-0.382080078125,-0.09320068359375,-0.46728515625,1731,5992,5295,-24,64,-18
183070570,-0.7933349609375,-0.3759765625,-0.09893798828125,-0.46856689453125,1599,6004,5363,-26,62,-20
183080551,-0.79498291015625,-0.3697509765625,-0.1046142578125,-0.46954345703125,1474,5996,5419,-27,61,-22
183090533,-0.796630859375,-0.36346435546875,-0.1099853515625,-0.470458984375,1342,5952,5467,-28,59,-21
183100516,-0.7982177734375,-0.357177734375,-0.11505126953125,-0.4713134765625,1206,5901,5522,-29,57,-21
183110498,-0.7998046875,-0.35089111328125,-0.11981201171875,-0.47216796875,1063,5824,5567,-30,54,-19
183120483,-0.80126953125,-0.34466552734375,-0.124267578125,-0.47308349609375,852,5690,5588,-30,52,-17
183130471,-0.80279541015625,-0.33843994140625,-0.1285400390625,-0.473876953125,729,5638,5618,-31,50,-18
183140452,-0.8043212890625,-0.33233642578125,-0.132568359375,-0.47442626953125,628,5626,5706,-31,47,-19
183150435,-0.80596923828125,-0.32635498046875,-0.13629150390625,-0.47479248046875,516,5580,5794,-31,45,-20
183160410,-0.8076171875,-0.3204345703125,-0.1397705078125,-0.4749755859375,383,5456,5847,-30,42,-20
183170393,-0.80926513671875,-0.314697265625,-0.1429443359375,-0.47515869140625,231,5299,5877,-30,39,-18
183180375,-0.81072998046875,-0.3092041015625,-0.145751953125,-0.475341796875,97,5149,5950,-29,35,-16
183190360,-0.81207275390625,-0.303955078125,-0.14813232421875,-0.4757080078125,-33,5026,6030,-28,32,-13
183200342,-0.81317138671875,-0.29925537109375,-0.15020751953125,-0.4761962890625,-130,4916,6098,-25,28,-10
183210327,-0.81402587890625,-0.29498291015625,-0.15185546875,-0.47686767578125,-211,4823,6164,-24,25,-6
183220307,-0.81463623046875,-0.29107666015625,-0.15313720703125,-0.47772216796875,-289,4710,6240,-21,21,-2
183230296,-0.8150634765625,-0.28765869140625,-0.15411376953125,-0.47882080078125,-352,4600,6302,-19,18,1
183240271,-0.815185546875,-0.28485107421875,-0.15478515625,-0.48004150390625,-395,4510,6367,-16,15,5
183250261,-0.8150634765625,-0.28253173828125,-0.1551513671875,-0.48150634765625,-439,4445,6435,-13,11,9
183260247,-0.81463623046875,-0.2808837890625,-0.1551513671875,-0.4832763671875,-475,4382,6513,-9,8,13
183270225,-0.8138427734375,-0.27978515625,-0.15484619140625,-0.48529052734375,-492,4338,6591,-6,4,18
183280213,-0.812744140625,-0.2794189453125,-0.154296875,-0.487548828125,-495,4303,6634,-2,1,22
183290196,-0.81134033203125,-0.279541015625,-0.15350341796875,-0.489990234375,-485,4266,6650,1,-2,26
183300160,-0.80975341796875,-0.28033447265625,-0.15252685546875,-0.4925537109375,-441,4226,6634,5,-5,28
183310145,-0.80792236328125,-0.2816162109375,-0.1513671875,-0.4951171875,-381,4217,6613,8,-7,30
183320127,-0.80596923828125,-0.28338623046875,-0.150146484375,-0.49761962890625,-312,4232,6591,11,-10,30
183330108,-0.803955078125,-0.28558349609375,-0.14886474609375,-0.50006103515625,-228,4272,6568,13,-12,31
183340092,-0.8018798828125,-0.2882080078125,-0.1475830078125,-0.5023193359375,-161,4326,6542,16,-14,29
183350074,-0.79974365234375,-0.2911376953125,-0.14630126953125,-0.50433349609375,-59,4414,6532,18,-15,29
183360058,-0.797607421875,-0.29437255859375,-0.14495849609375,-0.5062255859375,61,4531,6509,19,-16,28
183370038,-0.79547119140625,-0.2978515625,-0.1436767578125,-0.5079345703125,179,4634,6495,21,-17,26
183380027,-0.7933349609375,-0.30145263671875,-0.14239501953125,-0.509521484375,299,4697,6491,22,-18,26
183390008,-0.7911376953125,-0.3052978515625,-0.14111328125,-0.510986328125,415,4743,6482,24,-19,26
183399985,-0.788818359375,-0.309326171875,-0.13983154296875,-0.512451171875,535,4749,6470,26,-19,26
183409968,-0.786376953125,-0.31353759765625,-0.13861083984375,-0.51397705078125,627,4768,6449,28,-19,27
183419951,-0.7838134765625,-0.3179931640625,-0.13751220703125,-0.5155029296875,724,4785,6418,30,-20,28
183429935,-0.781005859375,-0.32269287109375,-0.13641357421875,-0.51708984375,812,4811,6368,33,-20,30
183439916,-0.77801513671875,-0.32763671875,-0.1353759765625,-0.518798828125,897,4843,6314,34,-20,32
183449898,-0.77471923828125,-0.332763671875,-0.13433837890625,-0.52069091796875,1001,4881,6251,37,-20,34
183459883,-0.771240234375,-0.338134765625,-0.13336181640625,-0.52264404296875,1089,4925,6160,38,-20,35
183469865,-0.767578125,-0.34356689453125,-0.13250732421875,-0.52471923828125,1176,4946,6070,39,-19,36
183479848,-0.76373291015625,-0.34912109375,-0.1317138671875,-0.52685546875,1248,4971,5976,41,-19,37
183489832,-0.75982666015625,-0.35479736328125,-0.13104248046875,-0.52886962890625,1332,4995,5899,42,-19,36
183499818,-0.755859375,-0.360595703125,-0.13055419921875,-0.53082275390625,1423,5039,5822,44,-18,36
183509802,-0.7518310546875,-0.366455078125,-0.1302490234375,-0.5325927734375,1521,5076,5755,46,-17,34
183519786,-0.74774169921875,-0.37237548828125,-0.13006591796875,-0.53424072265625,1617,5132,5707,47,-17,33
183529770,-0.74359130859375,-0.37841796875,-0.130126953125,-0.53570556640625,1706,5199,5661,49,-17,32
183539746,-0.7393798828125,-0.38458251953125,-0.13031005859375,-0.53717041015625,1785,5261,5603,51,-17,33
183549728,-0.73486328125,-0.39093017578125,-0.13055419921875,-0.5386962890625,1855,5299,5517,52,-17,34
183559710,-0.73016357421875,-0.39739990234375,-0.1307373046875,-0.540283203125,1926,5323,5402,54,-17,36
183569693,-0.72515869140625,-0.40411376953125,-0.13092041015625,-0.54205322265625,1996,5330,5294,56,-17,39
183579676,-0.7198486328125,-0.41094970703125,-0.13104248046875,-0.54400634765625,2058,5348,5180,58,-18,41
183589658,-0.71417236328125,-0.41802978515625,-0.131103515625,-0.5460205078125,2138,5381,5065,59,-18,43
183599640,-0.708251953125,-0.42529296875,-0.1312255859375,-0.54803466796875,2234,5435,4933,61,-18,45
183609624,-0.7021484375,-0.4327392578125,-0.13134765625,-0.55010986328125,2337,5505,4804,63,-18,45
183619605,-0.69586181640625,-0.44024658203125,-0.13165283203125,-0.55206298828125,2428,5593,4684,64,-18,45
183629587,-0.689453125,-0.44781494140625,-0.13201904296875,-0.55389404296875,2529,5684,4555,65,-18,45
183639577,-0.68292236328125,-0.4554443359375,-0.1324462890625,-0.5556640625,2635,5782,4445,66,-18,44
183649551,-0.67626953125,-0.463134765625,-0.1329345703125,-0.557373046875,2721,5854,4322,67,-18,45
183659533,-0.66937255859375,-0.47088623046875,-0.1334228515625,-0.55902099609375,2825,5927,4204,68,-18,46
183669521,-0.66229248046875,-0.4786376953125,-0.13385009765625,-0.560791015625,2914,5960,4090,69,-18,48
183679502,-0.6549072265625,-0.4864501953125,-0.13421630859375,-0.5626220703125,2985,5998,3964,70,-18,50
183689484,-0.647216796875,-0.494384765625,-0.1343994140625,-0.5645751953125,3062,6035,3834,71,-19,53
183699472,-0.63922119140625,-0.5023193359375,-0.13458251953125,-0.56658935546875,3131,6064,3696,72,-19,55
183709456,-0.63116455078125,-0.51031494140625,-0.13470458984375,-0.56854248046875,3201,6085,3560,72,-19,55
183719439,-0.623046875,-0.5181884765625,-0.135009765625,-0.57025146484375,3289,6117,3428,73,-19,52
183729414,-0.61505126953125,-0.52593994140625,-0.135498046875,-0.5716552734375,3384,6169,3302,73,-19,49
183739396,-0.6072998046875,-0.53369140625,-0.1363525390625,-0.5726318359375,3475,6210,3156,74,-19,44
183749378,-0.5997314453125,-0.541259765625,-0.13751220703125,-0.5732421875,3538,6234,3019,74,-18,39
183759363,-0.5924072265625,-0.5487060546875,-0.1390380859375,-0.5733642578125,3588,6250,2901,75,-18,35
183769345,-0.58526611328125,-0.5560302734375,-0.140869140625,-0.5732421875,3629,6262,2784,75,-18,31
183779327,-0.57830810546875,-0.563232421875,-0.14300537109375,-0.57275390625,3695,6302,2668,76,-18,27
183789309,-0.57147216796875,-0.5703125,-0.1453857421875,-0.5718994140625,3738,6364,2556,76,-18,24
183799291,-0.56488037109375,-0.57733154296875,-0.1480712890625,-0.57080078125,3770,6423,2424,77,-17,20
183809279,-0.55841064453125,-0.584228515625,-0.151123046875,-0.5693359375,3803,6477,2298,77,-18,16
183819261,-0.5521240234375,-0.59100341796875,-0.15435791015625,-0.56756591796875,3854,6516,2158,77,-17,12
183829245,-0.54608154296875,-0.59771728515625,-0.157958984375,-0.5654296875,3880,6540,2011,78,-17,9
183839225,-0.54010009765625,-0.60430908203125,-0.16168212890625,-0.5631103515625,3920,6563,1860,78,-18,6
183849217,-0.53411865234375,-0.61083984375,-0.1656494140625,-0.560546875,3973,6622,1706,79,-17,5
183859196,-0.528076171875,-0.617431640625,-0.1695556640625,-0.55792236328125,4023,6697,1555,79,-18,5
183869175,-0.52197265625,-0.6239013671875,-0.1734619140625,-0.55523681640625,4062,6749,1408,79,-18,6
183879151,-0.51568603515625,-0.6304931640625,-0.17730712890625,-0.552490234375,4061,6784,1259,80,-18,7
183889133,-0.5091552734375,-0.63702392578125,-0.1810302734375,-0.54974365234375,4056,6773,1086,81,-19,8
183899115,-0.50250244140625,-0.6436767578125,-0.18463134765625,-0.5469970703125,4038,6744,918,81,-19,10
183909099,-0.4957275390625,-0.6502685546875,-0.1881103515625,-0.544189453125,4059,6733,748,81,-20,10
183919085,-0.48895263671875,-0.65679931640625,-0.19171142578125,-0.5411376953125,4088,6732,565,81,-20,8
183929062,-0.4822998046875,-0.66326904296875,-0.1954345703125,-0.53790283203125,4119,6726,380,82,-20,6
183939046,-0.47564697265625,-0.66973876953125,-0.19927978515625,-0.534423828125,4132,6697,201,82,-21,4
183949030,-0.468994140625,-0.6761474609375,-0.20318603515625,-0.53082275390625,4156,6685,31,82,-21,3
183959018,-0.46234130859375,-0.68243408203125,-0.20709228515625,-0.52703857421875,4191,6720,-127,83,-22,2
183968991,-0.455810546875,-0.68865966796875,-0.211181640625,-0.52294921875,4208,6787,-280,83,-23,0
183978973,-0.44940185546875,-0.69476318359375,-0.2154541015625,-0.5186767578125,4188,6800,-434,82,-23,-4
183988955,-0.44329833984375,-0.70062255859375,-0.22021484375,-0.5140380859375,4169,6807,-619,83,-23,-9
183998936,-0.4375,-0.70623779296875,-0.22540283203125,-0.509033203125,4167,6808,-798,83,-23,-15
184008920,-0.43194580078125,-0.711669921875,-0.23101806640625,-0.503662109375,4157,6814,-984,83,-23,-20
184018902,-0.42669677734375,-0.71685791015625,-0.23712158203125,-0.49798583984375,4125,6815,-1166,83,-22,-26
184028884,-0.421630859375,-0.7218017578125,-0.24346923828125,-0.49200439453125,4104,6833,-1326,82,-23,-29
184038867,-0.4166259765625,-0.7265625,-0.2501220703125,-0.48583984375,4072,6842,-1485,83,-22,-32
184048850,-0.41180419921875,-0.73114013671875,-0.2569580078125,-0.47955322265625,4033,6879,-1610,83,-22,-34
184058831,-0.406982421875,-0.7354736328125,-0.263916015625,-0.47320556640625,3971,6940,-1736,83,-21,-35
184068818,-0.40216064453125,-0.7396240234375,-0.27099609375,-0.466796875,3894,6982,-1870,83,-20,-37
184078802,-0.39739990234375,-0.74359130859375,-0.2783203125,-0.460205078125,3821,7037,-2042,83,-20,-39
184088785,-0.3927001953125,-0.747314453125,-0.28582763671875,-0.4534912109375,3770,7098,-2246,83,-19,-42
184098767,-0.38800048828125,-0.75091552734375,-0.2935791015625,-0.4466552734375,3733,7165,-2472,83,-19,-43
184108743,-0.38330078125,-0.75439453125,-0.30126953125,-0.43975830078125,3701,7210,-2675,83,-19,-44
184118726,-0.37841796875,-0.7576904296875,-0.30889892578125,-0.43292236328125,3653,7266,-2861,83,-18,-42
184128710,-0.37353515625,-0.76092529296875,-0.3162841796875,-0.4261474609375,3579,7325,-3022,82,-17,-40
184142030,-0.3685302734375,-0.76397705078125,-0.32342529296875,-0.41961669921875,3513,7402,-3186,81,-16,-38
184148675,-0.36358642578125,-0.766845703125,-0.33038330078125,-0.4132080078125,3469,7502,-3327,78,-15,-37
184158656,-0.35870361328125,-0.76947021484375,-0.33709716796875,-0.4071044921875,3455,7621,-3505,76,-14,-36
184168642,-0.35406494140625,-0.77178955078125,-0.34368896484375,-0.4012451171875,3469,7763,-3674,73,-12,-37
184178624,-0.3497314453125,-0.773681640625,-0.35015869140625,-0.3956298828125,3490,7918,-3843,69,-11,-38
184188606,-0.3458251953125,-0.77520751953125,-0.35662841796875,-0.39044189453125,3518,8076,-3983,65,-8,-39
184198588,-0.34228515625,-0.7762451171875,-0.3629150390625,-0.3856201171875,3537,8225,-4095,59,-6,-40
184208577,-0.3392333984375,-0.77685546875,-0.3690185546875,-0.38128662109375,3540,8376,-4189,54,-4,-39
184218551,-0.33660888671875,-0.77703857421875,-0.3748779296875,-0.37750244140625,3535,8531,-4259,47,-1,-38
184228537,-0.33453369140625,-0.77679443359375,-0.38037109375,-0.37432861328125,3528,8672,-4316,41,1,-38
184238516,-0.33282470703125,-0.7762451171875,-0.38543701171875,-0.37176513671875,3501,8744,-4341,34,4,-36
184248498,-0.33160400390625,-0.775390625,-0.39007568359375,-0.369873046875,3439,8769,-4352,27,6,-33
184258483,-0.3306884765625,-0.77435302734375,-0.39404296875,-0.36859130859375,3353,8774,-4338,21,8,-27
184268470,-0.33001708984375,-0.77325439453125,-0.397216796875,-0.3680419921875,3245,8774,-4306,15,10,-21
184278452,-0.32958984375,-0.77215576171875,-0.39959716796875,-0.36822509765625,3166,8773,-4277,9,11,-15
184288433,-0.32940673828125,-0.77105712890625,-0.4012451171875,-0.368896484375,3084,8775,-4256,3,12,-9
184298405,-0.32940673828125,-0.76995849609375,-0.40216064453125,-0.3702392578125,3003,8753,-4222,-2,13,-4
184308390,-0.32958984375,-0.76885986328125,-0.40234375,-0.3720703125,2920,8683,-4190,-7,14,2
184318367,-0.3299560546875,-0.76788330078125,-0.40179443359375,-0.3743896484375,2822,8604,-4132,-12,14,8
184328349,-0.3304443359375,-0.7669677734375,-0.400634765625,-0.37701416015625,2716,8491,-4064,-15,14,13
184338333,-0.3310546875,-0.76617431640625,-0.39892578125,-0.37994384765625,2610,8356,-3990,-19,14,17
184348315,-0.331787109375,-0.76544189453125,-0.39678955078125,-0.38299560546875,2509,8209,-3906,-21,13,20
184358298,-0.33270263671875,-0.76470947265625,-0.3944091796875,-0.38616943359375,2413,8064,-3816,-23,12,21
184368275,-0.3338623046875,-0.763916015625,-0.391845703125,-0.38922119140625,2337,7926,-3712,-25,10,20
184378267,-0.335205078125,-0.76312255859375,-0.389404296875,-0.39208984375,2290,7792,-3634,-26,9,18
184388250,-0.3367919921875,-0.76226806640625,-0.3870849609375,-0.39471435546875,2263,7664,-3573,-26,7,16
184398231,-0.338623046875,-0.7613525390625,-0.3848876953125,-0.3970947265625,2256,7573,-3523,-27,6,13
184408223,-0.3406982421875,-0.7603759765625,-0.38287353515625,-0.399169921875,2255,7505,-3485,-27,4,10
184418208,-0.3428955078125,-0.7593994140625,-0.38092041015625,-0.4010009765625,2283,7463,-3469,-27,2,8
184428187,-0.34515380859375,-0.75848388671875,-0.37908935546875,-0.4024658203125,2297,7412,-3423,-26,0,7
184438158,-0.34759521484375,-0.757568359375,-0.37738037109375,-0.40374755859375,2317,7345,-3378,-26,-2,5
184448139,-0.35009765625,-0.75665283203125,-0.37579345703125,-0.40472412109375,2351,7302,-3341,-25,-4,3
184458119,-0.3526611328125,-0.75579833984375,-0.374267578125,-0.405517578125,2406,7286,-3323,-25,-5,1
184468106,-0.35540771484375,-0.75494384765625,-0.3729248046875,-0.406005859375,2460,7306,-3321,-24,-7,-2
184478085,-0.35821533203125,-0.7540283203125,-0.37176513671875,-0.40631103515625,2522,7370,-3339,-24,-8,-4
184488066,-0.36114501953125,-0.7530517578125,-0.3707275390625,-0.4063720703125,2581,7462,-3378,-24,-9,-5
184498048,-0.36419677734375,-0.75213623046875,-0.3697509765625,-0.40631103515625,2646,7554,-3400,-24,-10,-6
184508030,-0.36724853515625,-0.751220703125,-0.36859130859375,-0.40625,2707,7639,-3410,-25,-11,-5
184518018,-0.37030029296875,-0.75042724609375,-0.36712646484375,-0.40631103515625,2759,7710,-3415,-26,-11,-2
184528008,-0.37322998046875,-0.74969482421875,-0.3653564453125,-0.4066162109375,2816,7781,-3408,-27,-10,1
184537979,-0.3760986328125,-0.74896240234375,-0.36322021484375,-0.40716552734375,2863,7839,-3386,-29,-10,4
184547963,-0.37896728515625,-0.748291015625,-0.3607177734375,-0.407958984375,2906,7878,-3362,-30,-9,6
184557944,-0.3818359375,-0.74761962890625,-0.35791015625,-0.40899658203125,2958,7907,-3323,-32,-9,9
184567930,-0.38482666015625,-0.74688720703125,-0.3548583984375,-0.4102783203125,2982,7933,-3288,-35,-8,11
184577912,-0.3878173828125,-0.74603271484375,-0.35162353515625,-0.4117431640625,2992,7934,-3244,-37,-8,12
184587894,-0.39093017578125,-0.7451171875,-0.34814453125,-0.4134521484375,2998,7942,-3202,-39,-7,14
184597877,-0.3941650390625,-0.7440185546875,-0.344482421875,-0.415283203125,3005,7954,-3165,-42,-6,14
184607860,-0.39764404296875,-0.7427978515625,-0.34075927734375,-0.4173583984375,3022,7947,-3127,-44,-6,14
184617841,-0.40118408203125,-0.74139404296875,-0.3369140625,-0.41949462890625,3044,7942,-3099,-47,-5,14
184627825,-0.405029296875,-0.73974609375,-0.33306884765625,-0.42181396484375,3062,7929,-3056,-50,-4,13
184637804,-0.4090576171875,-0.7379150390625,-0.3291015625,-0.4241943359375,3099,7893,-3001,-52,-3,13
184647794,-0.4132080078125,-0.73590087890625,-0.3250732421875,-0.4267578125,3136,7846,-2934,-54,-2,12
184657778,-0.41754150390625,-0.73370361328125,-0.32098388671875,-0.429443359375,3158,7796,-2865,-57,-2,12
