subject,Reese Hammons
arm,left
label,1
hz,100.17263907815776
time,5.670211

timestamp_us,q0,q1,q2,q3,ax,ay,az,gx,gy,gz
44959400,0.6751708984375,-0.648681640625,-0.259765625,0.23626708984375,111,-8179,214,2,-2,-1
44969374,0.67529296875,-0.64849853515625,-0.2598876953125,0.23651123046875,117,-8157,223,1,-3,-1
44979360,0.6754150390625,-0.64825439453125,-0.260009765625,0.23675537109375,120,-8151,207,2,-3,-2
44989340,0.67547607421875,-0.64794921875,-0.26019287109375,0.23699951171875,133,-8122,207,2,-4,-1
44999323,0.675537109375,-0.64764404296875,-0.26043701171875,0.23724365234375,157,-8115,203,2,-4,-2
45009307,0.6756591796875,-0.64739990234375,-0.26068115234375,0.23760986328125,177,-8125,213,2,-4,-1
45019296,0.67572021484375,-0.6470947265625,-0.2608642578125,0.238037109375,173,-8124,212,2,-4,0
45029274,0.67572021484375,-0.6468505859375,-0.260986328125,0.23858642578125,175,-8125,198,2,-4,1
45039258,0.6756591796875,-0.64666748046875,-0.26104736328125,0.2391357421875,178,-8142,186,2,-5,2
45049237,0.67559814453125,-0.64642333984375,-0.2611083984375,0.23974609375,191,-8153,167,2,-5,2
45059228,0.675537109375,-0.646240234375,-0.26123046875,0.24041748046875,192,-8161,168,2,-5,2
45069211,0.675537109375,-0.64599609375,-0.2613525390625,0.24102783203125,196,-8144,162,2,-5,1
45079191,0.675537109375,-0.64569091796875,-0.26153564453125,0.24151611328125,209,-8135,168,2,-5,0
45089183,0.675537109375,-0.6453857421875,-0.2618408203125,0.241943359375,219,-8102,173,2,-5,-1
45099164,0.6756591796875,-0.64501953125,-0.26220703125,0.24224853515625,241,-8083,175,2,-5,-2
45109141,0.67572021484375,-0.6446533203125,-0.26263427734375,0.2425537109375,254,-8071,178,2,-5,-2
45119118,0.67578125,-0.64434814453125,-0.26300048828125,0.24285888671875,263,-8065,169,2,-5,-2
45129099,0.67584228515625,-0.64398193359375,-0.26336669921875,0.24310302734375,275,-8058,155,2,-4,-2
45139081,0.6759033203125,-0.6436767578125,-0.263671875,0.243408203125,288,-8054,160,2,-4,-1
45149072,0.67596435546875,-0.6434326171875,-0.26385498046875,0.2437744140625,294,-8078,146,2,-4,0
45159051,0.67596435546875,-0.6431884765625,-0.2640380859375,0.24420166015625,307,-8081,146,2,-4,0
45169034,0.67596435546875,-0.64300537109375,-0.26409912109375,0.24468994140625,303,-8095,160,2,-4,1
45179018,0.67596435546875,-0.64276123046875,-0.26416015625,0.2451171875,303,-8097,158,2,-4,1
45188998,0.67596435546875,-0.64263916015625,-0.26422119140625,0.24554443359375,300,-8079,159,1,-3,1
45198988,0.67596435546875,-0.6424560546875,-0.26422119140625,0.2459716796875,307,-8059,180,2,-3,1
45208964,0.67596435546875,-0.64227294921875,-0.2642822265625,0.24639892578125,309,-8067,184,1,-3,1
45218947,0.67596435546875,-0.64208984375,-0.26434326171875,0.24676513671875,298,-8080,189,1,-3,1
45228929,0.67596435546875,-0.64190673828125,-0.264404296875,0.2470703125,301,-8071,203,1,-3,0
45238916,0.676025390625,-0.6417236328125,-0.26458740234375,0.247314453125,293,-8075,204,1,-3,-1
45248893,0.676025390625,-0.6416015625,-0.2647705078125,0.2474365234375,281,-8078,193,1,-3,-2
45258878,0.67608642578125,-0.641357421875,-0.26513671875,0.24749755859375,269,-8085,203,1,-3,-3
45268860,0.67620849609375,-0.64111328125,-0.26544189453125,0.24749755859375,263,-8083,215,1,-3,-4
45278843,0.67633056640625,-0.640869140625,-0.265869140625,0.2474365234375,258,-8068,235,1,-2,-5
45288824,0.67645263671875,-0.64056396484375,-0.26629638671875,0.24725341796875,253,-8060,253,0,-2,-5
45298809,0.6766357421875,-0.64031982421875,-0.26666259765625,0.24713134765625,259,-8060,272,1,-2,-5
45308791,0.6767578125,-0.64007568359375,-0.26702880859375,0.24700927734375,258,-8057,292,0,-2,-4
45318769,0.6768798828125,-0.63983154296875,-0.26727294921875,0.24688720703125,271,-8062,291,1,-2,-3
45328761,0.67694091796875,-0.6397705078125,-0.2674560546875,0.246826171875,282,-8053,290,0,-1,-2
45338745,0.67694091796875,-0.6396484375,-0.26751708984375,0.24688720703125,286,-8066,296,0,-1,-1
45348725,0.67694091796875,-0.6396484375,-0.2674560546875,0.2470703125,297,-8049,299,0,-1,1
45358706,0.67694091796875,-0.6396484375,-0.2672119140625,0.247314453125,316,-8048,317,0,-1,3
45368692,0.6768798828125,-0.6397705078125,-0.266845703125,0.2476806640625,330,-8046,319,0,0,5
45378670,0.6767578125,-0.639892578125,-0.2662353515625,0.2481689453125,355,-8055,319,0,0,6
45388652,0.6766357421875,-0.64013671875,-0.26556396484375,0.248779296875,355,-8078,308,0,1,8
45398636,0.67645263671875,-0.64044189453125,-0.2647705078125,0.2493896484375,380,-8106,315,0,1,9
45408618,0.67626953125,-0.64068603515625,-0.26385498046875,0.25006103515625,396,-8146,322,0,1,10
45418602,0.6761474609375,-0.64093017578125,-0.262939453125,0.250732421875,406,-8207,321,1,2,9
45428584,0.67608642578125,-0.64117431640625,-0.2620849609375,0.25128173828125,417,-8253,316,1,2,8
45438568,0.67608642578125,-0.641357421875,-0.26123046875,0.251708984375,403,-8287,315,1,2,6
45448550,0.67620849609375,-0.641357421875,-0.26055908203125,0.25189208984375,411,-8313,302,2,3,4
45458535,0.676513671875,-0.64129638671875,-0.2601318359375,0.25189208984375,423,-8308,306,3,3,2
45468518,0.6768798828125,-0.64111328125,-0.259765625,0.25164794921875,438,-8299,303,3,3,-1
45478496,0.67742919921875,-0.64080810546875,-0.25958251953125,0.251220703125,439,-8282,303,4,4,-3
45488477,0.6781005859375,-0.640380859375,-0.259521484375,0.25054931640625,440,-8225,304,4,4,-6
45498463,0.6788330078125,-0.63983154296875,-0.2596435546875,0.249755859375,438,-8191,304,5,4,-8
45508449,0.6796875,-0.63916015625,-0.25994873046875,0.24871826171875,432,-8128,300,5,4,-11
45518433,0.68060302734375,-0.63848876953125,-0.2603759765625,0.24755859375,416,-8061,290,5,4,-13
45528415,0.68157958984375,-0.63775634765625,-0.2608642578125,0.24627685546875,411,-8002,296,5,4,-14
45538399,0.6826171875,-0.636962890625,-0.261474609375,0.24493408203125,394,-7958,299,5,4,-15
45548375,0.68353271484375,-0.63623046875,-0.26214599609375,0.2435302734375,379,-7897,291,5,4,-15
45558358,0.6844482421875,-0.635498046875,-0.2626953125,0.2421875,366,-7888,293,5,4,-14
45568341,0.685302734375,-0.6348876953125,-0.26318359375,0.240966796875,364,-7852,288,4,4,-13
45578324,0.68597412109375,-0.63433837890625,-0.26348876953125,0.239990234375,358,-7833,285,4,3,-10
45588306,0.6865234375,-0.63397216796875,-0.26361083984375,0.2392578125,350,-7829,283,3,3,-7
45598293,0.68695068359375,-0.63372802734375,-0.2635498046875,0.23876953125,346,-7832,292,3,3,-4
45608279,0.68719482421875,-0.6336669921875,-0.26324462890625,0.2386474609375,335,-7831,296,2,2,0
45618259,0.68731689453125,-0.6336669921875,-0.2628173828125,0.23870849609375,320,-7828,292,1,2,2
45628238,0.68731689453125,-0.63385009765625,-0.26226806640625,0.2388916015625,318,-7862,301,1,2,4
45638228,0.68719482421875,-0.634033203125,-0.26165771484375,0.23919677734375,320,-7892,298,0,1,5
45648210,0.68701171875,-0.6343994140625,-0.260986328125,0.23968505859375,308,-7909,298,0,1,6
45658191,0.68682861328125,-0.63470458984375,-0.26031494140625,0.24017333984375,305,-7964,312,-1,1,7
45668180,0.68658447265625,-0.63507080078125,-0.2596435546875,0.24066162109375,297,-7998,323,-1,1,6
45678164,0.686279296875,-0.63543701171875,-0.25909423828125,0.2410888671875,283,-8025,319,-2,0,5
45688144,0.68597412109375,-0.63580322265625,-0.2586669921875,0.24139404296875,277,-8037,329,-2,1,4
45698120,0.685791015625,-0.6361083984375,-0.25836181640625,0.24151611328125,273,-8026,338,-2,1,2
45708102,0.68560791015625,-0.6363525390625,-0.25823974609375,0.241455078125,288,-8001,343,-3,0,0
45718086,0.68548583984375,-0.63653564453125,-0.25836181640625,0.24114990234375,294,-7973,345,-3,1,-3
45728072,0.68536376953125,-0.63677978515625,-0.258544921875,0.24078369140625,296,-7957,349,-3,1,-4
45738051,0.68524169921875,-0.636962890625,-0.2587890625,0.24029541015625,304,-7948,347,-4,1,-4
45748032,0.6851806640625,-0.63714599609375,-0.259033203125,0.23974609375,315,-7971,351,-4,1,-4
45758013,0.68499755859375,-0.63739013671875,-0.2591552734375,0.23931884765625,328,-7969,359,-4,1,-3
45767996,0.684814453125,-0.63775634765625,-0.2591552734375,0.23907470703125,341,-7995,357,-4,1,-1
45777990,0.68450927734375,-0.63818359375,-0.259033203125,0.2388916015625,367,-8002,355,-4,1,2
45787961,0.68414306640625,-0.638671875,-0.2586669921875,0.23895263671875,376,-8025,353,-4,1,4
45797945,0.68377685546875,-0.63922119140625,-0.2581787109375,0.23919677734375,393,-8029,361,-4,1,6
45807927,0.683349609375,-0.6397705078125,-0.257568359375,0.23956298828125,389,-8041,353,-4,1,7
45817909,0.682861328125,-0.640380859375,-0.2568359375,0.239990234375,400,-8050,349,-4,2,8
45827892,0.68243408203125,-0.6409912109375,-0.25616455078125,0.24041748046875,394,-8061,346,-4,1,8
45837878,0.6820068359375,-0.64154052734375,-0.25555419921875,0.24078369140625,397,-8073,342,-3,1,7
45847858,0.681640625,-0.64202880859375,-0.2550048828125,0.2410888671875,379,-8084,350,-4,1,6
45857839,0.68133544921875,-0.6424560546875,-0.2545166015625,0.2413330078125,374,-8123,342,-3,1,5
45867825,0.6810302734375,-0.64288330078125,-0.254150390625,0.241455078125,365,-8143,345,-3,1,4
45877810,0.6807861328125,-0.6431884765625,-0.25390625,0.24151611328125,343,-8157,343,-3,1,2
45887793,0.6806640625,-0.64337158203125,-0.25384521484375,0.24139404296875,342,-8181,342,-2,1,0
45897774,0.68060302734375,-0.64349365234375,-0.25396728515625,0.2412109375,322,-8191,339,-2,0,-2
45907762,0.68060302734375,-0.6435546875,-0.254150390625,0.2408447265625,309,-8183,336,-2,0,-4
45917746,0.68072509765625,-0.64349365234375,-0.25445556640625,0.24041748046875,291,-8183,345,-1,0,-6
45927717,0.68084716796875,-0.64337158203125,-0.2548828125,0.2398681640625,288,-8172,340,-1,0,-6
45937702,0.6810302734375,-0.6431884765625,-0.2552490234375,0.2393798828125,261,-8175,343,-1,0,-7
45947688,0.68121337890625,-0.64300537109375,-0.25567626953125,0.23895263671875,267,-8167,356,-1,-1,-6
45957680,0.681396484375,-0.64288330078125,-0.256103515625,0.238525390625,264,-8166,358,0,-1,-6
45967660,0.68157958984375,-0.64263916015625,-0.25634765625,0.23822021484375,253,-8168,375,0,-1,-5
45977636,0.68170166015625,-0.64251708984375,-0.25653076171875,0.23797607421875,240,-8168,380,0,-1,-4
45987622,0.681884765625,-0.642333984375,-0.25665283203125,0.23785400390625,244,-8155,387,0,0,-3
45997603,0.6820068359375,-0.6422119140625,-0.25677490234375,0.23773193359375,248,-8129,396,0,0,-2
46007585,0.68212890625,-0.64208984375,-0.25677490234375,0.2376708984375,257,-8110,415,0,0,-2
46017568,0.6822509765625,-0.64202880859375,-0.2567138671875,0.23760986328125,247,-8083,432,0,0,-1
46027551,0.682373046875,-0.64190673828125,-0.25665283203125,0.23760986328125,258,-8068,440,0,0,-1
46037534,0.68243408203125,-0.64190673828125,-0.25653076171875,0.23760986328125,253,-8046,439,0,1,-1
46047521,0.6824951171875,-0.641845703125,-0.25640869140625,0.23760986328125,241,-8057,438,0,0,0
46057501,0.68255615234375,-0.64190673828125,-0.2562255859375,0.2376708984375,241,-8056,438,0,0,1
46067485,0.68255615234375,-0.6419677734375,-0.2559814453125,0.23773193359375,234,-8062,432,-1,1,1
46077470,0.6824951171875,-0.64202880859375,-0.2557373046875,0.2379150390625,233,-8051,413,-1,0,1
46087454,0.68243408203125,-0.64215087890625,-0.25543212890625,0.238037109375,226,-8048,394,0,0,2
46097438,0.682373046875,-0.64227294921875,-0.255126953125,0.23822021484375,223,-8040,386,0,0,2
46107422,0.68231201171875,-0.642333984375,-0.2548828125,0.238525390625,213,-8041,398,-1,0,2
46117402,0.6822509765625,-0.6424560546875,-0.254638671875,0.23870849609375,210,-8023,385,-1,0,2
46127381,0.68212890625,-0.642578125,-0.25439453125,0.23895263671875,209,-8017,376,-1,-1,2
46137361,0.6820068359375,-0.6427001953125,-0.25421142578125,0.23919677734375,216,-8015,372,-1,-1,2
46147343,0.68182373046875,-0.64276123046875,-0.25408935546875,0.23944091796875,205,-7999,364,-1,-2,2
46157328,0.68170166015625,-0.64288330078125,-0.25408935546875,0.23968505859375,213,-7990,345,-1,-1,1
46167310,0.6815185546875,-0.64300537109375,-0.2540283203125,0.23980712890625,223,-7991,332,-2,-1,1
46177293,0.68133544921875,-0.64312744140625,-0.25408935546875,0.239990234375,218,-7988,322,-2,-2,1
46187275,0.68109130859375,-0.64324951171875,-0.25408935546875,0.240234375,217,-8000,301,-2,-2,1
46197258,0.68084716796875,-0.6434326171875,-0.25421142578125,0.24041748046875,220,-8016,287,-2,-3,1
46207238,0.68060302734375,-0.6435546875,-0.25433349609375,0.24066162109375,220,-8013,262,-2,-2,1
46217229,0.6802978515625,-0.64373779296875,-0.25439453125,0.24090576171875,209,-8025,258,-2,-3,1
46227211,0.6800537109375,-0.6439208984375,-0.2545166015625,0.2412109375,207,-8047,259,-2,-3,1
46237193,0.6796875,-0.64410400390625,-0.254638671875,0.24151611328125,198,-8061,235,-2,-3,1
46247182,0.67938232421875,-0.64422607421875,-0.2547607421875,0.2418212890625,208,-8077,232,-2,-4,1
46257167,0.6790771484375,-0.6444091796875,-0.25494384765625,0.24212646484375,215,-8101,225,-2,-3,1
46267142,0.67877197265625,-0.64453125,-0.255126953125,0.24237060546875,212,-8108,216,-2,-3,0
46277122,0.67852783203125,-0.6446533203125,-0.25537109375,0.24261474609375,206,-8113,212,-2,-3,0
46287102,0.67828369140625,-0.64471435546875,-0.255615234375,0.24273681640625,218,-8123,207,-2,-3,0
46297086,0.67803955078125,-0.64483642578125,-0.25592041015625,0.242919921875,236,-8139,208,-2,-3,-1
46307067,0.6778564453125,-0.64483642578125,-0.2562255859375,0.2430419921875,237,-8120,205,-1,-3,-1
46317051,0.67767333984375,-0.64483642578125,-0.25653076171875,0.2431640625,246,-8114,196,-1,-3,-1
46327037,0.677490234375,-0.6448974609375,-0.25677490234375,0.24334716796875,241,-8106,195,-1,-3,0
46337016,0.67730712890625,-0.6448974609375,-0.2569580078125,0.2435302734375,252,-8109,195,-1,-3,0
46347000,0.6771240234375,-0.64495849609375,-0.25701904296875,0.2437744140625,256,-8106,202,-1,-3,1
46356988,0.677001953125,-0.64501953125,-0.257080078125,0.2440185546875,255,-8108,209,-1,-2,1
46366965,0.6768798828125,-0.64508056640625,-0.25714111328125,0.2442626953125,258,-8083,229,-1,-2,1
46376948,0.67669677734375,-0.6451416015625,-0.2572021484375,0.244384765625,264,-8070,230,-1,-2,0
46386932,0.67657470703125,-0.64520263671875,-0.25726318359375,0.2445068359375,273,-8065,230,-1,-2,0
46396913,0.67645263671875,-0.64520263671875,-0.2574462890625,0.24456787109375,293,-8055,229,-1,-2,0
46406895,0.67645263671875,-0.64520263671875,-0.257568359375,0.2445068359375,299,-8047,254,-1,-1,-1
46416878,0.67633056640625,-0.645263671875,-0.2576904296875,0.24444580078125,300,-8039,251,-2,-1,-1
46426859,0.67626953125,-0.64532470703125,-0.2578125,0.24432373046875,297,-8030,260,-2,-1,-1
46436842,0.67620849609375,-0.6453857421875,-0.2579345703125,0.2442626953125,312,-8021,267,-2,-1,-1
46446829,0.6761474609375,-0.6455078125,-0.25799560546875,0.24407958984375,314,-8020,272,-2,0,-1
46456807,0.67608642578125,-0.6456298828125,-0.258056640625,0.243896484375,318,-8006,271,-2,0,-1
46466791,0.676025390625,-0.645751953125,-0.258056640625,0.24371337890625,311,-7999,278,-2,1,-1
46476771,0.67596435546875,-0.6458740234375,-0.258056640625,0.2435302734375,304,-8002,274,-2,1,-1
46486763,0.6759033203125,-0.64605712890625,-0.258056640625,0.24334716796875,311,-8010,274,-2,1,-1
46496749,0.67578125,-0.646240234375,-0.25799560546875,0.2431640625,305,-8010,269,-3,1,0
46506724,0.6756591796875,-0.646484375,-0.25787353515625,0.2430419921875,299,-8017,258,-2,1,0
46516707,0.67547607421875,-0.64678955078125,-0.2576904296875,0.24285888671875,305,-8033,256,-3,1,1
46526689,0.67535400390625,-0.64703369140625,-0.257568359375,0.24267578125,298,-8036,230,-3,2,0
46536671,0.6751708984375,-0.6473388671875,-0.25738525390625,0.24249267578125,298,-8023,215,-3,2,0
46546655,0.675048828125,-0.64764404296875,-0.25726318359375,0.24224853515625,291,-8008,205,-3,2,0
46556642,0.6749267578125,-0.64794921875,-0.25714111328125,0.241943359375,296,-7991,194,-3,2,-1
46566620,0.6748046875,-0.64825439453125,-0.25701904296875,0.2415771484375,289,-7979,184,-3,2,-1
46576602,0.67474365234375,-0.64849853515625,-0.25689697265625,0.2412109375,282,-7968,157,-3,3,-2
46586584,0.67462158203125,-0.6488037109375,-0.2568359375,0.24072265625,281,-7955,144,-3,2,-2
46596567,0.674560546875,-0.64910888671875,-0.25677490234375,0.240234375,276,-7951,129,-3,3,-2
46606549,0.6744384765625,-0.6494140625,-0.25677490234375,0.23974609375,264,-7952,116,-3,3,-2
46616532,0.67437744140625,-0.64971923828125,-0.25665283203125,0.2392578125,242,-7970,97,-3,3,-2
46626515,0.67425537109375,-0.6500244140625,-0.256591796875,0.23876953125,235,-7991,77,-3,3,-2
46636498,0.67413330078125,-0.65032958984375,-0.25640869140625,0.23834228515625,232,-8022,60,-3,3,-1
46646488,0.67401123046875,-0.65069580078125,-0.25616455078125,0.238037109375,222,-8060,55,-3,3,0
46656465,0.67388916015625,-0.651123046875,-0.25579833984375,0.23779296875,202,-8094,51,-3,3,1
46666449,0.6737060546875,-0.65155029296875,-0.25537109375,0.23760986328125,178,-8113,53,-3,3,2
46676438,0.67352294921875,-0.65191650390625,-0.2548828125,0.23748779296875,165,-8133,59,-3,3,2
46686419,0.67333984375,-0.65234375,-0.25439453125,0.23736572265625,152,-8141,62,-3,3,2
46696402,0.6732177734375,-0.65277099609375,-0.25384521484375,0.23724365234375,131,-8135,72,-3,3,2
46706380,0.67303466796875,-0.65313720703125,-0.25341796875,0.23712158203125,102,-8137,80,-3,3,1
46716362,0.67291259765625,-0.65350341796875,-0.2530517578125,0.23687744140625,69,-8126,76,-3,3,0
46726344,0.67279052734375,-0.65380859375,-0.25286865234375,0.23651123046875,55,-8111,76,-3,3,-2
46736326,0.6727294921875,-0.654052734375,-0.2528076171875,0.236083984375,33,-8086,74,-3,2,-3
46746306,0.67266845703125,-0.65423583984375,-0.25286865234375,0.23553466796875,-5,-8083,63,-3,2,-5
46756293,0.672607421875,-0.65447998046875,-0.25311279296875,0.23492431640625,-16,-8065,47,-4,2,-7
46766272,0.67254638671875,-0.65460205078125,-0.2535400390625,0.23419189453125,-13,-8040,46,-4,1,-8
46776256,0.6724853515625,-0.65472412109375,-0.254150390625,0.2333984375,-25,-8018,33,-4,0,-9
46786245,0.67242431640625,-0.65484619140625,-0.2548828125,0.2325439453125,-27,-7995,33,-4,0,-10
46796228,0.67230224609375,-0.65496826171875,-0.2557373046875,0.231689453125,-19,-7980,28,-5,-1,-11
46806207,0.672119140625,-0.655029296875,-0.256591796875,0.2308349609375,-9,-7959,19,-5,-1,-10
46816195,0.67193603515625,-0.65521240234375,-0.2574462890625,0.23016357421875,21,-7963,10,-5,-2,-9
46826177,0.671630859375,-0.6553955078125,-0.25823974609375,0.2296142578125,41,-7974,-3,-5,-2,-7
46836162,0.6712646484375,-0.6556396484375,-0.2589111328125,0.22930908203125,52,-7986,-14,-5,-3,-5
46846139,0.6707763671875,-0.65594482421875,-0.25946044921875,0.2291259765625,66,-8007,-20,-6,-3,-4
46856114,0.6702880859375,-0.65625,-0.25994873046875,0.22918701171875,89,-8016,-44,-6,-4,-2
46866097,0.669677734375,-0.6566162109375,-0.2603759765625,0.22930908203125,122,-7994,-51,-5,-4,-1
46876086,0.66912841796875,-0.65692138671875,-0.2608642578125,0.22955322265625,158,-7967,-55,-5,-5,0
46886065,0.66851806640625,-0.65728759765625,-0.2613525390625,0.22979736328125,184,-7958,-52,-6,-6,0
46896051,0.66790771484375,-0.6575927734375,-0.26190185546875,0.23004150390625,211,-7943,-63,-6,-5,-1
46906028,0.66729736328125,-0.65789794921875,-0.26251220703125,0.230224609375,240,-7925,-85,-6,-6,-1
46916010,0.66668701171875,-0.658203125,-0.26312255859375,0.23040771484375,269,-7902,-94,-6,-6,-1
46925997,0.66607666015625,-0.658447265625,-0.2637939453125,0.2305908203125,289,-7891,-108,-6,-6,-2
46935982,0.66546630859375,-0.65875244140625,-0.26446533203125,0.23077392578125,299,-7869,-116,-6,-6,-2
46945957,0.66485595703125,-0.65899658203125,-0.26519775390625,0.23089599609375,327,-7859,-138,-6,-6,-2
46955944,0.66424560546875,-0.6593017578125,-0.26593017578125,0.23095703125,357,-7866,-152,-6,-6,-2
46965925,0.66363525390625,-0.65960693359375,-0.26666259765625,0.23101806640625,382,-7862,-169,-6,-5,-2
46975906,0.66302490234375,-0.65997314453125,-0.267333984375,0.23101806640625,419,-7864,-196,-6,-5,-2
46985890,0.6624755859375,-0.6602783203125,-0.2679443359375,0.23101806640625,434,-7857,-215,-6,-4,-2
46995872,0.661865234375,-0.66064453125,-0.2685546875,0.23095703125,461,-7855,-237,-6,-4,-1
47005854,0.6612548828125,-0.66107177734375,-0.2691650390625,0.23089599609375,478,-7851,-245,-7,-3,-2
47015837,0.66058349609375,-0.6614990234375,-0.26971435546875,0.23077392578125,490,-7843,-268,-7,-3,-1
47025828,0.65997314453125,-0.66204833984375,-0.27008056640625,0.230712890625,494,-7852,-283,-7,-2,0
47035803,0.6593017578125,-0.66259765625,-0.2703857421875,0.2305908203125,504,-7865,-287,-7,-2,1
47045787,0.6585693359375,-0.66326904296875,-0.27056884765625,0.2305908203125,495,-7891,-310,-8,-1,2
47055768,0.65771484375,-0.66412353515625,-0.27056884765625,0.2305908203125,489,-7910,-342,-8,-1,4
47065760,0.65679931640625,-0.6650390625,-0.2703857421875,0.230712890625,484,-7936,-364,-9,-1,5
47075747,0.6558837890625,-0.666015625,-0.2701416015625,0.2308349609375,479,-7956,-368,-10,0,6
47085721,0.65484619140625,-0.6671142578125,-0.26983642578125,0.23095703125,473,-7978,-372,-11,0,7
47095703,0.65374755859375,-0.66827392578125,-0.26947021484375,0.23101806640625,472,-8001,-373,-12,1,6
47105685,0.6527099609375,-0.66943359375,-0.2691650390625,0.23089599609375,459,-8036,-376,-12,2,5
47115667,0.65167236328125,-0.670654296875,-0.26898193359375,0.23065185546875,460,-8087,-378,-13,2,4
47125652,0.65069580078125,-0.6717529296875,-0.2689208984375,0.23016357421875,445,-8142,-380,-13,2,1
47135638,0.6497802734375,-0.6728515625,-0.26904296875,0.2294921875,438,-8207,-383,-13,3,-1
47145614,0.64892578125,-0.673828125,-0.26934814453125,0.22857666015625,420,-8281,-395,-13,3,-3
47155598,0.64813232421875,-0.67474365234375,-0.269775390625,0.22760009765625,414,-8363,-415,-13,3,-5
47165580,0.6474609375,-0.67559814453125,-0.270263671875,0.22662353515625,396,-8429,-425,-12,2,-6
47175564,0.64678955078125,-0.67633056640625,-0.2708740234375,0.2255859375,386,-8496,-437,-11,2,-6
47185548,0.646240234375,-0.67694091796875,-0.271484375,0.224609375,385,-8558,-458,-10,2,-7
47195531,0.64569091796875,-0.677490234375,-0.2720947265625,0.22369384765625,378,-8625,-473,-9,1,-7
47205513,0.64532470703125,-0.67791748046875,-0.272705078125,0.22296142578125,387,-8673,-476,-8,0,-6
47215495,0.64495849609375,-0.67822265625,-0.273193359375,0.22235107421875,386,-8707,-476,-6,0,-5
47225482,0.64471435546875,-0.67840576171875,-0.27362060546875,0.22198486328125,391,-8724,-462,-5,-1,-4
47235461,0.64453125,-0.67852783203125,-0.27392578125,0.22174072265625,387,-8729,-464,-4,-1,-3
47245449,0.64434814453125,-0.67864990234375,-0.274169921875,0.2216796875,373,-8743,-472,-3,-2,-2
47255434,0.64422607421875,-0.6785888671875,-0.27435302734375,0.22174072265625,373,-8747,-490,-1,-3,-1
47265421,0.6441650390625,-0.67852783203125,-0.27459716796875,0.22198486328125,380,-8746,-509,0,-3,-1
47275403,0.6441650390625,-0.67828369140625,-0.27484130859375,0.2222900390625,364,-8726,-532,1,-4,-1
47285378,0.64422607421875,-0.677978515625,-0.27508544921875,0.22271728515625,358,-8703,-549,2,-5,-1
47295363,0.6444091796875,-0.6776123046875,-0.27532958984375,0.22320556640625,371,-8667,-554,3,-5,0
47305342,0.64453125,-0.67718505859375,-0.2755126953125,0.2237548828125,394,-8629,-563,4,-5,0
47315326,0.64483642578125,-0.6766357421875,-0.27569580078125,0.22442626953125,406,-8590,-554,5,-5,1
47325308,0.64508056640625,-0.67608642578125,-0.2757568359375,0.2252197265625,428,-8537,-562,6,-6,2
47335293,0.64544677734375,-0.675537109375,-0.2757568359375,0.22601318359375,448,-8494,-573,7,-5,2
47345274,0.645751953125,-0.6749267578125,-0.2757568359375,0.226806640625,464,-8447,-574,7,-5,2
47355257,0.64617919921875,-0.67431640625,-0.275634765625,0.22760009765625,477,-8391,-583,7,-5,2
47365244,0.6466064453125,-0.6737060546875,-0.2755126953125,0.22833251953125,480,-8324,-582,8,-4,2
47375227,0.6470947265625,-0.673095703125,-0.275390625,0.22900390625,493,-8269,-600,8,-4,2
47385210,0.6475830078125,-0.67242431640625,-0.2752685546875,0.2294921875,503,-8197,-596,8,-3,1
47395189,0.6480712890625,-0.671875,-0.275146484375,0.22998046875,492,-8127,-585,7,-2,1
47405183,0.64862060546875,-0.6712646484375,-0.2750244140625,0.23028564453125,500,-8072,-573,7,-1,0
47415167,0.64923095703125,-0.670654296875,-0.27490234375,0.23052978515625,500,-8016,-586,7,-1,-1
47425145,0.6497802734375,-0.67010498046875,-0.2747802734375,0.23065185546875,496,-7975,-592,7,0,-2
47435118,0.650390625,-0.66961669921875,-0.27471923828125,0.2305908203125,500,-7937,-585,6,1,-2
47445102,0.65093994140625,-0.66912841796875,-0.274658203125,0.23040771484375,498,-7894,-586,6,1,-3
47455084,0.65155029296875,-0.668701171875,-0.2745361328125,0.23016357421875,494,-7861,-559,5,2,-3
47465065,0.65216064453125,-0.66827392578125,-0.2744140625,0.22979736328125,494,-7820,-536,5,2,-3
47475051,0.6527099609375,-0.66796875,-0.27423095703125,0.22943115234375,489,-7809,-502,4,3,-3
47485032,0.6531982421875,-0.66766357421875,-0.2740478515625,0.22900390625,489,-7798,-476,4,4,-3
47495015,0.6536865234375,-0.66748046875,-0.27386474609375,0.22857666015625,463,-7806,-446,2,4,-3
47504997,0.65411376953125,-0.667236328125,-0.27362060546875,0.22808837890625,458,-7816,-423,3,4,-3
47514988,0.654541015625,-0.6671142578125,-0.27337646484375,0.2276611328125,455,-7836,-408,2,4,-2
47524966,0.6549072265625,-0.6669921875,-0.2730712890625,0.227294921875,446,-7865,-393,2,4,-2
47534948,0.6552734375,-0.66693115234375,-0.272705078125,0.22686767578125,443,-7895,-378,2,4,-2
47544930,0.65557861328125,-0.6668701171875,-0.2723388671875,0.22650146484375,437,-7924,-356,1,4,-1
47554915,0.6558837890625,-0.6668701171875,-0.27197265625,0.22613525390625,425,-7960,-349,1,4,-1
47564896,0.65618896484375,-0.66680908203125,-0.27166748046875,0.225830078125,431,-7986,-338,1,4,-1
47574880,0.656494140625,-0.666748046875,-0.27130126953125,0.2254638671875,439,-8028,-326,1,4,-1
47584864,0.6568603515625,-0.66668701171875,-0.27099609375,0.22509765625,441,-8081,-289,2,4,-2
47594845,0.6572265625,-0.66656494140625,-0.27069091796875,0.2247314453125,454,-8124,-266,2,4,-2
47604825,0.65771484375,-0.6663818359375,-0.27032470703125,0.22430419921875,472,-8157,-242,2,4,-2
47614807,0.65814208984375,-0.66619873046875,-0.27001953125,0.223876953125,504,-8182,-238,3,4,-2
47624791,0.65869140625,-0.666015625,-0.26959228515625,0.223388671875,530,-8210,-231,3,5,-2
47634770,0.6591796875,-0.66583251953125,-0.26922607421875,0.22283935546875,539,-8224,-233,3,5,-2
47644762,0.6597900390625,-0.66558837890625,-0.26885986328125,0.22222900390625,550,-8258,-234,3,6,-3
47654744,0.66046142578125,-0.665283203125,-0.2685546875,0.22149658203125,571,-8283,-235,4,6,-5
47664720,0.66119384765625,-0.6649169921875,-0.26849365234375,0.22052001953125,594,-8307,-219,4,6,-8
47674706,0.662109375,-0.66436767578125,-0.26861572265625,0.21923828125,608,-8364,-190,4,7,-11
47684688,0.6630859375,-0.6636962890625,-0.26898193359375,0.21771240234375,627,-8431,-187,4,7,-14
47694669,0.66424560546875,-0.6629638671875,-0.26959228515625,0.2159423828125,649,-8490,-170,5,7,-18
47704652,0.66546630859375,-0.66204833984375,-0.27044677734375,0.2138671875,682,-8546,-174,5,7,-21
47714636,0.66680908203125,-0.66094970703125,-0.2716064453125,0.21148681640625,720,-8583,-176,5,7,-26
47724620,0.66827392578125,-0.65966796875,-0.273193359375,0.20867919921875,749,-8612,-178,5,7,-31
47734603,0.66986083984375,-0.658203125,-0.27532958984375,0.2054443359375,772,-8588,-175,5,6,-37
47744585,0.67156982421875,-0.656494140625,-0.278076171875,0.20159912109375,798,-8550,-160,4,6,-46
47754568,0.6734619140625,-0.65447998046875,-0.28167724609375,0.197021484375,840,-8481,-142,4,5,-55
47764552,0.6754150390625,-0.652099609375,-0.28607177734375,0.19171142578125,889,-8379,-141,4,3,-65
47774536,0.67742919921875,-0.64935302734375,-0.29132080078125,0.18572998046875,959,-8276,-127,3,3,-74
47784518,0.67950439453125,-0.64630126953125,-0.29736328125,0.17919921875,1055,-8187,-122,3,1,-81
47794505,0.68145751953125,-0.64306640625,-0.3038330078125,0.1724853515625,1143,-8118,-123,2,-2,-85
47804483,0.68328857421875,-0.6396484375,-0.31060791015625,0.165771484375,1244,-8069,-123,2,-4,-85
47814465,0.6849365234375,-0.63616943359375,-0.3173828125,0.159423828125,1342,-8029,-120,3,-6,-82
47824449,0.6864013671875,-0.63275146484375,-0.3238525390625,0.15374755859375,1485,-8026,-122,3,-9,-76
47834436,0.68756103515625,-0.6295166015625,-0.329833984375,0.14898681640625,1632,-8066,-119,4,-11,-67
47844419,0.68853759765625,-0.62640380859375,-0.3353271484375,0.145263671875,1794,-8131,-130,6,-14,-57
47854403,0.6893310546875,-0.62353515625,-0.34014892578125,0.14251708984375,1934,-8205,-151,8,-15,-48
47864377,0.6900634765625,-0.62078857421875,-0.344482421875,0.1407470703125,2083,-8328,-184,10,-17,-41
47874361,0.69073486328125,-0.6180419921875,-0.34844970703125,0.13958740234375,2228,-8452,-216,13,-19,-35
47884343,0.69158935546875,-0.6151123046875,-0.352294921875,0.13897705078125,2365,-8536,-219,15,-20,-33
47894327,0.69256591796875,-0.61181640625,-0.356201171875,0.13836669921875,2493,-8574,-237,19,-21,-36
47904310,0.69384765625,-0.6080322265625,-0.3604736328125,0.13763427734375,2640,-8627,-240,22,-21,-40
47914295,0.69537353515625,-0.60369873046875,-0.36517333984375,0.13653564453125,2777,-8659,-243,25,-22,-47
47924277,0.69720458984375,-0.59881591796875,-0.3702392578125,0.135009765625,2918,-8651,-231,28,-22,-52
47934260,0.69927978515625,-0.59344482421875,-0.37567138671875,0.13323974609375,3061,-8599,-211,30,-22,-56
47944242,0.70147705078125,-0.587646484375,-0.38128662109375,0.13128662109375,3190,-8510,-198,33,-22,-59
47954233,0.70379638671875,-0.58160400390625,-0.386962890625,0.12921142578125,3332,-8387,-172,34,-22,-61
47964215,0.70611572265625,-0.57537841796875,-0.39263916015625,0.1270751953125,3471,-8244,-152,36,-22,-61
47974195,0.70849609375,-0.5689697265625,-0.3983154296875,0.125,3616,-8097,-115,36,-21,-60
47984190,0.71087646484375,-0.56256103515625,-0.40380859375,0.1229248046875,3741,-7916,-53,36,-21,-60
47994174,0.7132568359375,-0.55609130859375,-0.40924072265625,0.12078857421875,3861,-7733,25,36,-20,-60
48004153,0.71551513671875,-0.54962158203125,-0.41455078125,0.11859130859375,3972,-7554,103,35,-20,-60
48014123,0.71771240234375,-0.543212890625,-0.41986083984375,0.11627197265625,4093,-7428,177,34,-19,-60
48024108,0.7198486328125,-0.53680419921875,-0.425048828125,0.11383056640625,4202,-7327,226,33,-18,-60
48034090,0.721923828125,-0.53045654296875,-0.43017578125,0.11126708984375,4295,-7222,268,32,-18,-61
48046995,0.72381591796875,-0.52423095703125,-0.43536376953125,0.10845947265625,4380,-7113,308,30,-17,-62
48054054,0.7255859375,-0.51800537109375,-0.4405517578125,0.1053466796875,4469,-6975,327,28,-17,-64
48064040,0.72723388671875,-0.5118408203125,-0.44586181640625,0.1019287109375,4568,-6840,350,26,-17,-65
48074022,0.72869873046875,-0.5057373046875,-0.451171875,0.0982666015625,4682,-6722,383,24,-16,-66
48084007,0.73004150390625,-0.49981689453125,-0.45648193359375,0.0943603515625,4796,-6604,418,22,-15,-67
48093996,0.73114013671875,-0.4940185546875,-0.4617919921875,0.09014892578125,4915,-6507,459,19,-15,-68
48103978,0.732177734375,-0.48834228515625,-0.467041015625,0.0855712890625,5059,-6430,522,16,-14,-69
48113954,0.73309326171875,-0.48272705078125,-0.4722900390625,0.0806884765625,5202,-6428,555,14,-12,-71
48123938,0.73382568359375,-0.47723388671875,-0.4775390625,0.0755615234375,5370,-6457,576,12,-11,-73
48133919,0.7344970703125,-0.4718017578125,-0.48272705078125,0.070068359375,5523,-6495,596,10,-10,-74
48143901,0.73504638671875,-0.4664306640625,-0.48785400390625,0.0643310546875,5678,-6531,602,9,-10,-76
48153884,0.73565673828125,-0.4609375,-0.492919921875,0.05841064453125,5812,-6545,595,8,-8,-78
48163868,0.73614501953125,-0.45538330078125,-0.49798583984375,0.05218505859375,5933,-6548,601,8,-8,-80
48173851,0.73663330078125,-0.44976806640625,-0.50299072265625,0.0457763671875,6056,-6530,604,8,-6,-81
48183834,0.73712158203125,-0.4439697265625,-0.50787353515625,0.0391845703125,6176,-6511,630,8,-5,-82
48193818,0.73760986328125,-0.438232421875,-0.51263427734375,0.0325927734375,6316,-6508,659,7,-5,-82
48203800,0.7381591796875,-0.4324951171875,-0.51708984375,0.026123046875,6452,-6487,685,8,-3,-80
48213784,0.73870849609375,-0.4268798828125,-0.52130126953125,0.01983642578125,6589,-6460,718,9,-2,-78
48223769,0.7392578125,-0.4212646484375,-0.52520751953125,0.0137939453125,6704,-6437,743,10,-1,-75
48233757,0.73992919921875,-0.41571044921875,-0.52886962890625,0.0079345703125,6812,-6400,776,10,0,-74
48243734,0.74066162109375,-0.4100341796875,-0.53228759765625,0.002197265625,6911,-6321,805,12,1,-73
48253712,0.741455078125,-0.40423583984375,-0.53558349609375,-0.00347900390625,6989,-6237,847,13,2,-73
48263696,0.7423095703125,-0.39825439453125,-0.53875732421875,-0.00921630859375,7046,-6113,894,14,3,-74
48273677,0.7432861328125,-0.39202880859375,-0.5418701171875,-0.01507568359375,7107,-5973,927,15,5,-76
48283661,0.74432373046875,-0.385498046875,-0.54486083984375,-0.0211181640625,7170,-5800,986,16,6,-78
48293644,0.74542236328125,-0.37884521484375,-0.5478515625,-0.02728271484375,7229,-5621,1033,17,7,-79
48303626,0.74652099609375,-0.3720703125,-0.55059814453125,-0.03350830078125,7271,-5430,1071,17,8,-78
48313611,0.74774169921875,-0.365234375,-0.5531005859375,-0.03961181640625,7312,-5206,1111,18,10,-77
48323593,0.7490234375,-0.35845947265625,-0.55535888671875,-0.04571533203125,7333,-4987,1179,18,12,-75
48333576,0.75030517578125,-0.351806640625,-0.55731201171875,-0.05169677734375,7337,-4765,1252,17,13,-73
48343558,0.751708984375,-0.34527587890625,-0.5589599609375,-0.05755615234375,7355,-4559,1303,17,15,-71
48353542,0.75311279296875,-0.33880615234375,-0.56036376953125,-0.06341552734375,7375,-4361,1343,17,16,-69
48363523,0.75457763671875,-0.33245849609375,-0.5615234375,-0.0692138671875,7364,-4165,1386,16,17,-68
48373505,0.75604248046875,-0.326171875,-0.5625,-0.0750732421875,7346,-3982,1427,15,19,-68
48383489,0.7574462890625,-0.32000732421875,-0.5633544921875,-0.08099365234375,7328,-3803,1462,14,20,-67
48393470,0.75885009765625,-0.31390380859375,-0.56396484375,-0.0869140625,7296,-3620,1503,13,21,-66
48403454,0.76019287109375,-0.30792236328125,-0.564453125,-0.09283447265625,7288,-3459,1529,12,22,-65
48413435,0.76153564453125,-0.30218505859375,-0.5648193359375,-0.09881591796875,7284,-3291,1573,11,22,-64
48423425,0.76275634765625,-0.2965087890625,-0.5650634765625,-0.1048583984375,7258,-3140,1608,9,22,-64
48433409,0.76385498046875,-0.2911376953125,-0.565185546875,-0.1109619140625,7213,-2999,1632,8,23,-64
48443392,0.764892578125,-0.28582763671875,-0.56524658203125,-0.11712646484375,7147,-2865,1649,6,22,-63
48453368,0.76580810546875,-0.2806396484375,-0.5653076171875,-0.12335205078125,7070,-2747,1662,5,22,-64
48463350,0.76654052734375,-0.275634765625,-0.56536865234375,-0.129638671875,6999,-2639,1674,3,21,-64
48473334,0.76715087890625,-0.27081298828125,-0.5654296875,-0.1358642578125,6973,-2570,1678,2,21,-63
48483312,0.76763916015625,-0.2662353515625,-0.5654296875,-0.14202880859375,6983,-2530,1694,1,19,-61
48493296,0.76800537109375,-0.261962890625,-0.5654296875,-0.1478271484375,6980,-2495,1704,0,18,-58
48503280,0.768310546875,-0.2579345703125,-0.5654296875,-0.15338134765625,6957,-2456,1721,0,17,-56
48513260,0.76849365234375,-0.25408935546875,-0.5654296875,-0.1588134765625,6925,-2434,1735,0,16,-55
48523241,0.76849365234375,-0.25030517578125,-0.56561279296875,-0.1640625,6902,-2416,1728,0,14,-54
48533234,0.768310546875,-0.24664306640625,-0.56591796875,-0.16912841796875,6863,-2388,1723,0,12,-54
48543217,0.76800537109375,-0.24298095703125,-0.56640625,-0.17413330078125,6859,-2370,1716,1,9,-54
48553206,0.76751708984375,-0.2393798828125,-0.567138671875,-0.17889404296875,6852,-2319,1713,1,7,-53
48563189,0.76690673828125,-0.2357177734375,-0.5679931640625,-0.18353271484375,6856,-2254,1721,2,5,-53
48573174,0.76611328125,-0.2320556640625,-0.569091796875,-0.18817138671875,6883,-2185,1719,2,3,-53
48583146,0.76513671875,-0.2283935546875,-0.5703125,-0.19268798828125,6906,-2081,1737,2,1,-53
48593125,0.76409912109375,-0.22467041015625,-0.57171630859375,-0.1971435546875,6928,-1995,1736,3,-1,-53
48603108,0.7628173828125,-0.22100830078125,-0.57330322265625,-0.2015380859375,6940,-1903,1729,4,-3,-54
48613090,0.761474609375,-0.21722412109375,-0.57501220703125,-0.205810546875,6952,-1820,1717,4,-4,-54
48623074,0.75994873046875,-0.21343994140625,-0.576904296875,-0.2100830078125,6962,-1718,1698,5,-6,-54
48633056,0.75830078125,-0.20953369140625,-0.5789794921875,-0.21417236328125,6998,-1610,1694,6,-7,-54
48643039,0.756591796875,-0.20562744140625,-0.58111572265625,-0.21820068359375,7031,-1502,1683,7,-8,-53
48653022,0.7547607421875,-0.2017822265625,-0.5833740234375,-0.2220458984375,7076,-1397,1672,7,-10,-53
48663004,0.7529296875,-0.19793701171875,-0.58563232421875,-0.22576904296875,7114,-1281,1667,8,-10,-52
48672994,0.7509765625,-0.19403076171875,-0.5880126953125,-0.22943115234375,7165,-1146,1647,8,-11,-52
48682976,0.74896240234375,-0.190185546875,-0.59039306640625,-0.23297119140625,7225,-1026,1646,8,-12,-50
48692956,0.74700927734375,-0.18646240234375,-0.59283447265625,-0.23626708984375,7292,-889,1649,8,-12,-48
48702936,0.7449951171875,-0.182861328125,-0.59515380859375,-0.23944091796875,7354,-769,1649,8,-12,-47
48712918,0.7430419921875,-0.17926025390625,-0.59747314453125,-0.2425537109375,7399,-627,1652,8,-12,-46
48722904,0.740966796875,-0.17559814453125,-0.5997314453125,-0.24578857421875,7432,-482,1642,8,-12,-48
48732887,0.73883056640625,-0.17169189453125,-0.60211181640625,-0.2493896484375,7464,-336,1632,7,-12,-51
48742868,0.736572265625,-0.1673583984375,-0.6043701171875,-0.25347900390625,7497,-185,1634,7,-11,-56
48752851,0.734130859375,-0.16278076171875,-0.60662841796875,-0.2579345703125,7575,-61,1633,7,-10,-61
48762833,0.73175048828125,-0.15802001953125,-0.6087646484375,-0.26263427734375,7668,74,1631,6,-8,-61
48772816,0.7294921875,-0.15338134765625,-0.6107177734375,-0.26727294921875,7765,197,1632,6,-7,-59
48782799,0.72735595703125,-0.14898681640625,-0.61236572265625,-0.27154541015625,7863,325,1633,5,-6,-55
48792785,0.72552490234375,-0.14495849609375,-0.61376953125,-0.275390625,7930,457,1629,5,-3,-49
48802773,0.7239990234375,-0.141357421875,-0.61492919921875,-0.27880859375,8002,578,1634,4,-2,-43
48812755,0.72271728515625,-0.13818359375,-0.61578369140625,-0.2818603515625,8082,706,1631,4,-1,-38
48822741,0.7216796875,-0.13531494140625,-0.61639404296875,-0.2845458984375,8166,806,1641,3,1,-34
48832715,0.72088623046875,-0.13275146484375,-0.61676025390625,-0.286865234375,8255,882,1654,3,3,-30
48842699,0.72039794921875,-0.1304931640625,-0.6168212890625,-0.2890625,8328,928,1684,2,4,-27
48852683,0.72003173828125,-0.12841796875,-0.6168212890625,-0.291015625,8417,956,1708,1,5,-25
48862664,0.7197265625,-0.12640380859375,-0.61663818359375,-0.29290771484375,8512,1000,1740,1,6,-24
48872647,0.719482421875,-0.124267578125,-0.6163330078125,-0.29498291015625,8613,1023,1778,1,8,-26
48882627,0.71923828125,-0.1220703125,-0.61602783203125,-0.2972412109375,8677,1065,1805,0,8,-28
48892610,0.7188720703125,-0.1195068359375,-0.61566162109375,-0.2999267578125,8715,1120,1844,1,9,-33
48902592,0.71826171875,-0.11639404296875,-0.6153564453125,-0.30322265625,8716,1207,1886,0,9,-40
48912575,0.7174072265625,-0.11273193359375,-0.61505126953125,-0.30718994140625,8685,1318,1920,0,10,-48
48922559,0.71624755859375,-0.1085205078125,-0.61480712890625,-0.31182861328125,8631,1458,1965,-1,10,-54
48932542,0.71478271484375,-0.1038818359375,-0.61456298828125,-0.317138671875,8525,1619,2001,-2,9,-60
48942525,0.71319580078125,-0.09906005859375,-0.61431884765625,-0.32275390625,8387,1765,2046,-3,9,-62
48952506,0.71148681640625,-0.09429931640625,-0.61407470703125,-0.32843017578125,8201,1915,2094,-3,8,-61
48962488,0.709716796875,-0.08978271484375,-0.61376953125,-0.333984375,7980,2046,2137,-4,7,-59
48972471,0.70782470703125,-0.08563232421875,-0.61358642578125,-0.33935546875,7745,2133,2193,-5,4,-57
48982454,0.70587158203125,-0.08172607421875,-0.613525390625,-0.34454345703125,7470,2205,2232,-5,1,-55
48992435,0.70361328125,-0.07794189453125,-0.6136474609375,-0.349609375,7173,2274,2245,-5,-2,-55
49002425,0.70098876953125,-0.07421875,-0.6141357421875,-0.3548583984375,6786,2387,2245,-5,-6,-56
49012407,0.69793701171875,-0.0701904296875,-0.6148681640625,-0.3604736328125,6403,2473,2262,-5,-9,-61
49022389,0.6943359375,-0.06597900390625,-0.6158447265625,-0.366455078125,6040,2585,2237,-5,-12,-65
49032365,0.69036865234375,-0.06158447265625,-0.6170654296875,-0.37261962890625,5635,2709,2223,-5,-15,-67
49042351,0.68609619140625,-0.0572509765625,-0.61846923828125,-0.37884521484375,5270,2807,2202,-5,-18,-67
49052331,0.68170166015625,-0.05316162109375,-0.6199951171875,-0.3848876953125,4890,2888,2146,-5,-20,-64
49062313,0.67724609375,-0.0494384765625,-0.62164306640625,-0.3905029296875,4505,2937,2078,-5,-22,-60
49072297,0.6727294921875,-0.04608154296875,-0.6234130859375,-0.39581298828125,4099,2948,2001,-5,-25,-56
49082279,0.6683349609375,-0.043212890625,-0.62530517578125,-0.4005126953125,3706,2906,1868,-4,-26,-50
49092262,0.6641845703125,-0.04083251953125,-0.6273193359375,-0.40460205078125,3321,2852,1757,-3,-27,-42
49102242,0.66033935546875,-0.03900146484375,-0.62933349609375,-0.407958984375,2958,2790,1644,-2,-27,-34
49112236,0.65679931640625,-0.03759765625,-0.63134765625,-0.41064453125,2660,2729,1548,0,-27,-27
49122217,0.65374755859375,-0.0367431640625,-0.63330078125,-0.41259765625,2426,2616,1471,0,-26,-20
49132206,0.65118408203125,-0.03631591796875,-0.6351318359375,-0.41387939453125,2265,2509,1413,1,-24,-12
49142191,0.6492919921875,-0.03668212890625,-0.6368408203125,-0.41412353515625,2199,2381,1317,3,-23,0
49152174,0.6483154296875,-0.03814697265625,-0.63848876953125,-0.41302490234375,2201,2231,1223,4,-21,16
49162145,0.64837646484375,-0.04095458984375,-0.6400146484375,-0.4102783203125,2316,2094,1133,5,-20,36
49172123,0.64959716796875,-0.0452880859375,-0.6414794921875,-0.40557861328125,2532,1978,1038,7,-18,57
49182106,0.6519775390625,-0.05108642578125,-0.6427001953125,-0.39910888671875,2835,1900,975,8,-17,76
49192090,0.655029296875,-0.057861328125,-0.643798828125,-0.39129638671875,3202,1866,908,10,-15,89
49202073,0.65869140625,-0.06524658203125,-0.6446533203125,-0.382568359375,3643,1835,868,11,-13,97
49212056,0.66259765625,-0.072998046875,-0.645263671875,-0.37322998046875,4145,1810,818,11,-12,102
49222039,0.6666259765625,-0.08111572265625,-0.645751953125,-0.3634033203125,4651,1813,770,11,-11,107
49232023,0.6707763671875,-0.08941650390625,-0.64605712890625,-0.35321044921875,5188,1845,729,12,-10,110
49242007,0.6748046875,-0.0977783203125,-0.64617919921875,-0.34283447265625,5734,1917,701,11,-10,111
49251995,0.6787109375,-0.1060791015625,-0.64617919921875,-0.33251953125,6309,2008,679,10,-9,111
49261983,0.682373046875,-0.1142578125,-0.64599609375,-0.32257080078125,6893,2084,669,8,-8,107
49271959,0.68572998046875,-0.1220703125,-0.64556884765625,-0.31329345703125,7425,2116,667,5,-8,100
49281941,0.688720703125,-0.12957763671875,-0.64495849609375,-0.3048095703125,7914,2084,665,3,-7,93
49291922,0.69140625,-0.13665771484375,-0.644287109375,-0.29705810546875,8347,2007,626,0,-5,86
49301904,0.69384765625,-0.1435546875,-0.6434326171875,-0.2899169921875,8695,1916,582,-2,-4,82
49311886,0.69610595703125,-0.150146484375,-0.64239501953125,-0.2833251953125,8967,1792,559,-4,-2,77
49321865,0.6982421875,-0.15643310546875,-0.6412353515625,-0.27716064453125,9194,1630,532,-5,-2,72
49331854,0.7001953125,-0.16241455078125,-0.6400146484375,-0.27154541015625,9384,1468,527,-6,0,67
49341833,0.7020263671875,-0.16796875,-0.638671875,-0.26654052734375,9555,1293,547,-7,1,61
49351814,0.7037353515625,-0.1732177734375,-0.63726806640625,-0.26202392578125,9682,1125,550,-8,2,57
49361798,0.70538330078125,-0.17816162109375,-0.63580322265625,-0.25787353515625,9741,964,572,-9,3,53
49371784,0.70703125,-0.18292236328125,-0.6341552734375,-0.25396728515625,9697,793,600,-8,4,52
49381770,0.70880126953125,-0.187744140625,-0.63238525390625,-0.24981689453125,9602,638,626,-8,5,55
49391753,0.71075439453125,-0.19287109375,-0.6304931640625,-0.2452392578125,9496,423,659,-7,5,59
49401736,0.7127685546875,-0.1982421875,-0.62847900390625,-0.24017333984375,9423,195,694,-6,4,63
49411712,0.71478271484375,-0.20361328125,-0.62646484375,-0.23492431640625,9358,-2,724,-5,4,63
49421696,0.7166748046875,-0.20880126953125,-0.62451171875,-0.22979736328125,9301,-194,766,-5,3,59
49431678,0.7183837890625,-0.2135009765625,-0.6226806640625,-0.22509765625,9266,-352,811,-4,3,54
49441662,0.7198486328125,-0.2176513671875,-0.6209716796875,-0.22088623046875,9177,-455,863,-4,3,48
49451642,0.72125244140625,-0.2213134765625,-0.619384765625,-0.21710205078125,9029,-517,907,-3,3,44
49461624,0.7225341796875,-0.224853515625,-0.617919921875,-0.2135009765625,8877,-558,951,-3,2,43
49471607,0.7237548828125,-0.22845458984375,-0.61639404296875,-0.20977783203125,8692,-606,994,-3,1,45
49481591,0.72491455078125,-0.2322998046875,-0.614990234375,-0.205810546875,8544,-660,1023,-3,-1,47
49491572,0.72589111328125,-0.236328125,-0.6136474609375,-0.20166015625,8439,-746,1049,-4,-3,48
49501554,0.726806640625,-0.24041748046875,-0.61236572265625,-0.19757080078125,8380,-833,1067,-5,-4,48
49511542,0.72747802734375,-0.24462890625,-0.61114501953125,-0.1934814453125,8356,-939,1086,-6,-5,47
49521520,0.72802734375,-0.24884033203125,-0.6099853515625,-0.1895751953125,8360,-1061,1088,-7,-6,46
49531501,0.728515625,-0.253173828125,-0.60888671875,-0.185546875,8371,-1203,1086,-7,-6,47
49541485,0.7288818359375,-0.2576904296875,-0.6077880859375,-0.18157958984375,8362,-1352,1075,-8,-7,47
49551467,0.72918701171875,-0.2620849609375,-0.606689453125,-0.1776123046875,8334,-1469,1044,-8,-7,46
49561451,0.72930908203125,-0.266357421875,-0.60577392578125,-0.1739501953125,8271,-1558,1014,-9,-8,42
49571438,0.72918701171875,-0.27020263671875,-0.6051025390625,-0.17083740234375,8214,-1620,995,-9,-9,36
49581423,0.7288818359375,-0.2735595703125,-0.6046142578125,-0.1683349609375,8155,-1677,994,-9,-10,29
49591405,0.72845458984375,-0.276611328125,-0.6043701171875,-0.16632080078125,8139,-1723,986,-10,-10,24
49601382,0.72784423828125,-0.2794189453125,-0.60418701171875,-0.164794921875,8142,-1752,989,-11,-10,21
49611364,0.72723388671875,-0.28228759765625,-0.60400390625,-0.163330078125,8174,-1814,981,-12,-10,22
49621350,0.7266845703125,-0.28546142578125,-0.6036376953125,-0.16156005859375,8219,-1883,956,-12,-9,27
49631332,0.72625732421875,-0.2890625,-0.60296630859375,-0.1593017578125,8236,-1971,924,-13,-8,33
49641314,0.72601318359375,-0.29315185546875,-0.60205078125,-0.156494140625,8215,-2057,886,-13,-8,38
49651299,0.725830078125,-0.2974853515625,-0.60101318359375,-0.15338134765625,8164,-2130,836,-12,-7,41
49661281,0.72564697265625,-0.30169677734375,-0.599853515625,-0.1502685546875,8083,-2169,806,-12,-7,40
49671264,0.7254638671875,-0.30560302734375,-0.59881591796875,-0.14752197265625,7995,-2181,787,-12,-6,36
49681244,0.7252197265625,-0.30914306640625,-0.597900390625,-0.145263671875,7931,-2189,781,-12,-6,31
49691235,0.7249755859375,-0.31231689453125,-0.59698486328125,-0.1434326171875,7914,-2246,791,-12,-5,28
49701218,0.7247314453125,-0.31549072265625,-0.595947265625,-0.14166259765625,7935,-2342,787,-13,-4,27
49711206,0.724609375,-0.31884765625,-0.59478759765625,-0.1397705078125,7963,-2449,761,-13,-3,30
49721190,0.72454833984375,-0.322509765625,-0.5933837890625,-0.13751220703125,7945,-2549,742,-13,-2,35
49731174,0.724609375,-0.326416015625,-0.591796875,-0.13482666015625,7925,-2639,702,-12,-2,39
49741153,0.72479248046875,-0.33050537109375,-0.5899658203125,-0.1318359375,7887,-2721,679,-11,-1,42
49751129,0.72503662109375,-0.3345947265625,-0.58807373046875,-0.12872314453125,7812,-2765,662,-11,0,42
49761108,0.72528076171875,-0.33843994140625,-0.586181640625,-0.1258544921875,7718,-2773,650,-11,0,40
49771089,0.7255859375,-0.3419189453125,-0.5843505859375,-0.123291015625,7622,-2761,668,-10,1,36
49781074,0.725830078125,-0.3450927734375,-0.58258056640625,-0.12115478515625,7556,-2779,682,-10,2,32
49791056,0.72613525390625,-0.34814453125,-0.580810546875,-0.11920166015625,7504,-2800,693,-10,3,31
49801039,0.72650146484375,-0.351318359375,-0.578857421875,-0.11724853515625,7474,-2886,707,-11,4,32
49811020,0.72686767578125,-0.3546142578125,-0.5767822265625,-0.1151123046875,7467,-2979,689,-11,4,35
49821003,0.72735595703125,-0.3582763671875,-0.574462890625,-0.112548828125,7455,-3081,670,-11,5,39
49830993,0.72784423828125,-0.36212158203125,-0.57196044921875,-0.109619140625,7427,-3165,654,-10,5,43
49840975,0.7283935546875,-0.3660888671875,-0.5693359375,-0.1064453125,7361,-3221,658,-10,5,46
49850953,0.72900390625,-0.3699951171875,-0.56658935546875,-0.10321044921875,7291,-3256,665,-10,5,46
49860935,0.7296142578125,-0.3739013671875,-0.5638427734375,-0.10003662109375,7211,-3285,686,-9,6,45
49870918,0.730224609375,-0.37762451171875,-0.56109619140625,-0.0970458984375,7140,-3302,704,-10,6,44
49880901,0.73077392578125,-0.3812255859375,-0.558349609375,-0.09417724609375,7070,-3341,736,-10,6,42
49890884,0.73138427734375,-0.3848876953125,-0.5555419921875,-0.09136962890625,7039,-3419,760,-10,7,42
49900866,0.73193359375,-0.3885498046875,-0.55267333984375,-0.0885009765625,7037,-3501,775,-11,7,43
49910847,0.73248291015625,-0.39239501953125,-0.5496826171875,-0.0855712890625,7016,-3579,785,-11,7,45
49920832,0.7330322265625,-0.3963623046875,-0.54656982421875,-0.0823974609375,6978,-3660,802,-11,7,47
49930815,0.73358154296875,-0.400390625,-0.54339599609375,-0.07916259765625,6931,-3717,819,-11,7,48
49940798,0.73419189453125,-0.40435791015625,-0.54010009765625,-0.075927734375,6858,-3790,835,-11,8,48
49950784,0.73468017578125,-0.40838623046875,-0.53680419921875,-0.07269287109375,6760,-3861,843,-11,8,48
49960769,0.73516845703125,-0.412353515625,-0.53350830078125,-0.069580078125,6682,-3939,871,-11,8,47
49970752,0.7357177734375,-0.41632080078125,-0.5301513671875,-0.06640625,6607,-4038,870,-11,8,47
49980735,0.73614501953125,-0.42034912109375,-0.52667236328125,-0.06298828125,6537,-4139,871,-11,8,50
49990711,0.73663330078125,-0.4246826171875,-0.52301025390625,-0.05914306640625,6491,-4267,860,-10,8,55
50000695,0.737060546875,-0.42926025390625,-0.51910400390625,-0.0548095703125,6428,-4402,846,-10,7,59
50010681,0.737548828125,-0.43402099609375,-0.5150146484375,-0.04998779296875,6352,-4533,845,-9,7,63
50020665,0.73797607421875,-0.4388427734375,-0.5107421875,-0.0447998046875,6268,-4671,834,-8,6,66
50030646,0.73834228515625,-0.4437255859375,-0.50640869140625,-0.0394287109375,6191,-4796,823,-7,6,67
50040628,0.7386474609375,-0.448486328125,-0.5020751953125,-0.03399658203125,6118,-4923,823,-7,5,67
50050612,0.73895263671875,-0.45318603515625,-0.49774169921875,-0.0284423828125,6049,-5041,817,-6,5,67
50060593,0.73919677734375,-0.45782470703125,-0.493408203125,-0.0228271484375,5985,-5179,796,-6,4,68
50070576,0.73931884765625,-0.46258544921875,-0.489013671875,-0.016845703125,5911,-5352,767,-5,3,71
50080558,0.7393798828125,-0.467529296875,-0.48443603515625,-0.01031494140625,5843,-5537,733,-4,2,75
50090542,0.73931884765625,-0.47265625,-0.4796142578125,-0.003173828125,5773,-5748,688,-3,1,81
50100526,0.73907470703125,-0.47802734375,-0.47454833984375,0.004638671875,5697,-5937,641,-2,-1,87
50110502,0.73870849609375,-0.48358154296875,-0.4693603515625,0.01300048828125,5607,-6105,596,-2,-3,91
50120486,0.7381591796875,-0.48907470703125,-0.46417236328125,0.021728515625,5500,-6261,561,-1,-5,92
50130473,0.737548828125,-0.49432373046875,-0.4591064453125,0.0303955078125,5385,-6406,531,0,-6,90
50140453,0.73675537109375,-0.49932861328125,-0.45428466796875,0.03887939453125,5261,-6559,499,0,-7,86
50150434,0.73583984375,-0.50396728515625,-0.44989013671875,0.04693603515625,5162,-6695,465,1,-8,80
50160424,0.73480224609375,-0.5081787109375,-0.44586181640625,0.05462646484375,5085,-6814,447,1,-9,75
50170410,0.73370361328125,-0.51214599609375,-0.44219970703125,0.06195068359375,4992,-6932,432,1,-10,71
50180391,0.7325439453125,-0.51580810546875,-0.43878173828125,0.06890869140625,4911,-6999,432,1,-11,68
50190367,0.7313232421875,-0.51934814453125,-0.43560791015625,0.0755615234375,4832,-7054,449,0,-12,65
50200351,0.73004150390625,-0.522705078125,-0.43255615234375,0.08203125,4761,-7145,456,-1,-12,63
50210333,0.7286376953125,-0.5260009765625,-0.42962646484375,0.0882568359375,4673,-7257,467,-2,-12,60
50220313,0.72723388671875,-0.529296875,-0.42681884765625,0.09423828125,4623,-7352,462,-3,-12,59
50230297,0.7257080078125,-0.532470703125,-0.42401123046875,0.10003662109375,4577,-7442,462,-4,-11,58
50240279,0.72418212890625,-0.5357666015625,-0.42120361328125,0.10565185546875,4539,-7537,471,-4,-10,58
50250261,0.7225341796875,-0.5390625,-0.41827392578125,0.1112060546875,4541,-7658,488,-5,-10,59
50260243,0.72088623046875,-0.54254150390625,-0.41510009765625,0.1168212890625,4513,-7791,517,-6,-9,61
50270234,0.71917724609375,-0.546142578125,-0.41168212890625,0.12261962890625,4483,-7945,525,-6,-8,63
50280219,0.71746826171875,-0.5498046875,-0.40802001953125,0.12835693359375,4450,-8106,530,-7,-7,65
50290206,0.7156982421875,-0.55352783203125,-0.40423583984375,0.13409423828125,4370,-8264,544,-7,-5,64
50300191,0.71405029296875,-0.55712890625,-0.40032958984375,0.1396484375,4272,-8409,561,-6,-4,63
50310175,0.71246337890625,-0.560546875,-0.396484375,0.1448974609375,4140,-8518,573,-6,-3,60
50320158,0.7110595703125,-0.56365966796875,-0.3927001953125,0.14990234375,3980,-8575,573,-5,-2,56
50330127,0.709716796875,-0.5665283203125,-0.38916015625,0.15447998046875,3822,-8606,570,-4,-2,52
50340110,0.70849609375,-0.56915283203125,-0.38592529296875,0.15875244140625,3645,-8590,569,-3,-2,48
50350094,0.707275390625,-0.57147216796875,-0.3829345703125,0.16278076171875,3459,-8531,585,-3,-3,44
50360074,0.70623779296875,-0.57342529296875,-0.38031005859375,0.1666259765625,3277,-8426,629,-2,-5,39
50370055,0.7052001953125,-0.5750732421875,-0.378173828125,0.1702880859375,3098,-8313,683,-2,-8,35
50380039,0.7041015625,-0.576416015625,-0.37652587890625,0.173828125,2923,-8206,735,-1,-10,31
50390021,0.7030029296875,-0.57745361328125,-0.37542724609375,0.17724609375,2779,-8131,770,-1,-14,27
50400004,0.7017822265625,-0.578125,-0.375,0.1806640625,2666,-8091,794,-1,-19,22
50409995,0.7005615234375,-0.57843017578125,-0.37530517578125,0.18389892578125,2567,-8060,794,0,-22,17
50419980,0.69927978515625,-0.57830810546875,-0.3763427734375,0.18695068359375,2531,-8043,759,1,-27,11
50429957,0.697998046875,-0.57769775390625,-0.37811279296875,0.18975830078125,2549,-7999,715,2,-30,5
50439936,0.69683837890625,-0.57672119140625,-0.380615234375,0.19232177734375,2602,-7950,669,3,-33,1
50449919,0.69561767578125,-0.57537841796875,-0.383544921875,0.194580078125,2701,-7871,609,4,-34,-3
50459900,0.69451904296875,-0.5738525390625,-0.38690185546875,0.19659423828125,2851,-7755,560,4,-35,-6
50469883,0.6934814453125,-0.5721435546875,-0.39031982421875,0.19842529296875,3016,-7651,492,4,-35,-7
50479865,0.6925048828125,-0.57049560546875,-0.39373779296875,0.20001220703125,3203,-7542,440,4,-33,-7
50489849,0.69146728515625,-0.56903076171875,-0.39691162109375,0.201416015625,3378,-7431,366,3,-30,-5
50499831,0.6904296875,-0.56781005859375,-0.3997802734375,0.2027587890625,3535,-7316,289,1,-27,-2
50509818,0.68939208984375,-0.5670166015625,-0.402099609375,0.20404052734375,3687,-7224,235,0,-23,2
50519798,0.68829345703125,-0.56658935546875,-0.40380859375,0.20538330078125,3790,-7157,178,-2,-19,7
50529784,0.6871337890625,-0.5667724609375,-0.40484619140625,0.20672607421875,3856,-7111,128,-4,-15,13
50539767,0.6859130859375,-0.5675048828125,-0.4051513671875,0.2081298828125,3884,-7085,85,-6,-10,17
50549753,0.68463134765625,-0.56878662109375,-0.40484619140625,0.20947265625,3880,-7084,36,-8,-6,22
50559733,0.683349609375,-0.57049560546875,-0.40386962890625,0.2108154296875,3858,-7109,-4,-10,-1,26
50569715,0.68206787109375,-0.5726318359375,-0.40240478515625,0.21197509765625,3812,-7153,-33,-11,3,28
50579695,0.68084716796875,-0.5750732421875,-0.40045166015625,0.21295166015625,3697,-7235,-57,-13,7,29
50589677,0.6796875,-0.57781982421875,-0.39813232421875,0.2137451171875,3554,-7302,-79,-14,11,29
50599661,0.67852783203125,-0.5806884765625,-0.39556884765625,0.21417236328125,3401,-7389,-91,-15,14,28
50609645,0.67755126953125,-0.5836181640625,-0.3929443359375,0.21435546875,3238,-7504,-93,-16,16,26
50619627,0.6766357421875,-0.58648681640625,-0.3902587890625,0.2142333984375,3044,-7613,-106,-16,17,23
50629611,0.67584228515625,-0.5892333984375,-0.3876953125,0.21380615234375,2848,-7740,-130,-15,18,19
