subject,Reese Hammons
arm,left
label,0
hz,100.17254037562394
time,4.761784

timestamp_us,q0,q1,q2,q3,ax,ay,az,gx,gy,gz
85419594,0.6702880859375,-0.62188720703125,-0.34478759765625,0.2122802734375,1824,-8013,-45,9,2,0
85429570,0.67108154296875,-0.62127685546875,-0.34423828125,0.21246337890625,1793,-7923,-59,8,3,1
85439553,0.67181396484375,-0.62078857421875,-0.3436279296875,0.212646484375,1763,-7820,-59,7,3,2
85449536,0.6724853515625,-0.62042236328125,-0.34283447265625,0.212890625,1727,-7747,-63,7,4,4
85459520,0.6729736328125,-0.6202392578125,-0.34197998046875,0.21319580078125,1683,-7678,-80,6,4,4
85469503,0.67340087890625,-0.6201171875,-0.34112548828125,0.2135009765625,1640,-7635,-90,5,4,5
85479483,0.67376708984375,-0.6201171875,-0.34027099609375,0.21380615234375,1613,-7579,-111,4,4,5
85489468,0.67401123046875,-0.62017822265625,-0.3394775390625,0.214111328125,1592,-7554,-105,3,3,5
85499451,0.67425537109375,-0.6202392578125,-0.33880615234375,0.21435546875,1570,-7534,-125,2,3,4
85509433,0.6744384765625,-0.62030029296875,-0.3382568359375,0.21441650390625,1565,-7529,-142,2,3,3
85519425,0.674560546875,-0.620361328125,-0.33782958984375,0.2144775390625,1539,-7540,-155,1,2,2
85529411,0.6746826171875,-0.62042236328125,-0.3375244140625,0.21441650390625,1512,-7567,-161,1,2,1
85539391,0.67474365234375,-0.6204833984375,-0.33734130859375,0.21435546875,1503,-7605,-166,0,1,0
85549371,0.67474365234375,-0.62054443359375,-0.33721923828125,0.21435546875,1491,-7667,-169,0,1,0
85559353,0.67474365234375,-0.62060546875,-0.33709716796875,0.21441650390625,1471,-7731,-170,0,0,1
85569335,0.6746826171875,-0.6207275390625,-0.3370361328125,0.21441650390625,1483,-7781,-172,0,0,0
85579319,0.67462158203125,-0.62078857421875,-0.33697509765625,0.2144775390625,1488,-7843,-161,0,-1,0
85589302,0.674560546875,-0.62078857421875,-0.3370361328125,0.21453857421875,1503,-7896,-143,0,-1,-1
85599277,0.67449951171875,-0.6207275390625,-0.337158203125,0.21453857421875,1519,-7939,-135,0,-1,-1
85609262,0.674560546875,-0.62066650390625,-0.33734130859375,0.21441650390625,1528,-7981,-112,0,-1,-3
85619242,0.67462158203125,-0.6204833984375,-0.33758544921875,0.2142333984375,1544,-8014,-107,0,-1,-3
85629233,0.67474365234375,-0.62030029296875,-0.337890625,0.2139892578125,1566,-8024,-104,1,-1,-4
85639216,0.6749267578125,-0.62005615234375,-0.338134765625,0.21380615234375,1563,-8024,-84,1,-1,-4
85649206,0.67510986328125,-0.61981201171875,-0.33831787109375,0.213623046875,1570,-8005,-56,1,0,-4
85659189,0.67535400390625,-0.6195068359375,-0.3385009765625,0.21337890625,1579,-7968,-40,2,0,-3
85669174,0.67559814453125,-0.61932373046875,-0.338623046875,0.213134765625,1582,-7910,-23,1,1,-3
85679155,0.67578125,-0.619140625,-0.33868408203125,0.212890625,1575,-7848,-4,1,1,-3
85689125,0.676025390625,-0.61895751953125,-0.33868408203125,0.212646484375,1570,-7778,0,1,1,-2
85699112,0.6761474609375,-0.618896484375,-0.338623046875,0.21240234375,1545,-7711,-10,0,1,-2
85709092,0.67626953125,-0.61895751953125,-0.33856201171875,0.212158203125,1527,-7646,-13,-1,2,-2
85719073,0.67620849609375,-0.61907958984375,-0.3385009765625,0.2119140625,1510,-7578,-24,-1,1,-1
85729053,0.67620849609375,-0.6192626953125,-0.33837890625,0.21160888671875,1486,-7519,-46,-2,2,-1
85739038,0.676025390625,-0.6195068359375,-0.33831787109375,0.21136474609375,1465,-7485,-59,-3,1,-1
85749023,0.67584228515625,-0.61993408203125,-0.3382568359375,0.21112060546875,1454,-7466,-84,-4,2,0
85759004,0.67547607421875,-0.62042236328125,-0.338134765625,0.21087646484375,1439,-7459,-115,-5,1,1
85768991,0.67498779296875,-0.62109375,-0.3380126953125,0.210693359375,1423,-7458,-129,-6,1,1
85778966,0.67449951171875,-0.62176513671875,-0.33782958984375,0.21051025390625,1391,-7476,-132,-7,1,2
85788947,0.67388916015625,-0.62255859375,-0.33770751953125,0.21044921875,1383,-7515,-128,-8,0,3
85798931,0.6732177734375,-0.6234130859375,-0.3375244140625,0.21038818359375,1375,-7563,-128,-8,0,2
85808914,0.6724853515625,-0.624267578125,-0.33746337890625,0.2103271484375,1372,-7640,-115,-9,0,3
85818898,0.67169189453125,-0.6251220703125,-0.33740234375,0.210205078125,1369,-7718,-105,-9,-1,2
85828879,0.67095947265625,-0.6259765625,-0.33746337890625,0.21014404296875,1378,-7812,-116,-9,-1,2
85838861,0.670166015625,-0.62677001953125,-0.3375244140625,0.21002197265625,1399,-7904,-128,-9,-1,2
85848844,0.66943359375,-0.62750244140625,-0.337646484375,0.2099609375,1426,-8001,-136,-8,-1,2
85858826,0.66876220703125,-0.62823486328125,-0.337646484375,0.20989990234375,1454,-8080,-146,-8,-1,2
85868809,0.66815185546875,-0.62890625,-0.337646484375,0.2099609375,1482,-8148,-159,-7,-1,3
85878792,0.66754150390625,-0.62957763671875,-0.3375244140625,0.21002197265625,1497,-8199,-163,-6,-1,3
85888772,0.6669921875,-0.630126953125,-0.33734130859375,0.210205078125,1515,-8247,-176,-5,-1,4
85898769,0.66650390625,-0.6307373046875,-0.33709716796875,0.21044921875,1527,-8285,-181,-5,0,5
85908748,0.66607666015625,-0.63128662109375,-0.336669921875,0.21075439453125,1537,-8313,-185,-4,0,5
85918724,0.66571044921875,-0.6318359375,-0.33624267578125,0.2110595703125,1542,-8334,-187,-3,0,6
85928707,0.6654052734375,-0.63232421875,-0.335693359375,0.21148681640625,1529,-8369,-194,-3,1,7
85938691,0.6651611328125,-0.6328125,-0.3349609375,0.21197509765625,1510,-8388,-205,-2,1,8
85948673,0.6649169921875,-0.63323974609375,-0.33416748046875,0.2125244140625,1485,-8397,-220,-1,1,8
85958661,0.664794921875,-0.6336669921875,-0.3333740234375,0.21307373046875,1454,-8402,-229,0,2,8
85968642,0.6646728515625,-0.634033203125,-0.33251953125,0.213623046875,1412,-8394,-229,0,2,7
85978624,0.66473388671875,-0.63427734375,-0.3316650390625,0.214111328125,1373,-8398,-226,1,2,6
85988606,0.664794921875,-0.6343994140625,-0.3309326171875,0.2144775390625,1344,-8382,-219,2,2,5
85998590,0.66497802734375,-0.634521484375,-0.3302001953125,0.21484375,1309,-8385,-221,3,2,4
86008575,0.66522216796875,-0.634521484375,-0.32958984375,0.21514892578125,1277,-8379,-210,3,2,3
86018557,0.66552734375,-0.6343994140625,-0.32891845703125,0.21539306640625,1241,-8362,-202,3,2,2
86028542,0.66583251953125,-0.63427734375,-0.32830810546875,0.2156982421875,1198,-8372,-191,4,2,2
86038522,0.666259765625,-0.634033203125,-0.32769775390625,0.216064453125,1154,-8366,-184,5,2,2
86048503,0.66668701171875,-0.6337890625,-0.3271484375,0.2164306640625,1123,-8349,-166,5,1,2
86058487,0.6671142578125,-0.63348388671875,-0.3265380859375,0.2169189453125,1080,-8317,-157,6,1,2
86068469,0.66754150390625,-0.63311767578125,-0.3260498046875,0.21734619140625,1045,-8281,-140,6,0,1
86078452,0.66802978515625,-0.63262939453125,-0.32562255859375,0.21783447265625,1024,-8239,-110,6,0,1
86088432,0.66851806640625,-0.6322021484375,-0.3251953125,0.21844482421875,997,-8190,-82,7,-1,1
86098421,0.66900634765625,-0.6317138671875,-0.32476806640625,0.21905517578125,977,-8171,-62,7,-1,2
86108403,0.66937255859375,-0.6312255859375,-0.3243408203125,0.21978759765625,964,-8148,-41,7,-2,2
86118382,0.6697998046875,-0.6307373046875,-0.323974609375,0.2205810546875,952,-8141,-17,7,-3,3
86128363,0.670166015625,-0.63018798828125,-0.3236083984375,0.22149658203125,943,-8129,0,7,-4,3
86138350,0.67047119140625,-0.629638671875,-0.3232421875,0.22247314453125,931,-8118,38,7,-4,4
86148328,0.6707763671875,-0.62908935546875,-0.32293701171875,0.22357177734375,941,-8101,36,7,-4,4
86158312,0.6710205078125,-0.628662109375,-0.32257080078125,0.22479248046875,942,-8085,37,7,-5,6
86168295,0.671142578125,-0.628173828125,-0.32220458984375,0.22613525390625,937,-8061,48,7,-6,7
86178279,0.6712646484375,-0.62774658203125,-0.32177734375,0.22760009765625,926,-8044,62,7,-7,8
86188261,0.67132568359375,-0.6273193359375,-0.3214111328125,0.22918701171875,917,-8013,63,7,-7,8
86198240,0.6712646484375,-0.626953125,-0.32110595703125,0.23077392578125,909,-7974,69,6,-8,8
86208231,0.67120361328125,-0.62652587890625,-0.3209228515625,0.23236083984375,885,-7929,89,5,-9,7
86218218,0.67108154296875,-0.6260986328125,-0.32086181640625,0.2337646484375,875,-7892,106,5,-9,5
86228195,0.6710205078125,-0.6256103515625,-0.32110595703125,0.23504638671875,862,-7849,118,4,-10,3
86238188,0.6708984375,-0.62506103515625,-0.3216552734375,0.236083984375,842,-7836,135,3,-10,0
86248174,0.67083740234375,-0.62445068359375,-0.3223876953125,0.2369384765625,832,-7828,134,3,-11,-3
86258145,0.67071533203125,-0.623779296875,-0.3233642578125,0.2376708984375,831,-7826,138,2,-11,-5
86268123,0.6705322265625,-0.6231689453125,-0.3245849609375,0.23828125,835,-7816,132,1,-12,-6
86278104,0.67022705078125,-0.62249755859375,-0.32586669921875,0.23883056640625,841,-7794,125,1,-13,-6
86288088,0.669921875,-0.62188720703125,-0.3272705078125,0.23944091796875,858,-7791,107,-1,-13,-6
86298069,0.66943359375,-0.62139892578125,-0.3287353515625,0.239990234375,866,-7786,96,-1,-14,-6
86308051,0.66888427734375,-0.6209716796875,-0.33026123046875,0.24066162109375,884,-7788,77,-2,-15,-6
86318034,0.66827392578125,-0.62054443359375,-0.331787109375,0.2413330078125,898,-7790,57,-3,-15,-5
86328016,0.66754150390625,-0.62017822265625,-0.33343505859375,0.2420654296875,912,-7795,36,-3,-16,-5
86337999,0.666748046875,-0.619873046875,-0.3350830078125,0.24273681640625,928,-7816,16,-4,-16,-5
86347988,0.6658935546875,-0.61956787109375,-0.3367919921875,0.2435302734375,946,-7846,-23,-4,-17,-4
86357965,0.66497802734375,-0.61932373046875,-0.33843994140625,0.244384765625,966,-7884,-44,-4,-17,-4
86367948,0.6639404296875,-0.619140625,-0.34014892578125,0.24530029296875,989,-7913,-65,-4,-18,-3
86377931,0.66290283203125,-0.618896484375,-0.341796875,0.246337890625,1010,-7949,-94,-4,-18,-2
86387911,0.661865234375,-0.61871337890625,-0.34332275390625,0.2474365234375,1025,-7968,-116,-4,-18,-1
86397902,0.6607666015625,-0.61859130859375,-0.3448486328125,0.2486572265625,1041,-7995,-131,-4,-18,0
86407880,0.65960693359375,-0.61846923828125,-0.34637451171875,0.24993896484375,1044,-8030,-151,-5,-19,0
86417862,0.658447265625,-0.61834716796875,-0.34783935546875,0.251220703125,1047,-8045,-175,-4,-19,1
86427845,0.65728759765625,-0.6181640625,-0.34930419921875,0.2525634765625,1071,-8055,-196,-4,-19,1
86437830,0.65625,-0.61798095703125,-0.35076904296875,0.25384521484375,1102,-8060,-220,-3,-18,0
86447813,0.6551513671875,-0.61767578125,-0.352294921875,0.255126953125,1131,-8076,-244,-3,-19,0
86457797,0.6541748046875,-0.61737060546875,-0.353759765625,0.25640869140625,1161,-8099,-276,-2,-18,0
86467784,0.65325927734375,-0.616943359375,-0.35516357421875,0.25775146484375,1175,-8135,-296,-1,-18,0
86477771,0.6524658203125,-0.61651611328125,-0.35650634765625,0.25909423828125,1202,-8162,-318,0,-18,1
86487753,0.65167236328125,-0.61602783203125,-0.3577880859375,0.26043701171875,1228,-8197,-345,1,-17,1
86497735,0.6510009765625,-0.615478515625,-0.35894775390625,0.2618408203125,1233,-8220,-349,2,-17,1
86507712,0.65045166015625,-0.6148681640625,-0.36004638671875,0.26318359375,1256,-8233,-361,3,-16,1
86517696,0.64996337890625,-0.6141357421875,-0.361083984375,0.2645263671875,1264,-8225,-380,4,-15,1
86527676,0.64959716796875,-0.6134033203125,-0.362060546875,0.26580810546875,1288,-8191,-394,5,-15,0
86537662,0.6492919921875,-0.61260986328125,-0.363037109375,0.26702880859375,1306,-8158,-405,5,-14,0
86547641,0.64910888671875,-0.61181640625,-0.3638916015625,0.2681884765625,1332,-8128,-414,6,-13,0
86557626,0.64898681640625,-0.6109619140625,-0.36468505859375,0.269287109375,1338,-8108,-395,6,-12,0
86567609,0.64892578125,-0.61016845703125,-0.3653564453125,0.27032470703125,1341,-8105,-383,6,-11,0
86577590,0.64898681640625,-0.60931396484375,-0.36602783203125,0.2713623046875,1358,-8086,-396,7,-10,0
86587573,0.6490478515625,-0.60845947265625,-0.36651611328125,0.2723388671875,1372,-8067,-395,7,-9,1
86597557,0.649169921875,-0.60772705078125,-0.36688232421875,0.27325439453125,1376,-8044,-390,7,-8,1
86607542,0.64935302734375,-0.60693359375,-0.36712646484375,0.274169921875,1405,-8025,-388,8,-7,1
86617523,0.6495361328125,-0.60626220703125,-0.3673095703125,0.2750244140625,1394,-8016,-385,8,-6,2
86627505,0.6497802734375,-0.60565185546875,-0.3673095703125,0.27581787109375,1386,-7993,-366,8,-5,2
86637489,0.6500244140625,-0.60504150390625,-0.36724853515625,0.276611328125,1384,-7982,-346,8,-4,3
86647471,0.65032958984375,-0.60455322265625,-0.3670654296875,0.27728271484375,1379,-7964,-331,7,-3,3
86657451,0.650634765625,-0.60406494140625,-0.36676025390625,0.2779541015625,1380,-7970,-328,7,-2,3
86667431,0.65087890625,-0.60369873046875,-0.36639404296875,0.27862548828125,1377,-7981,-324,7,-1,4
86677429,0.65118408203125,-0.60345458984375,-0.3658447265625,0.279296875,1371,-7997,-310,7,0,5
86687407,0.65142822265625,-0.603271484375,-0.3651123046875,0.280029296875,1362,-8019,-290,7,0,7
86697390,0.651611328125,-0.6031494140625,-0.36431884765625,0.28076171875,1354,-8013,-286,6,1,8
86707368,0.65185546875,-0.6031494140625,-0.36346435546875,0.28143310546875,1348,-7994,-256,6,1,8
86717351,0.65203857421875,-0.6031494140625,-0.362548828125,0.2821044921875,1313,-7943,-220,6,2,7
86727332,0.65234375,-0.60308837890625,-0.3616943359375,0.28265380859375,1290,-7887,-171,5,2,6
86737316,0.65264892578125,-0.60308837890625,-0.36090087890625,0.28302001953125,1244,-7860,-131,4,3,5
86747300,0.65289306640625,-0.60308837890625,-0.3602294921875,0.28326416015625,1219,-7850,-96,3,3,4
86757280,0.65325927734375,-0.60302734375,-0.35968017578125,0.28326416015625,1211,-7823,-43,3,4,2
86767267,0.65362548828125,-0.60296630859375,-0.359130859375,0.283203125,1201,-7829,-1,2,3,1
86777247,0.65399169921875,-0.60296630859375,-0.358642578125,0.2830810546875,1187,-7817,44,2,4,1
86787239,0.65423583984375,-0.60302734375,-0.358154296875,0.28289794921875,1165,-7799,84,1,4,1
86797222,0.654541015625,-0.6031494140625,-0.357666015625,0.28265380859375,1162,-7786,140,0,4,1
86807206,0.65472412109375,-0.60333251953125,-0.357177734375,0.28240966796875,1156,-7780,181,-1,5,1
86817187,0.65496826171875,-0.603515625,-0.356689453125,0.28204345703125,1150,-7782,230,-1,5,1
86827174,0.6551513671875,-0.603759765625,-0.356201171875,0.2816162109375,1146,-7797,284,-2,5,0
86837153,0.6553955078125,-0.60400390625,-0.3558349609375,0.28106689453125,1154,-7819,327,-3,5,-1
86847123,0.6556396484375,-0.604248046875,-0.35552978515625,0.2803955078125,1163,-7865,355,-3,6,-2
86857106,0.6558837890625,-0.6044921875,-0.35528564453125,0.2796630859375,1155,-7917,388,-3,6,-3
86867087,0.65618896484375,-0.6046142578125,-0.35498046875,0.2789306640625,1153,-7968,406,-3,6,-3
86877072,0.65655517578125,-0.60479736328125,-0.354736328125,0.278076171875,1163,-8028,432,-3,6,-4
86887054,0.6568603515625,-0.60491943359375,-0.3544921875,0.27728271484375,1154,-8074,450,-2,6,-3
86897037,0.65728759765625,-0.60504150390625,-0.3541259765625,0.276611328125,1130,-8123,459,-2,6,-3
86907020,0.65765380859375,-0.60516357421875,-0.35369873046875,0.27593994140625,1115,-8158,474,-1,6,-2
86917007,0.6580810546875,-0.605224609375,-0.353271484375,0.27545166015625,1098,-8198,473,0,6,-2
86926993,0.65850830078125,-0.605224609375,-0.35272216796875,0.2750244140625,1078,-8215,460,0,5,-1
86936981,0.65887451171875,-0.60528564453125,-0.35211181640625,0.27471923828125,1063,-8226,426,1,5,0
86946955,0.6593017578125,-0.6053466796875,-0.3514404296875,0.2745361328125,1061,-8230,395,2,5,1
86956935,0.65972900390625,-0.6053466796875,-0.3507080078125,0.27435302734375,1064,-8221,369,2,5,2
86966921,0.66009521484375,-0.60540771484375,-0.34991455078125,0.27435302734375,1056,-8190,353,3,5,3
86976903,0.6605224609375,-0.60546875,-0.34906005859375,0.2744140625,1043,-8177,316,3,5,4
86986885,0.660888671875,-0.60552978515625,-0.34814453125,0.27459716796875,1030,-8158,297,3,5,4
86996867,0.66119384765625,-0.60565185546875,-0.34716796875,0.27471923828125,1027,-8134,268,3,5,5
87006852,0.66156005859375,-0.605712890625,-0.34619140625,0.27496337890625,1018,-8121,240,3,5,5
87016834,0.661865234375,-0.6058349609375,-0.34521484375,0.275146484375,995,-8118,228,4,5,5
87026817,0.6622314453125,-0.60589599609375,-0.34423828125,0.275390625,990,-8100,208,4,5,5
87036799,0.66259765625,-0.60595703125,-0.34332275390625,0.2755126953125,981,-8086,195,4,5,4
87046784,0.6629638671875,-0.60601806640625,-0.34246826171875,0.275634765625,973,-8057,176,4,5,4
87056771,0.663330078125,-0.6060791015625,-0.34161376953125,0.275634765625,962,-8047,144,4,5,3
87066752,0.6636962890625,-0.6060791015625,-0.3408203125,0.27569580078125,932,-8018,134,4,5,2
87076737,0.6640625,-0.6060791015625,-0.34014892578125,0.27569580078125,924,-8019,131,4,4,2
87086713,0.6644287109375,-0.6060791015625,-0.33941650390625,0.27569580078125,902,-8002,105,4,4,1
87096696,0.664794921875,-0.6060791015625,-0.33880615234375,0.275634765625,898,-7992,101,3,4,1
87106680,0.66510009765625,-0.6060791015625,-0.33819580078125,0.27557373046875,878,-7977,98,3,4,1
87116665,0.6654052734375,-0.6060791015625,-0.337646484375,0.27557373046875,860,-7965,94,3,3,1
87126648,0.6656494140625,-0.6060791015625,-0.3370361328125,0.27557373046875,850,-7956,107,3,3,2
87136629,0.66595458984375,-0.60614013671875,-0.33642578125,0.27557373046875,853,-7926,119,2,4,2
87146614,0.6661376953125,-0.606201171875,-0.33587646484375,0.27557373046875,844,-7909,123,2,3,2
87156596,0.6663818359375,-0.60626220703125,-0.3353271484375,0.27557373046875,820,-7897,148,2,3,1
87166579,0.66656494140625,-0.6063232421875,-0.33489990234375,0.27557373046875,815,-7887,162,1,3,1
87176561,0.666748046875,-0.60638427734375,-0.33447265625,0.2755126953125,821,-7872,175,1,3,1
87186543,0.66693115234375,-0.6064453125,-0.3341064453125,0.27532958984375,829,-7859,195,0,3,0
87196526,0.66705322265625,-0.6065673828125,-0.333740234375,0.27520751953125,838,-7837,210,0,3,0
87206509,0.6671142578125,-0.60675048828125,-0.33343505859375,0.27496337890625,840,-7837,211,0,3,0
87216493,0.66717529296875,-0.60693359375,-0.3331298828125,0.2747802734375,836,-7848,221,-1,2,0
87226474,0.66717529296875,-0.607177734375,-0.33282470703125,0.274658203125,830,-7851,230,-1,3,1
87236456,0.6671142578125,-0.60748291015625,-0.33245849609375,0.27447509765625,825,-7865,233,-2,3,1
87246436,0.6671142578125,-0.6077880859375,-0.3321533203125,0.2742919921875,816,-7882,247,-2,3,1
87256427,0.66705322265625,-0.608154296875,-0.331787109375,0.27410888671875,807,-7894,262,-2,3,1
87266411,0.66693115234375,-0.60845947265625,-0.33154296875,0.27392578125,811,-7904,266,-2,3,1
87276392,0.6668701171875,-0.6087646484375,-0.33123779296875,0.273681640625,805,-7911,263,-3,3,0
87286370,0.66680908203125,-0.609130859375,-0.33099365234375,0.2734375,814,-7932,263,-3,3,0
87296352,0.666748046875,-0.60943603515625,-0.33074951171875,0.27313232421875,814,-7949,269,-3,3,0
87306336,0.666748046875,-0.6097412109375,-0.33050537109375,0.2728271484375,810,-7978,280,-3,3,0
87316319,0.66668701171875,-0.61004638671875,-0.330322265625,0.27252197265625,814,-7997,287,-3,3,0
87326300,0.66668701171875,-0.6103515625,-0.33001708984375,0.272216796875,818,-8025,291,-2,3,0
87336284,0.6666259765625,-0.61065673828125,-0.3297119140625,0.27191162109375,807,-8041,296,-3,3,0
87346266,0.6666259765625,-0.61102294921875,-0.32940673828125,0.27166748046875,809,-8071,297,-2,3,1
87356256,0.6666259765625,-0.611328125,-0.3289794921875,0.271484375,807,-8084,307,-2,3,1
87366238,0.6666259765625,-0.61163330078125,-0.32861328125,0.27130126953125,808,-8091,324,-2,3,1
87376222,0.66668701171875,-0.61187744140625,-0.32818603515625,0.27105712890625,805,-8099,320,-2,4,0
87386206,0.666748046875,-0.61212158203125,-0.3277587890625,0.270751953125,804,-8101,308,-1,4,0
87396194,0.6668701171875,-0.6123046875,-0.32745361328125,0.2703857421875,813,-8097,303,-1,4,-1
87406174,0.66705322265625,-0.61248779296875,-0.3271484375,0.27001953125,810,-8091,307,-1,4,-1
87416157,0.66729736328125,-0.612548828125,-0.32684326171875,0.26959228515625,814,-8077,320,-1,4,-2
87426131,0.66754150390625,-0.6126708984375,-0.3265380859375,0.2691650390625,797,-8060,323,0,4,-2
87436112,0.66778564453125,-0.61273193359375,-0.326171875,0.26873779296875,781,-8055,320,0,4,-1
87446096,0.66796875,-0.61285400390625,-0.3258056640625,0.26837158203125,770,-8041,315,0,4,-1
87456078,0.66815185546875,-0.61297607421875,-0.325439453125,0.26806640625,756,-8024,316,0,4,-1
87466067,0.6683349609375,-0.6131591796875,-0.3250732421875,0.267822265625,746,-8018,313,0,4,0
87476051,0.66851806640625,-0.61328125,-0.32470703125,0.267578125,740,-8013,314,-1,3,0
87486031,0.66864013671875,-0.6134033203125,-0.3243408203125,0.267333984375,734,-8014,313,0,3,0
87496012,0.668701171875,-0.61358642578125,-0.323974609375,0.26708984375,720,-8018,294,-1,3,0
87505996,0.6688232421875,-0.61376953125,-0.3236083984375,0.26690673828125,712,-8009,292,-1,3,0
87515981,0.66888427734375,-0.61395263671875,-0.32330322265625,0.26666259765625,698,-8017,275,-1,3,-1
87525955,0.66900634765625,-0.61407470703125,-0.32305908203125,0.26641845703125,704,-8010,274,-1,3,-1
87535939,0.6690673828125,-0.61419677734375,-0.3228759765625,0.26617431640625,703,-7995,266,-1,2,-1
87545920,0.669189453125,-0.61431884765625,-0.3226318359375,0.26593017578125,703,-8000,267,-1,2,-1
87555904,0.66925048828125,-0.61444091796875,-0.32244873046875,0.2657470703125,706,-8011,248,-1,2,-1
87565885,0.66925048828125,-0.61456298828125,-0.322265625,0.26556396484375,713,-8010,255,-1,2,-1
87575878,0.66937255859375,-0.61468505859375,-0.322021484375,0.265380859375,711,-7997,258,-1,2,0
87585853,0.66937255859375,-0.6148681640625,-0.32183837890625,0.2652587890625,724,-7998,252,-1,2,0
87595835,0.66943359375,-0.614990234375,-0.32159423828125,0.26513671875,732,-8004,242,-1,2,0
87605820,0.66937255859375,-0.61517333984375,-0.32135009765625,0.2650146484375,729,-8013,228,-1,1,1
87615804,0.6693115234375,-0.6153564453125,-0.32110595703125,0.2650146484375,725,-8024,210,-1,1,1
87625784,0.6693115234375,-0.6156005859375,-0.32080078125,0.26495361328125,729,-8015,208,-1,2,1
87635773,0.66925048828125,-0.6158447265625,-0.3204345703125,0.2650146484375,733,-8014,205,-1,2,2
87645756,0.66912841796875,-0.6160888671875,-0.320068359375,0.2650146484375,723,-8016,214,-1,2,2
87655740,0.6690673828125,-0.6163330078125,-0.3197021484375,0.26513671875,723,-8027,202,-1,2,2
87665716,0.66900634765625,-0.6165771484375,-0.31927490234375,0.26519775390625,729,-8035,208,-1,1,3
87675700,0.66888427734375,-0.6168212890625,-0.31890869140625,0.26531982421875,735,-8062,207,-1,2,3
87685681,0.66876220703125,-0.61712646484375,-0.3184814453125,0.26544189453125,719,-8076,203,-1,2,3
87695663,0.668701171875,-0.617431640625,-0.31805419921875,0.2655029296875,711,-8093,200,-1,2,3
87705647,0.66864013671875,-0.61767578125,-0.317626953125,0.26556396484375,706,-8090,202,-1,2,2
87715636,0.6685791015625,-0.617919921875,-0.31732177734375,0.26556396484375,692,-8089,188,-1,2,1
87725612,0.6685791015625,-0.61810302734375,-0.31707763671875,0.26544189453125,687,-8089,196,-1,2,0
87735598,0.66851806640625,-0.6182861328125,-0.31689453125,0.26531982421875,698,-8099,199,-1,2,-1
87745575,0.6685791015625,-0.618408203125,-0.31671142578125,0.26507568359375,694,-8103,198,-1,2,-1
87755559,0.6685791015625,-0.6185302734375,-0.31658935546875,0.264892578125,695,-8094,213,-1,1,-1
87765542,0.6685791015625,-0.61865234375,-0.31640625,0.2647705078125,685,-8097,223,-1,2,-1
87775530,0.6685791015625,-0.61883544921875,-0.31622314453125,0.26458740234375,682,-8094,224,-1,2,0
87785509,0.6685791015625,-0.6190185546875,-0.3160400390625,0.26446533203125,676,-8086,232,-2,2,0
87795491,0.66851806640625,-0.61920166015625,-0.31585693359375,0.26434326171875,671,-8086,244,-1,1,0
87805474,0.66851806640625,-0.61932373046875,-0.31573486328125,0.26422119140625,675,-8087,253,-1,1,0
87815457,0.6685791015625,-0.61944580078125,-0.3155517578125,0.2640380859375,679,-8079,269,-1,1,-1
87825437,0.6685791015625,-0.6195068359375,-0.31549072265625,0.26385498046875,677,-8074,277,-1,1,-1
87835427,0.66864013671875,-0.61962890625,-0.31536865234375,0.263671875,669,-8068,289,-1,1,-2
87845409,0.668701171875,-0.61968994140625,-0.3153076171875,0.26348876953125,676,-8065,293,-1,1,-1
87855394,0.668701171875,-0.61981201171875,-0.315185546875,0.26336669921875,672,-8079,309,-1,1,-1
87865379,0.668701171875,-0.61993408203125,-0.3150634765625,0.26324462890625,673,-8100,315,-2,1,0
87875356,0.668701171875,-0.62005615234375,-0.31488037109375,0.26318359375,678,-8123,316,-1,1,0
87885337,0.66864013671875,-0.62017822265625,-0.31463623046875,0.26318359375,679,-8153,321,-1,1,1
87895321,0.6685791015625,-0.620361328125,-0.3143310546875,0.26324462890625,685,-8183,340,-1,1,2
87905305,0.6685791015625,-0.62054443359375,-0.31396484375,0.26336669921875,689,-8205,352,-1,1,2
87915293,0.66851806640625,-0.6207275390625,-0.3135986328125,0.26348876953125,678,-8218,353,-1,1,2
87925268,0.66845703125,-0.62091064453125,-0.313232421875,0.263671875,674,-8235,354,-1,1,3
87935256,0.66839599609375,-0.62109375,-0.3128662109375,0.2637939453125,673,-8244,359,-1,1,3
87945240,0.6683349609375,-0.62127685546875,-0.31243896484375,0.26397705078125,681,-8247,364,-1,1,3
87955222,0.66827392578125,-0.6214599609375,-0.31201171875,0.26422119140625,683,-8241,361,-1,1,3
87965206,0.668212890625,-0.62164306640625,-0.31158447265625,0.26446533203125,690,-8249,369,-1,1,4
87975195,0.66815185546875,-0.621826171875,-0.3111572265625,0.26470947265625,693,-8247,371,-1,1,4
87985184,0.66815185546875,-0.6219482421875,-0.31072998046875,0.26495361328125,703,-8220,373,-1,1,3
87995167,0.66815185546875,-0.6220703125,-0.31036376953125,0.26513671875,711,-8212,379,0,1,3
88005139,0.66815185546875,-0.6221923828125,-0.31005859375,0.2652587890625,717,-8191,379,0,1,2
88015116,0.66827392578125,-0.6221923828125,-0.30975341796875,0.26531982421875,734,-8156,381,0,1,2
88025100,0.6683349609375,-0.6221923828125,-0.3094482421875,0.265380859375,743,-8130,379,0,1,1
88035083,0.66839599609375,-0.62225341796875,-0.3092041015625,0.265380859375,753,-8095,375,0,1,1
88045066,0.66851806640625,-0.62225341796875,-0.3089599609375,0.26544189453125,761,-8094,357,1,1,1
88055051,0.66864013671875,-0.62225341796875,-0.30865478515625,0.26544189453125,763,-8076,359,1,1,1
88065031,0.66876220703125,-0.62225341796875,-0.308349609375,0.2655029296875,752,-8069,346,1,1,2
88077995,0.66888427734375,-0.62225341796875,-0.30804443359375,0.26556396484375,758,-8060,336,1,2,1
88084998,0.6690673828125,-0.62225341796875,-0.3077392578125,0.2655029296875,756,-8050,337,0,2,1
88094983,0.66925048828125,-0.6221923828125,-0.307373046875,0.2655029296875,744,-8053,317,2,2,1
88104958,0.66949462890625,-0.62213134765625,-0.30712890625,0.26544189453125,737,-8063,288,1,2,0
88114942,0.66973876953125,-0.6220703125,-0.30682373046875,0.26531982421875,726,-8068,269,2,2,0
88124924,0.669921875,-0.6219482421875,-0.30657958984375,0.26519775390625,729,-8084,253,2,2,0
88134908,0.670166015625,-0.62188720703125,-0.30633544921875,0.26513671875,729,-8095,225,2,2,0
88144892,0.67047119140625,-0.62176513671875,-0.30596923828125,0.26507568359375,718,-8103,196,3,2,0
88154878,0.67071533203125,-0.62158203125,-0.3056640625,0.26507568359375,718,-8104,184,3,2,0
88164856,0.6710205078125,-0.6214599609375,-0.305419921875,0.26507568359375,712,-8086,174,3,2,0
88174840,0.67132568359375,-0.62127685546875,-0.30511474609375,0.2650146484375,709,-8084,170,3,2,0
88184821,0.67169189453125,-0.62103271484375,-0.30487060546875,0.264892578125,700,-8067,169,4,2,-1
88194804,0.672119140625,-0.62078857421875,-0.30462646484375,0.26483154296875,684,-8054,163,4,2,-2
88204786,0.6724853515625,-0.6204833984375,-0.304443359375,0.2646484375,686,-8032,164,4,2,-2
88214767,0.67291259765625,-0.62017822265625,-0.30426025390625,0.26446533203125,677,-8019,155,4,2,-3
88224758,0.67333984375,-0.619873046875,-0.30413818359375,0.26422119140625,663,-7998,150,4,2,-3
88234741,0.67376708984375,-0.61956787109375,-0.3040771484375,0.26397705078125,669,-7994,145,4,2,-3
88244716,0.6741943359375,-0.6192626953125,-0.30401611328125,0.2637939453125,673,-7984,142,4,2,-3
88254701,0.67462158203125,-0.61895751953125,-0.3038330078125,0.26361083984375,676,-7965,146,4,2,-2
88264684,0.67498779296875,-0.61871337890625,-0.30364990234375,0.263427734375,679,-7956,148,4,2,-2
88274666,0.67523193359375,-0.61859130859375,-0.303466796875,0.2633056640625,678,-7952,151,3,2,-1
88284652,0.67547607421875,-0.61846923828125,-0.30316162109375,0.26324462890625,686,-7950,157,3,2,0
88294636,0.6756591796875,-0.618408203125,-0.30279541015625,0.26324462890625,667,-7952,167,2,2,1
88304617,0.67584228515625,-0.618408203125,-0.302490234375,0.2633056640625,665,-7940,177,2,2,1
88314600,0.67596435546875,-0.61846923828125,-0.3021240234375,0.26324462890625,666,-7945,193,1,2,1
88324584,0.676025390625,-0.6185302734375,-0.30181884765625,0.26318359375,663,-7935,193,1,2,1
88334568,0.6761474609375,-0.61865234375,-0.30157470703125,0.26300048828125,670,-7913,200,0,2,-1
88344547,0.67626953125,-0.61871337890625,-0.3013916015625,0.2626953125,679,-7889,217,0,2,-1
88354527,0.6763916015625,-0.6187744140625,-0.30126953125,0.2623291015625,673,-7863,232,-1,3,-2
88364509,0.676513671875,-0.618896484375,-0.30126953125,0.2618408203125,666,-7845,240,-1,3,-3
88374493,0.6766357421875,-0.61895751953125,-0.30126953125,0.26123046875,659,-7835,249,-2,3,-4
88384473,0.6767578125,-0.61907958984375,-0.30133056640625,0.2606201171875,662,-7824,261,-2,3,-4
88394454,0.67681884765625,-0.6192626953125,-0.3013916015625,0.2598876953125,659,-7815,268,-2,3,-4
88404434,0.6768798828125,-0.6195068359375,-0.30145263671875,0.25921630859375,656,-7828,265,-3,4,-5
88414428,0.67694091796875,-0.6197509765625,-0.30145263671875,0.25848388671875,638,-7848,263,-3,4,-4
88424410,0.67694091796875,-0.6199951171875,-0.30145263671875,0.2578125,635,-7858,273,-3,4,-4
88434391,0.67694091796875,-0.62030029296875,-0.3013916015625,0.25714111328125,624,-7875,292,-3,4,-3
88444371,0.6768798828125,-0.62066650390625,-0.30126953125,0.25653076171875,612,-7874,284,-3,4,-3
88454351,0.67681884765625,-0.62103271484375,-0.3011474609375,0.2559814453125,616,-7890,271,-3,4,-2
88464334,0.6767578125,-0.6214599609375,-0.30096435546875,0.25543212890625,607,-7894,270,-4,4,-2
88474320,0.6766357421875,-0.62188720703125,-0.30072021484375,0.25494384765625,608,-7904,263,-4,4,-1
88484305,0.676513671875,-0.622314453125,-0.30035400390625,0.2545166015625,618,-7921,267,-3,4,0
88494293,0.6763916015625,-0.622802734375,-0.29998779296875,0.25421142578125,635,-7956,247,-3,4,1
88504265,0.67620849609375,-0.623291015625,-0.29949951171875,0.2540283203125,629,-7972,244,-3,4,3
88514246,0.676025390625,-0.62384033203125,-0.2989501953125,0.25384521484375,633,-7998,244,-3,4,3
88524238,0.67584228515625,-0.6243896484375,-0.29833984375,0.25372314453125,615,-8026,250,-3,4,3
88534221,0.6756591796875,-0.62493896484375,-0.29779052734375,0.25360107421875,604,-8035,252,-3,4,3
88544206,0.67547607421875,-0.62542724609375,-0.2972412109375,0.25347900390625,587,-8050,244,-3,4,2
88554187,0.6754150390625,-0.6258544921875,-0.2967529296875,0.253173828125,582,-8054,246,-3,4,1
88564179,0.67535400390625,-0.626220703125,-0.29638671875,0.25286865234375,571,-8053,245,-3,4,0
88574164,0.67529296875,-0.6265869140625,-0.29608154296875,0.25244140625,571,-8043,241,-3,4,-1
88584131,0.67529296875,-0.62689208984375,-0.2957763671875,0.2520751953125,563,-8046,246,-2,4,-1
88594112,0.67523193359375,-0.627197265625,-0.2955322265625,0.25164794921875,559,-8038,251,-2,3,-1
88604094,0.67523193359375,-0.62750244140625,-0.2952880859375,0.25128173828125,563,-8039,265,-3,3,-1
88614082,0.6751708984375,-0.6278076171875,-0.29498291015625,0.25103759765625,553,-8048,278,-3,3,0
88624065,0.675048828125,-0.628173828125,-0.29461669921875,0.25079345703125,547,-8062,287,-3,3,1
88634051,0.6749267578125,-0.6285400390625,-0.294189453125,0.25067138671875,534,-8071,304,-3,3,2
88644029,0.67474365234375,-0.62896728515625,-0.293701171875,0.25067138671875,531,-8088,315,-3,3,3
88654012,0.67449951171875,-0.62945556640625,-0.293212890625,0.250732421875,524,-8100,328,-3,2,3
88663996,0.67425537109375,-0.62994384765625,-0.29278564453125,0.25079345703125,523,-8115,334,-4,2,4
88673984,0.67401123046875,-0.63037109375,-0.2923583984375,0.2508544921875,525,-8135,334,-3,2,3
88683960,0.673828125,-0.6307373046875,-0.2919921875,0.25079345703125,534,-8151,351,-3,2,2
88693942,0.67364501953125,-0.63104248046875,-0.291748046875,0.250732421875,532,-8159,365,-3,2,1
88703926,0.673583984375,-0.63128662109375,-0.29156494140625,0.25054931640625,528,-8183,367,-3,2,0
88713908,0.67352294921875,-0.6314697265625,-0.29144287109375,0.25030517578125,538,-8190,382,-3,1,-1
88723887,0.67352294921875,-0.631591796875,-0.29144287109375,0.25,537,-8210,393,-2,1,-2
88733871,0.67352294921875,-0.6317138671875,-0.2913818359375,0.249755859375,539,-8223,381,-2,1,-2
88743855,0.673583984375,-0.63177490234375,-0.29132080078125,0.24957275390625,543,-8235,377,-1,1,-1
88753839,0.67364501953125,-0.6318359375,-0.29119873046875,0.2493896484375,543,-8237,366,-1,1,-1
88763828,0.6737060546875,-0.63189697265625,-0.29107666015625,0.249267578125,550,-8252,353,-1,1,0
88773806,0.6737060546875,-0.63201904296875,-0.29083251953125,0.249267578125,545,-8265,338,-1,1,1
88783793,0.67376708984375,-0.632080078125,-0.29046630859375,0.2493896484375,536,-8266,345,0,1,1
88793770,0.67376708984375,-0.632080078125,-0.2901611328125,0.24951171875,540,-8270,334,0,1,2
88803761,0.673828125,-0.6322021484375,-0.28973388671875,0.24969482421875,546,-8259,318,0,1,3
88813745,0.673828125,-0.63226318359375,-0.289306640625,0.24993896484375,556,-8248,305,1,1,3
88823721,0.67388916015625,-0.63238525390625,-0.288818359375,0.250244140625,561,-8212,295,1,1,4
88833703,0.6739501953125,-0.63238525390625,-0.288330078125,0.25048828125,581,-8198,291,1,1,3
88843686,0.67401123046875,-0.6324462890625,-0.28790283203125,0.250732421875,597,-8178,276,1,1,3
88853668,0.674072265625,-0.6324462890625,-0.2874755859375,0.25091552734375,600,-8152,276,1,1,3
88863651,0.6741943359375,-0.6324462890625,-0.28704833984375,0.2510986328125,606,-8112,270,1,1,3
88873636,0.67431640625,-0.6324462890625,-0.2867431640625,0.25115966796875,617,-8090,248,1,1,2
88883619,0.67449951171875,-0.6324462890625,-0.286376953125,0.251220703125,621,-8082,238,2,2,2
88893601,0.67462158203125,-0.63238525390625,-0.2860107421875,0.25128173828125,632,-8075,234,1,1,2
88903581,0.6748046875,-0.63232421875,-0.28564453125,0.2513427734375,635,-8058,228,2,2,2
88913565,0.67498779296875,-0.63232421875,-0.2852783203125,0.2513427734375,640,-8047,231,1,2,2
88923548,0.6751708984375,-0.63232421875,-0.28485107421875,0.2513427734375,639,-8045,212,2,2,1
88933531,0.67529296875,-0.63232421875,-0.28448486328125,0.2513427734375,624,-8030,206,2,2,1
88943512,0.675537109375,-0.63232421875,-0.28411865234375,0.25128173828125,621,-8015,215,2,2,1
88953500,0.67572021484375,-0.63226318359375,-0.28387451171875,0.2510986328125,619,-8012,200,1,3,-1
88963477,0.67596435546875,-0.6322021484375,-0.28363037109375,0.2508544921875,605,-7996,190,1,2,-1
88973463,0.67620849609375,-0.63214111328125,-0.28350830078125,0.25054931640625,593,-7990,210,1,3,-2
88983449,0.676513671875,-0.63201904296875,-0.283447265625,0.2501220703125,576,-7965,208,1,2,-3
88993436,0.6767578125,-0.6319580078125,-0.283447265625,0.24969482421875,569,-7943,196,1,2,-4
89003418,0.677001953125,-0.6318359375,-0.283447265625,0.24920654296875,570,-7921,194,1,2,-4
89013401,0.67724609375,-0.63177490234375,-0.283447265625,0.24871826171875,557,-7920,200,0,2,-4
89023377,0.677490234375,-0.6317138671875,-0.28350830078125,0.24822998046875,554,-7897,199,0,2,-4
89033359,0.6776123046875,-0.6317138671875,-0.283447265625,0.247802734375,542,-7905,199,0,2,-3
89043344,0.677734375,-0.6317138671875,-0.2833251953125,0.24749755859375,548,-7913,214,0,2,-2
89053326,0.6778564453125,-0.6318359375,-0.28314208984375,0.24725341796875,552,-7914,216,-1,2,-1
89063310,0.67779541015625,-0.63201904296875,-0.28289794921875,0.24713134765625,557,-7936,219,-1,2,1
89073293,0.677734375,-0.63232421875,-0.28253173828125,0.2470703125,552,-7966,227,-1,2,2
89083273,0.6776123046875,-0.63262939453125,-0.2821044921875,0.2470703125,550,-7989,242,-2,2,3
89093259,0.677490234375,-0.6329345703125,-0.2816162109375,0.24713134765625,552,-8016,249,-2,2,3
89103245,0.6773681640625,-0.63330078125,-0.2811279296875,0.2471923828125,540,-8037,251,-2,2,3
89113227,0.67718505859375,-0.6336669921875,-0.28076171875,0.24713134765625,544,-8055,247,-2,3,2
89123209,0.6771240234375,-0.63397216796875,-0.28045654296875,0.2469482421875,533,-8069,266,-2,3,0
89133192,0.6771240234375,-0.6341552734375,-0.2802734375,0.24664306640625,509,-8085,280,-2,2,-1
89143180,0.67718505859375,-0.63433837890625,-0.28021240234375,0.24609375,499,-8097,295,-2,3,-4
89153161,0.67724609375,-0.63446044921875,-0.2802734375,0.24542236328125,497,-8103,297,-2,3,-5
89163131,0.67742919921875,-0.634521484375,-0.2803955078125,0.24462890625,493,-8126,306,-2,3,-7
89173114,0.67767333984375,-0.634521484375,-0.28057861328125,0.24371337890625,490,-8151,318,-2,4,-7
89183096,0.6778564453125,-0.63458251953125,-0.28070068359375,0.24285888671875,496,-8154,327,-2,4,-6
89193078,0.6781005859375,-0.6346435546875,-0.28070068359375,0.2420654296875,488,-8162,360,-2,4,-6
89203061,0.6783447265625,-0.63470458984375,-0.2806396484375,0.24127197265625,481,-8154,369,-2,4,-5
89213044,0.6785888671875,-0.634765625,-0.280517578125,0.24053955078125,479,-8150,397,-1,5,-5
89223028,0.67889404296875,-0.634765625,-0.28033447265625,0.23992919921875,471,-8149,418,-1,4,-4
89233010,0.67919921875,-0.634765625,-0.2801513671875,0.2392578125,445,-8139,419,-1,5,-5
89242998,0.67950439453125,-0.63482666015625,-0.27996826171875,0.238525390625,415,-8130,409,0,5,-5
89252988,0.6798095703125,-0.63482666015625,-0.27978515625,0.23785400390625,380,-8111,395,0,5,-5
89262961,0.68011474609375,-0.63482666015625,-0.2796630859375,0.2371826171875,337,-8117,383,0,4,-5
89272943,0.680419921875,-0.63482666015625,-0.2794189453125,0.236572265625,296,-8116,364,0,4,-5
89282931,0.68060302734375,-0.6348876953125,-0.2791748046875,0.23614501953125,268,-8107,345,0,3,-4
89292911,0.6807861328125,-0.63494873046875,-0.2789306640625,0.23590087890625,258,-8096,319,0,3,-2
89302903,0.6807861328125,-0.63507080078125,-0.27850341796875,0.23590087890625,247,-8081,304,0,2,0
89312880,0.68072509765625,-0.63525390625,-0.278076171875,0.23602294921875,257,-8062,301,0,1,3
89322859,0.6806640625,-0.63543701171875,-0.2774658203125,0.23651123046875,264,-8049,298,0,0,5
89332842,0.68048095703125,-0.63568115234375,-0.27685546875,0.23712158203125,284,-8061,300,0,-1,7
89342820,0.68023681640625,-0.63592529296875,-0.2762451171875,0.2379150390625,285,-8067,302,0,-1,7
89352802,0.679931640625,-0.63616943359375,-0.275634765625,0.23876953125,283,-8070,285,0,-2,7
89362785,0.6796875,-0.6363525390625,-0.275146484375,0.2396240234375,284,-8075,272,0,-3,6
89372766,0.67938232421875,-0.63641357421875,-0.27484130859375,0.240478515625,267,-8086,245,0,-4,5
89382757,0.67913818359375,-0.636474609375,-0.274658203125,0.24127197265625,247,-8090,235,1,-4,4
89392742,0.678955078125,-0.636474609375,-0.27471923828125,0.241943359375,258,-8099,221,1,-5,2
89402718,0.6787109375,-0.6363525390625,-0.27490234375,0.2425537109375,267,-8102,218,1,-5,1
89412698,0.6785888671875,-0.63616943359375,-0.275146484375,0.24310302734375,259,-8110,214,1,-6,0
89422685,0.67840576171875,-0.635986328125,-0.27557373046875,0.24371337890625,268,-8110,208,1,-7,-1
89432669,0.67816162109375,-0.6357421875,-0.27606201171875,0.24432373046875,285,-8104,209,1,-7,0
89442649,0.677978515625,-0.635498046875,-0.276611328125,0.24493408203125,285,-8090,203,1,-8,-1
89452629,0.677734375,-0.63519287109375,-0.2772216796875,0.24560546875,295,-8056,206,1,-8,-1
89462611,0.67755126953125,-0.6348876953125,-0.27783203125,0.24627685546875,314,-8036,211,1,-9,-1
89472601,0.67724609375,-0.6346435546875,-0.27850341796875,0.2470703125,320,-8026,214,0,-9,0
89482579,0.67694091796875,-0.63433837890625,-0.2791748046875,0.24786376953125,325,-8021,211,0,-10,0
89492562,0.67657470703125,-0.63409423828125,-0.2799072265625,0.24871826171875,347,-7993,220,0,-10,0
89502546,0.67620849609375,-0.6337890625,-0.280517578125,0.2496337890625,357,-7987,226,0,-10,1
89512528,0.67584228515625,-0.633544921875,-0.28118896484375,0.2506103515625,379,-7978,226,0,-11,2
89522512,0.67535400390625,-0.63336181640625,-0.28179931640625,0.2515869140625,380,-7976,230,0,-11,2
89532493,0.6749267578125,-0.6331787109375,-0.28240966796875,0.252685546875,408,-7963,239,0,-11,3
89542476,0.6744384765625,-0.63299560546875,-0.282958984375,0.2537841796875,424,-7965,241,-1,-11,3
89552456,0.6739501953125,-0.63287353515625,-0.28350830078125,0.25482177734375,442,-7963,243,-1,-10,3
89562437,0.67340087890625,-0.6326904296875,-0.2840576171875,0.25592041015625,460,-7970,243,-1,-10,4
89572429,0.67291259765625,-0.63262939453125,-0.2845458984375,0.2569580078125,477,-7988,238,-1,-10,4
89582409,0.67236328125,-0.632568359375,-0.28497314453125,0.25799560546875,487,-7994,235,-1,-10,4
89592393,0.67181396484375,-0.63250732421875,-0.285400390625,0.259033203125,503,-8022,229,-1,-9,5
89602372,0.67132568359375,-0.63250732421875,-0.2857666015625,0.260009765625,515,-8046,216,-1,-9,5
89612354,0.6707763671875,-0.63250732421875,-0.28607177734375,0.260986328125,523,-8069,212,-1,-8,5
89622337,0.67022705078125,-0.63250732421875,-0.28643798828125,0.261962890625,526,-8101,202,-1,-8,5
89632319,0.6697998046875,-0.632568359375,-0.28668212890625,0.26287841796875,513,-8129,194,-1,-8,4
89642301,0.6693115234375,-0.632568359375,-0.2869873046875,0.26373291015625,502,-8139,178,-1,-7,4
89652284,0.66888427734375,-0.632568359375,-0.28717041015625,0.26458740234375,496,-8148,180,-1,-7,4
89662268,0.66845703125,-0.632568359375,-0.28741455078125,0.265380859375,492,-8166,173,-1,-7,4
89672256,0.66802978515625,-0.63250732421875,-0.2877197265625,0.26617431640625,476,-8181,175,-1,-7,4
89682243,0.66766357421875,-0.63250732421875,-0.2879638671875,0.2669677734375,462,-8191,162,0,-7,3
89692224,0.66729736328125,-0.6324462890625,-0.2882080078125,0.26776123046875,444,-8190,155,-1,-7,3
89702210,0.66693115234375,-0.63238525390625,-0.2884521484375,0.26849365234375,433,-8217,144,0,-7,3
89712195,0.6666259765625,-0.63226318359375,-0.2886962890625,0.269287109375,418,-8215,149,0,-7,3
89722179,0.66632080078125,-0.6322021484375,-0.2889404296875,0.27001953125,398,-8220,151,1,-7,3
89732161,0.66607666015625,-0.63201904296875,-0.28924560546875,0.270751953125,401,-8217,174,1,-7,2
89742138,0.66583251953125,-0.6318359375,-0.28955078125,0.27142333984375,388,-8218,184,1,-7,2
89752115,0.6656494140625,-0.631591796875,-0.28985595703125,0.27203369140625,378,-8215,204,1,-6,1
89762096,0.66546630859375,-0.63134765625,-0.29010009765625,0.272705078125,381,-8213,234,1,-6,1
89772079,0.66534423828125,-0.631103515625,-0.2904052734375,0.27337646484375,397,-8210,241,1,-6,2
89782063,0.6651611328125,-0.630859375,-0.2906494140625,0.2740478515625,398,-8209,256,1,-6,2
89792051,0.66497802734375,-0.630615234375,-0.29083251953125,0.2747802734375,393,-8190,275,1,-6,3
89802028,0.66485595703125,-0.63043212890625,-0.29095458984375,0.2755126953125,405,-8176,296,1,-6,3
89812011,0.6646728515625,-0.63018798828125,-0.29107666015625,0.27630615234375,424,-8150,313,1,-6,4
89821996,0.66448974609375,-0.6300048828125,-0.29119873046875,0.277099609375,437,-8113,320,1,-6,4
89831983,0.664306640625,-0.62982177734375,-0.291259765625,0.27789306640625,430,-8081,319,1,-6,4
89841958,0.66412353515625,-0.629638671875,-0.29132080078125,0.27862548828125,435,-8052,325,1,-5,4
89851942,0.6639404296875,-0.62945556640625,-0.2913818359375,0.279296875,429,-8047,336,1,-5,3
89861924,0.663818359375,-0.62933349609375,-0.29156494140625,0.2799072265625,436,-8040,329,0,-5,3
89871910,0.66363525390625,-0.629150390625,-0.29168701171875,0.28045654296875,442,-8045,330,1,-5,2
89881894,0.66351318359375,-0.62896728515625,-0.2918701171875,0.2808837890625,442,-8062,325,0,-4,1
89891878,0.66339111328125,-0.62884521484375,-0.29205322265625,0.28131103515625,426,-8074,319,0,-4,1
89901859,0.6632080078125,-0.6287841796875,-0.292236328125,0.28173828125,404,-8085,308,0,-4,1
89911841,0.6630859375,-0.628662109375,-0.29254150390625,0.28204345703125,408,-8097,301,-1,-4,1
89921828,0.66290283203125,-0.62860107421875,-0.292724609375,0.2823486328125,401,-8119,271,-1,-4,1
89931812,0.66278076171875,-0.6285400390625,-0.29290771484375,0.2825927734375,396,-8137,263,-1,-3,1
89941789,0.66259765625,-0.6285400390625,-0.2930908203125,0.28277587890625,404,-8134,254,-1,-3,1
89951771,0.6624755859375,-0.6285400390625,-0.293212890625,0.28302001953125,396,-8142,245,-1,-3,1
89961762,0.66229248046875,-0.6285400390625,-0.2933349609375,0.28326416015625,377,-8138,233,-1,-3,1
89971745,0.66217041015625,-0.6285400390625,-0.29345703125,0.28338623046875,377,-8158,235,-1,-2,0
89981723,0.66204833984375,-0.6285400390625,-0.2935791015625,0.2835693359375,367,-8157,223,-1,-2,1
89991705,0.66192626953125,-0.62860107421875,-0.29364013671875,0.28369140625,359,-8160,222,-1,-2,1
90001686,0.66180419921875,-0.628662109375,-0.293701171875,0.2838134765625,366,-8144,209,-1,-2,0
90011674,0.6617431640625,-0.628662109375,-0.29376220703125,0.28387451171875,359,-8123,209,0,-1,0
90021659,0.66168212890625,-0.628662109375,-0.2938232421875,0.283935546875,362,-8107,212,0,-1,0
90031636,0.66168212890625,-0.628662109375,-0.2938232421875,0.283935546875,376,-8087,194,0,-1,0
90041623,0.66168212890625,-0.62872314453125,-0.2938232421875,0.283935546875,380,-8073,199,0,0,0
90051605,0.66168212890625,-0.62872314453125,-0.29376220703125,0.28387451171875,376,-8063,199,0,0,0
90061587,0.6617431640625,-0.62872314453125,-0.29364013671875,0.28387451171875,379,-8065,200,0,1,0
90071570,0.6617431640625,-0.6287841796875,-0.29351806640625,0.28387451171875,359,-8059,195,0,0,1
90081551,0.66180419921875,-0.6287841796875,-0.29327392578125,0.28387451171875,345,-8053,189,1,1,1
90091535,0.661865234375,-0.62884521484375,-0.29302978515625,0.28387451171875,327,-8040,191,1,1,1
90101517,0.6619873046875,-0.62890625,-0.292724609375,0.28387451171875,324,-8046,190,1,1,1
90111499,0.66204833984375,-0.62896728515625,-0.29241943359375,0.283935546875,305,-8057,185,1,2,2
90121484,0.662109375,-0.62908935546875,-0.2919921875,0.28399658203125,282,-8084,177,1,2,2
90131464,0.66217041015625,-0.62921142578125,-0.29156494140625,0.2840576171875,264,-8087,168,1,2,2
90141449,0.66217041015625,-0.62933349609375,-0.29107666015625,0.28411865234375,247,-8095,176,1,2,2
90151437,0.66229248046875,-0.62939453125,-0.2906494140625,0.28411865234375,234,-8099,181,1,2,1
90161419,0.66241455078125,-0.6295166015625,-0.29034423828125,0.2840576171875,221,-8099,182,1,2,1
90171402,0.66253662109375,-0.6295166015625,-0.2900390625,0.283935546875,216,-8087,192,1,2,0
90181378,0.6627197265625,-0.62957763671875,-0.289794921875,0.28369140625,207,-8067,200,1,2,-1
