subject,Reese Hammons
arm,left
label,0
hz,100.17231321441167
time,4.751812

timestamp_us,q0,q1,q2,q3,ax,ay,az,gx,gy,gz
11377362,0.66705322265625,-0.60064697265625,-0.4342041015625,0.07611083984375,3609,-7030,-674,-6,-5,-9
11387350,0.66650390625,-0.6004638671875,-0.435302734375,0.07550048828125,3619,-7058,-673,-6,-6,-11
11397328,0.66595458984375,-0.60028076171875,-0.4366455078125,0.0748291015625,3620,-7090,-669,-6,-7,-13
11407310,0.66534423828125,-0.599853515625,-0.43817138671875,0.07403564453125,3638,-7109,-682,-6,-8,-16
11417293,0.66473388671875,-0.599365234375,-0.43994140625,0.0731201171875,3658,-7132,-695,-5,-8,-17
11427278,0.66412353515625,-0.5987548828125,-0.44183349609375,0.07208251953125,3685,-7138,-714,-6,-9,-19
11437259,0.66351318359375,-0.59808349609375,-0.44384765625,0.071044921875,3706,-7124,-728,-5,-9,-20
11447238,0.66290283203125,-0.597412109375,-0.44586181640625,0.070068359375,3732,-7106,-738,-5,-10,-19
11457230,0.6622314453125,-0.59674072265625,-0.4478759765625,0.06927490234375,3761,-7104,-766,-4,-10,-18
11467213,0.66156005859375,-0.59613037109375,-0.44976806640625,0.06866455078125,3808,-7106,-784,-4,-11,-15
11477192,0.660888671875,-0.5955810546875,-0.45147705078125,0.068359375,3850,-7111,-798,-4,-11,-13
11487184,0.66021728515625,-0.59515380859375,-0.45306396484375,0.0682373046875,3882,-7125,-820,-3,-11,-11
11497174,0.65960693359375,-0.5947265625,-0.45458984375,0.06829833984375,3918,-7133,-849,-2,-12,-9
11507143,0.65899658203125,-0.59429931640625,-0.45599365234375,0.06854248046875,3970,-7136,-881,-1,-12,-8
11517125,0.658447265625,-0.5938720703125,-0.457275390625,0.0689697265625,4008,-7131,-918,0,-12,-7
11527104,0.65789794921875,-0.59344482421875,-0.45843505859375,0.06951904296875,4047,-7134,-941,1,-12,-5
11537090,0.65740966796875,-0.59307861328125,-0.45947265625,0.0701904296875,4081,-7130,-972,2,-12,-3
11547073,0.656982421875,-0.59271240234375,-0.46038818359375,0.07110595703125,4100,-7137,-985,2,-12,-2
11557066,0.6566162109375,-0.5924072265625,-0.46124267578125,0.07220458984375,4118,-7135,-1004,3,-12,0
11567045,0.65625,-0.59210205078125,-0.46197509765625,0.07342529296875,4142,-7139,-1026,4,-12,1
11577027,0.65594482421875,-0.591796875,-0.4625244140625,0.07470703125,4157,-7125,-1048,4,-11,3
11587008,0.6556396484375,-0.591552734375,-0.46307373046875,0.076171875,4184,-7120,-1079,5,-11,4
11596995,0.6553955078125,-0.59130859375,-0.4635009765625,0.07763671875,4198,-7120,-1086,5,-11,4
11606980,0.6551513671875,-0.591064453125,-0.46392822265625,0.0791015625,4213,-7112,-1105,6,-11,4
11616958,0.65496826171875,-0.5906982421875,-0.46429443359375,0.08056640625,4227,-7103,-1113,6,-11,4
11626940,0.65484619140625,-0.59033203125,-0.4647216796875,0.08197021484375,4241,-7079,-1123,7,-10,3
11636923,0.65478515625,-0.58990478515625,-0.4652099609375,0.08331298828125,4256,-7071,-1125,6,-10,3
11646905,0.65472412109375,-0.58941650390625,-0.46563720703125,0.08453369140625,4270,-7065,-1128,6,-9,3
11656888,0.6546630859375,-0.5889892578125,-0.46600341796875,0.08575439453125,4301,-7052,-1142,7,-9,3
11666872,0.6546630859375,-0.5885009765625,-0.4664306640625,0.0869140625,4315,-7049,-1147,7,-8,3
11676853,0.6546630859375,-0.5880126953125,-0.466796875,0.0880126953125,4344,-7030,-1159,6,-8,2
11686837,0.65478515625,-0.58746337890625,-0.4671630859375,0.0889892578125,4359,-7030,-1142,6,-7,2
11696818,0.6549072265625,-0.5869140625,-0.467529296875,0.08978271484375,4386,-7037,-1130,6,-6,0
11706804,0.65509033203125,-0.5863037109375,-0.46795654296875,0.09039306640625,4395,-7026,-1133,6,-6,-1
11716784,0.65533447265625,-0.5855712890625,-0.4683837890625,0.0909423828125,4414,-7013,-1133,7,-5,-2
11726773,0.6556396484375,-0.5848388671875,-0.46875,0.09130859375,4425,-6999,-1118,7,-3,-3
11736755,0.656005859375,-0.5841064453125,-0.46917724609375,0.091552734375,4419,-6974,-1102,6,-3,-3
11746736,0.6563720703125,-0.5833740234375,-0.469482421875,0.0916748046875,4414,-6929,-1090,5,-2,-4
11756710,0.65679931640625,-0.58270263671875,-0.46978759765625,0.09173583984375,4415,-6892,-1087,5,-1,-3
11766697,0.6572265625,-0.58209228515625,-0.469970703125,0.09173583984375,4398,-6860,-1088,5,0,-3
11776679,0.65765380859375,-0.58148193359375,-0.47003173828125,0.091796875,4386,-6831,-1077,5,0,-2
11786663,0.6580810546875,-0.58099365234375,-0.47003173828125,0.091796875,4369,-6797,-1066,5,1,-2
11796645,0.65850830078125,-0.58056640625,-0.469970703125,0.09185791015625,4352,-6777,-1042,4,1,-1
11806636,0.658935546875,-0.5802001953125,-0.4698486328125,0.0919189453125,4353,-6787,-1040,4,1,0
11816612,0.6593017578125,-0.57989501953125,-0.4696044921875,0.09197998046875,4355,-6789,-1038,4,2,1
11826596,0.6597900390625,-0.57965087890625,-0.46929931640625,0.09210205078125,4346,-6774,-1014,4,2,1
11836577,0.66015625,-0.5794677734375,-0.46893310546875,0.0921630859375,4323,-6759,-999,3,2,1
11846559,0.66058349609375,-0.57928466796875,-0.4686279296875,0.09222412109375,4321,-6736,-994,3,3,1
11856547,0.6610107421875,-0.57904052734375,-0.46832275390625,0.092041015625,4334,-6712,-982,2,3,-1
11866526,0.66143798828125,-0.5787353515625,-0.46820068359375,0.0916748046875,4363,-6660,-968,2,4,-2
11876505,0.66192626953125,-0.578369140625,-0.4681396484375,0.0909423828125,4419,-6609,-950,1,5,-4
11886488,0.66241455078125,-0.5780029296875,-0.46807861328125,0.08990478515625,4490,-6561,-922,0,7,-5
11896469,0.66290283203125,-0.57769775390625,-0.4678955078125,0.088623046875,4589,-6530,-900,-1,8,-5
11906451,0.66351318359375,-0.57745361328125,-0.4676513671875,0.087158203125,4686,-6505,-865,-2,10,-5
11916432,0.6641845703125,-0.57733154296875,-0.46722412109375,0.0853271484375,4806,-6487,-832,-3,13,-6
11926423,0.66497802734375,-0.5771484375,-0.4666748046875,0.0831298828125,4918,-6482,-799,-4,16,-7
11936406,0.66595458984375,-0.57708740234375,-0.46588134765625,0.08056640625,5000,-6453,-741,-5,19,-8
11946389,0.66705322265625,-0.5770263671875,-0.46484375,0.07781982421875,5084,-6434,-680,-6,23,-7
11956365,0.66827392578125,-0.5771484375,-0.46343994140625,0.0748291015625,5166,-6433,-635,-6,26,-6
11966350,0.66961669921875,-0.577392578125,-0.46160888671875,0.07171630859375,5223,-6439,-594,-7,30,-4
11976336,0.671142578125,-0.57794189453125,-0.459228515625,0.06866455078125,5253,-6457,-550,-7,33,0
11986314,0.6727294921875,-0.57867431640625,-0.4564208984375,0.06561279296875,5261,-6462,-501,-8,36,3
11996298,0.6744384765625,-0.57965087890625,-0.45306396484375,0.06268310546875,5252,-6460,-468,-8,39,6
12006280,0.67620849609375,-0.58087158203125,-0.44915771484375,0.0599365234375,5214,-6444,-433,-8,41,11
12018995,0.67803955078125,-0.58245849609375,-0.4447021484375,0.05731201171875,5149,-6412,-401,-9,44,15
12026245,0.67987060546875,-0.5843505859375,-0.439697265625,0.05499267578125,5069,-6340,-358,-10,46,21
12036236,0.68170166015625,-0.586669921875,-0.4339599609375,0.05303955078125,4973,-6248,-339,-10,48,29
12046219,0.68341064453125,-0.58953857421875,-0.42742919921875,0.0516357421875,4887,-6117,-299,-12,50,39
12056206,0.68505859375,-0.5931396484375,-0.419921875,0.05084228515625,4800,-5999,-247,-13,53,50
12066191,0.68658447265625,-0.59735107421875,-0.41131591796875,0.0506591796875,4737,-5879,-187,-16,56,62
12076177,0.68792724609375,-0.6024169921875,-0.401611328125,0.05120849609375,4639,-5776,-146,-18,58,74
12086158,0.68896484375,-0.608154296875,-0.39080810546875,0.05224609375,4563,-5682,-131,-22,61,85
12096129,0.68975830078125,-0.6146240234375,-0.37890625,0.0537109375,4457,-5603,-145,-25,65,94
12106113,0.69024658203125,-0.6217041015625,-0.3660888671875,0.05535888671875,4334,-5568,-190,-28,69,102
12116097,0.6904296875,-0.6292724609375,-0.352294921875,0.0570068359375,4206,-5542,-260,-32,74,108
12126079,0.690185546875,-0.63739013671875,-0.337646484375,0.05859375,4061,-5557,-355,-36,79,113
12136060,0.68951416015625,-0.64581298828125,-0.32232666015625,0.059814453125,3900,-5582,-461,-40,84,116
12146051,0.6884765625,-0.65460205078125,-0.3062744140625,0.060546875,3726,-5652,-590,-45,90,117
12156027,0.68707275390625,-0.66351318359375,-0.289794921875,0.0606689453125,3533,-5759,-731,-48,95,115
12166011,0.685302734375,-0.6724853515625,-0.27301025390625,0.05999755859375,3325,-5904,-911,-52,101,111
12175995,0.68304443359375,-0.6815185546875,-0.25616455078125,0.0582275390625,3124,-6060,-1129,-56,106,105
12185981,0.68035888671875,-0.6904296875,-0.239501953125,0.05523681640625,2911,-6240,-1381,-59,111,96
12195960,0.6773681640625,-0.6990966796875,-0.22320556640625,0.051025390625,2669,-6404,-1653,-61,115,86
12205942,0.6739501953125,-0.7076416015625,-0.20745849609375,0.04541015625,2444,-6610,-1924,-64,120,74
12215926,0.670166015625,-0.7158203125,-0.19232177734375,0.03851318359375,2201,-6818,-2208,-66,123,62
12225908,0.6658935546875,-0.723876953125,-0.1778564453125,0.03045654296875,1974,-7047,-2499,-69,125,51
12235892,0.6612548828125,-0.731689453125,-0.16412353515625,0.02130126953125,1745,-7268,-2795,-72,126,40
12245878,0.6561279296875,-0.73931884765625,-0.151123046875,0.0113525390625,1513,-7473,-3062,-74,127,31
12255857,0.65057373046875,-0.74664306640625,-0.1387939453125,0.00091552734375,1282,-7687,-3314,-76,125,23
12265840,0.6446533203125,-0.7537841796875,-0.12713623046875,-0.00994873046875,1039,-7880,-3522,-77,123,15
12275822,0.63836669921875,-0.7606201171875,-0.1163330078125,-0.02099609375,771,-8095,-3689,-78,120,8
12285806,0.63189697265625,-0.76702880859375,-0.10650634765625,-0.031982421875,491,-8312,-3820,-77,114,-1
12295784,0.6253662109375,-0.77301025390625,-0.09796142578125,-0.0428466796875,194,-8549,-3936,-75,106,-10
12305772,0.6187744140625,-0.77850341796875,-0.09088134765625,-0.053466796875,-77,-8791,-4034,-73,97,-20
12315756,0.61224365234375,-0.78350830078125,-0.0853271484375,-0.06365966796875,-304,-9031,-4111,-69,87,-29
12325740,0.60595703125,-0.7879638671875,-0.081298828125,-0.07318115234375,-510,-9243,-4148,-64,76,-36
12335715,0.60009765625,-0.7918701171875,-0.07867431640625,-0.08184814453125,-648,-9406,-4136,-58,64,-41
12345699,0.59466552734375,-0.79522705078125,-0.077392578125,-0.08953857421875,-722,-9494,-4095,-52,51,-44
12355682,0.58978271484375,-0.798095703125,-0.07720947265625,-0.0960693359375,-725,-9530,-4002,-46,40,-45
12365666,0.58551025390625,-0.800537109375,-0.077880859375,-0.1015625,-663,-9486,-3846,-39,29,-44
12375648,0.58184814453125,-0.802490234375,-0.0792236328125,-0.10577392578125,-546,-9387,-3651,-33,18,-41
12385636,0.578857421875,-0.80413818359375,-0.08087158203125,-0.10882568359375,-365,-9261,-3479,-27,9,-35
12395614,0.576416015625,-0.805419921875,-0.08245849609375,-0.11053466796875,-140,-9108,-3337,-21,2,-26
12405592,0.57470703125,-0.8065185546875,-0.08355712890625,-0.11090087890625,133,-8940,-3195,-15,-5,-14
12415581,0.5736083984375,-0.807373046875,-0.0838623046875,-0.10986328125,431,-8766,-3072,-10,-10,0
12425559,0.5732421875,-0.80804443359375,-0.08306884765625,-0.1075439453125,732,-8586,-2963,-5,-13,17
12435542,0.573486328125,-0.80859375,-0.080810546875,-0.10400390625,1042,-8403,-2828,-1,-14,34
12445528,0.5743408203125,-0.8089599609375,-0.0770263671875,-0.0992431640625,1334,-8233,-2719,3,-14,51
12455510,0.57568359375,-0.80914306640625,-0.07171630859375,-0.09356689453125,1589,-8061,-2611,6,-13,67
12465489,0.57745361328125,-0.80914306640625,-0.06500244140625,-0.08721923828125,1786,-7905,-2492,9,-10,80
12475470,0.57952880859375,-0.8089599609375,-0.05706787109375,-0.08050537109375,1929,-7773,-2391,11,-7,90
12485458,0.581787109375,-0.80853271484375,-0.04833984375,-0.0736083984375,1973,-7676,-2274,13,-4,95
12495449,0.584228515625,-0.80792236328125,-0.03924560546875,-0.06695556640625,1958,-7612,-2171,14,0,95
12505430,0.58660888671875,-0.8070068359375,-0.0301513671875,-0.060791015625,1895,-7559,-2087,15,4,92
12515414,0.5889892578125,-0.80596923828125,-0.0213623046875,-0.05560302734375,1840,-7522,-2035,15,8,85
12525395,0.5911865234375,-0.80474853515625,-0.01318359375,-0.05145263671875,1761,-7458,-1984,15,13,74
12535373,0.59332275390625,-0.80352783203125,-0.005859375,-0.048583984375,1667,-7387,-1927,15,17,62
12545355,0.59521484375,-0.80218505859375,0.00042724609375,-0.04705810546875,1566,-7295,-1849,14,21,48
12555337,0.596923828125,-0.8009033203125,0.0057373046875,-0.0469970703125,1457,-7204,-1771,13,26,35
12565322,0.59844970703125,-0.7996826171875,0.0101318359375,-0.04815673828125,1332,-7145,-1700,11,29,22
12575304,0.59967041015625,-0.798583984375,0.01361083984375,-0.05047607421875,1192,-7109,-1661,9,32,10
12585293,0.6005859375,-0.797607421875,0.0162353515625,-0.0538330078125,1030,-7069,-1654,8,35,-1
12595266,0.60125732421875,-0.7967529296875,0.01806640625,-0.0579833984375,826,-7054,-1659,6,36,-12
12605245,0.6015625,-0.796142578125,0.01898193359375,-0.06280517578125,611,-7049,-1690,4,36,-22
12615236,0.6015625,-0.795654296875,0.01910400390625,-0.0679931640625,386,-7056,-1730,1,35,-30
12625219,0.60137939453125,-0.79541015625,0.01861572265625,-0.07342529296875,173,-7065,-1791,0,33,-35
12635206,0.6009521484375,-0.79522705078125,0.01763916015625,-0.07861328125,-24,-7113,-1855,-1,29,-38
12645189,0.6004638671875,-0.795166015625,0.01629638671875,-0.08331298828125,-201,-7189,-1949,-2,24,-38
12655174,0.599853515625,-0.795166015625,0.0147705078125,-0.08734130859375,-362,-7237,-2031,-2,19,-36
12665156,0.59930419921875,-0.7952880859375,0.01312255859375,-0.090576171875,-497,-7312,-2104,-2,12,-34
12675126,0.598876953125,-0.79534912109375,0.01123046875,-0.0927734375,-608,-7389,-2176,-1,5,-30
12685112,0.5986328125,-0.79547119140625,0.00921630859375,-0.09405517578125,-677,-7483,-2259,1,-2,-27
12695088,0.59857177734375,-0.79547119140625,0.00701904296875,-0.09423828125,-723,-7597,-2322,3,-10,-22
12705071,0.59881591796875,-0.79541015625,0.004638671875,-0.0933837890625,-742,-7720,-2394,5,-17,-18
12715055,0.59930419921875,-0.79522705078125,0.001953125,-0.091552734375,-719,-7867,-2484,8,-25,-15
12725038,0.60009765625,-0.79498291015625,-0.00091552734375,-0.08880615234375,-662,-8017,-2631,11,-32,-11
12735020,0.6011962890625,-0.7945556640625,-0.0040283203125,-0.085205078125,-561,-8161,-2751,14,-39,-7
12745003,0.6025390625,-0.7939453125,-0.00726318359375,-0.08074951171875,-434,-8275,-2865,18,-44,-3
12754996,0.60418701171875,-0.793212890625,-0.01043701171875,-0.0755615234375,-270,-8379,-2963,20,-49,2
12764977,0.6060791015625,-0.792236328125,-0.013427734375,-0.06964111328125,-53,-8454,-3049,23,-52,9
12774955,0.60809326171875,-0.79119873046875,-0.015869140625,-0.06304931640625,218,-8528,-3107,24,-54,18
12784939,0.61029052734375,-0.7900390625,-0.01751708984375,-0.05572509765625,500,-8577,-3124,25,-55,30
12794921,0.612548828125,-0.788818359375,-0.01806640625,-0.0477294921875,787,-8599,-3087,24,-54,42
12804904,0.61468505859375,-0.78759765625,-0.0174560546875,-0.03936767578125,1054,-8592,-2993,22,-51,52
12814887,0.6165771484375,-0.78656005859375,-0.0159912109375,-0.031005859375,1296,-8540,-2829,19,-47,57
12824869,0.6181640625,-0.78558349609375,-0.01409912109375,-0.02313232421875,1494,-8449,-2635,14,-41,57
12834852,0.61920166015625,-0.78497314453125,-0.01214599609375,-0.01629638671875,1636,-8342,-2416,9,-35,51
12844838,0.6197509765625,-0.78466796875,-0.010498046875,-0.01080322265625,1732,-8254,-2210,3,-27,42
12854822,0.61981201171875,-0.78466796875,-0.00921630859375,-0.00677490234375,1793,-8199,-2039,-3,-20,33
12864801,0.619384765625,-0.7850341796875,-0.00799560546875,-0.00390625,1823,-8216,-1906,-7,-13,27
12874784,0.61871337890625,-0.78558349609375,-0.00640869140625,-0.00177001953125,1832,-8280,-1828,-10,-6,28
12884767,0.617919921875,-0.7862548828125,-0.00390625,6.103515625e-05,1832,-8355,-1775,-11,0,34
12894753,0.6170654296875,-0.78692626953125,-6.103515625e-05,0.001953125,1854,-8393,-1737,-11,7,44
12904737,0.61627197265625,-0.78753662109375,0.00537109375,0.00396728515625,1849,-8383,-1707,-11,14,55
12914715,0.61541748046875,-0.7880859375,0.01239013671875,0.006103515625,1810,-8329,-1670,-10,22,65
12924697,0.61456298828125,-0.78857421875,0.02081298828125,0.00799560546875,1732,-8237,-1649,-10,30,72
12934679,0.6136474609375,-0.7889404296875,0.0301513671875,0.009521484375,1613,-8127,-1631,-9,38,75
12944663,0.6126708984375,-0.78924560546875,0.04010009765625,0.01031494140625,1443,-7992,-1641,-9,45,73
12954646,0.61163330078125,-0.78948974609375,0.04998779296875,0.01007080078125,1219,-7828,-1639,-9,52,65
12964628,0.6104736328125,-0.789794921875,0.059326171875,0.008544921875,941,-7674,-1651,-9,57,53
12974610,0.609130859375,-0.7901611328125,0.067626953125,0.005615234375,657,-7512,-1680,-10,61,37
12984594,0.607666015625,-0.79071044921875,0.074462890625,0.00115966796875,361,-7362,-1724,-11,64,18
12994577,0.60595703125,-0.79150390625,0.0797119140625,-0.0047607421875,50,-7246,-1770,-12,66,-1
13004555,0.60406494140625,-0.79248046875,0.08331298828125,-0.01190185546875,-237,-7165,-1831,-14,65,-19
13014536,0.60186767578125,-0.79376220703125,0.08538818359375,-0.01995849609375,-515,-7120,-1920,-16,63,-34
13024522,0.59942626953125,-0.7952880859375,0.08612060546875,-0.0284423828125,-762,-7111,-2013,-18,60,-45
13034505,0.5968017578125,-0.79693603515625,0.0858154296875,-0.0369873046875,-976,-7125,-2109,-19,55,-52
13044487,0.5941162109375,-0.79864501953125,0.084716796875,-0.0452880859375,-1158,-7185,-2185,-20,50,-56
13054470,0.59130859375,-0.8004150390625,0.08306884765625,-0.05291748046875,-1317,-7297,-2287,-21,43,-56
13064454,0.5885009765625,-0.80218505859375,0.08123779296875,-0.0595703125,-1440,-7415,-2376,-21,36,-53
13074435,0.58587646484375,-0.80389404296875,0.079345703125,-0.06500244140625,-1546,-7547,-2465,-20,27,-47
13084426,0.58355712890625,-0.805419921875,0.07757568359375,-0.06903076171875,-1614,-7647,-2569,-18,18,-39
13094408,0.58148193359375,-0.80682373046875,0.07598876953125,-0.07159423828125,-1629,-7741,-2660,-17,10,-30
13104381,0.579833984375,-0.80804443359375,0.0745849609375,-0.07269287109375,-1633,-7844,-2752,-14,1,-22
13114366,0.57861328125,-0.80908203125,0.0731201171875,-0.072509765625,-1613,-7969,-2850,-10,-8,-16
13124350,0.577880859375,-0.80987548828125,0.071533203125,-0.0711669921875,-1555,-8096,-2947,-7,-17,-11
13134331,0.57769775390625,-0.81036376953125,0.069580078125,-0.06890869140625,-1492,-8214,-3036,-2,-25,-8
13144317,0.57794189453125,-0.8106689453125,0.067138671875,-0.06585693359375,-1403,-8294,-3106,2,-33,-8
13154298,0.57867431640625,-0.8106689453125,0.06390380859375,-0.0621337890625,-1333,-8370,-3171,7,-41,-10
13164280,0.57989501953125,-0.8104248046875,0.05975341796875,-0.05804443359375,-1249,-8447,-3247,12,-48,-14
13174263,0.58148193359375,-0.8099365234375,0.0545654296875,-0.05377197265625,-1143,-8518,-3329,16,-55,-19
13184242,0.58349609375,-0.8092041015625,0.04827880859375,-0.04931640625,-1024,-8601,-3408,21,-61,-25
13194234,0.5859375,-0.80810546875,0.04095458984375,-0.04486083984375,-892,-8671,-3478,26,-66,-31
13204219,0.58868408203125,-0.80670166015625,0.0325927734375,-0.0404052734375,-741,-8722,-3536,30,-71,-37
13214206,0.591796875,-0.804931640625,0.0233154296875,-0.0360107421875,-560,-8758,-3584,35,-75,-42
13224191,0.59521484375,-0.8028564453125,0.01336669921875,-0.0316162109375,-378,-8774,-3608,39,-78,-45
13234177,0.59893798828125,-0.80035400390625,0.00311279296875,-0.02703857421875,-175,-8763,-3613,43,-81,-45
13244160,0.6029052734375,-0.7974853515625,-0.00701904296875,-0.02215576171875,46,-8745,-3596,46,-82,-40
13254130,0.6070556640625,-0.7943115234375,-0.01641845703125,-0.0167236328125,289,-8725,-3551,49,-82,-31
13264115,0.61138916015625,-0.7908935546875,-0.0247802734375,-0.010498046875,550,-8699,-3481,51,-82,-18
13274095,0.6158447265625,-0.7872314453125,-0.0316162109375,-0.00341796875,818,-8659,-3375,53,-80,-1
13284081,0.620361328125,-0.783447265625,-0.03668212890625,0.00469970703125,1094,-8593,-3230,54,-78,16
13294065,0.6248779296875,-0.779541015625,-0.0399169921875,0.01361083984375,1368,-8525,-3029,54,-73,33
13304051,0.62945556640625,-0.77557373046875,-0.0413818359375,0.02313232421875,1637,-8439,-2784,54,-68,49
13314031,0.6339111328125,-0.7716064453125,-0.04119873046875,0.03302001953125,1862,-8331,-2529,53,-62,62
13324012,0.6383056640625,-0.767578125,-0.03961181640625,0.04290771484375,2045,-8192,-2242,52,-55,70
13333995,0.642578125,-0.7635498046875,-0.037109375,0.0523681640625,2192,-8059,-1954,51,-47,74
13343982,0.64678955078125,-0.75946044921875,-0.03375244140625,0.06103515625,2299,-7935,-1684,50,-37,74
13353959,0.65087890625,-0.75543212890625,-0.02996826171875,0.068603515625,2366,-7836,-1422,49,-28,71
13363941,0.65496826171875,-0.75152587890625,-0.02593994140625,0.07489013671875,2394,-7715,-1196,48,-18,65
13373925,0.65899658203125,-0.74761962890625,-0.02178955078125,0.07958984375,2388,-7611,-988,46,-8,57
13383911,0.66290283203125,-0.743896484375,-0.01776123046875,0.0826416015625,2333,-7494,-793,45,2,46
13393892,0.6668701171875,-0.7403564453125,-0.0137939453125,0.08392333984375,2230,-7375,-644,43,13,35
13403878,0.670654296875,-0.73699951171875,-0.0101318359375,0.08331298828125,2096,-7252,-517,41,23,23
13413857,0.67425537109375,-0.7340087890625,-0.006591796875,0.08111572265625,1934,-7138,-418,38,33,12
13423839,0.67755126953125,-0.73138427734375,-0.0030517578125,0.07733154296875,1756,-7016,-355,34,42,3
13433823,0.6805419921875,-0.7291259765625,0.00048828125,0.072265625,1582,-6877,-319,30,50,-3
13443801,0.68304443359375,-0.72735595703125,0.00433349609375,0.066162109375,1395,-6724,-304,25,58,-7
13453784,0.6849365234375,-0.72613525390625,0.0086669921875,0.0594482421875,1186,-6578,-337,19,64,-8
13463773,0.68621826171875,-0.72540283203125,0.01348876953125,0.05230712890625,985,-6447,-396,13,70,-8
13473755,0.68682861328125,-0.72515869140625,0.01904296875,0.044921875,760,-6339,-475,7,75,-5
13483738,0.686767578125,-0.72552490234375,0.025146484375,0.03753662109375,530,-6236,-578,1,78,-3
13493712,0.68597412109375,-0.72625732421875,0.03173828125,0.03021240234375,268,-6157,-674,-5,81,-1
13503700,0.6845703125,-0.7275390625,0.03875732421875,0.02301025390625,-6,-6079,-780,-12,82,0
13513680,0.68243408203125,-0.72930908203125,0.04583740234375,0.015869140625,-286,-6054,-892,-18,83,0
13523666,0.67962646484375,-0.7315673828125,0.0528564453125,0.0089111328125,-572,-6038,-1003,-25,82,-1
13533643,0.6761474609375,-0.734375,0.05963134765625,0.00201416015625,-851,-6081,-1133,-31,80,-4
13543626,0.6719970703125,-0.73760986328125,0.0657958984375,-0.00482177734375,-1107,-6168,-1287,-38,76,-8
13553609,0.667236328125,-0.7413330078125,0.0712890625,-0.01165771484375,-1346,-6292,-1432,-43,73,-14
13563591,0.66192626953125,-0.7454833984375,0.075927734375,-0.01837158203125,-1550,-6436,-1609,-49,67,-20
13573575,0.65618896484375,-0.75,0.07952880859375,-0.0250244140625,-1724,-6618,-1756,-53,62,-26
13583557,0.64996337890625,-0.7548828125,0.08209228515625,-0.0316162109375,-1851,-6814,-1908,-57,56,-32
13593542,0.64337158203125,-0.760009765625,0.083740234375,-0.037841796875,-1927,-7037,-2056,-61,49,-37
13603523,0.6365966796875,-0.76531982421875,0.0845947265625,-0.043701171875,-1966,-7292,-2199,-63,43,-39
13613507,0.62969970703125,-0.7706298828125,0.084716796875,-0.0489501953125,-1957,-7545,-2335,-64,36,-40
13623489,0.62286376953125,-0.77593994140625,0.08428955078125,-0.05352783203125,-1926,-7786,-2448,-64,28,-39
13633476,0.61602783203125,-0.78118896484375,0.08349609375,-0.05743408203125,-1853,-8028,-2561,-63,22,-38
13643458,0.60955810546875,-0.7861328125,0.08233642578125,-0.06060791015625,-1743,-8252,-2628,-61,16,-35
13653438,0.6033935546875,-0.790771484375,0.0811767578125,-0.0628662109375,-1596,-8466,-2684,-59,10,-29
13663430,0.5977783203125,-0.7950439453125,0.0802001953125,-0.0643310546875,-1421,-8646,-2729,-54,5,-22
13673413,0.59271240234375,-0.79888916015625,0.07977294921875,-0.064697265625,-1236,-8786,-2772,-50,1,-11
13683401,0.5882568359375,-0.80218505859375,0.08013916015625,-0.06402587890625,-1024,-8887,-2810,-45,-2,2
13693369,0.58447265625,-0.80487060546875,0.08172607421875,-0.062255859375,-789,-8971,-2835,-39,-3,17
13703351,0.58135986328125,-0.8070068359375,0.0848388671875,-0.05938720703125,-545,-9008,-2853,-33,-4,35
13713334,0.5789794921875,-0.8084716796875,0.08978271484375,-0.05535888671875,-305,-9027,-2858,-28,-3,55
13723319,0.5772705078125,-0.80926513671875,0.09661865234375,-0.05029296875,-101,-9011,-2840,-22,-1,75
13733304,0.576171875,-0.809326171875,0.10528564453125,-0.04443359375,59,-8978,-2818,-16,2,91
13743285,0.5755615234375,-0.8087158203125,0.1153564453125,-0.03814697265625,154,-8920,-2801,-11,6,103
13753268,0.57537841796875,-0.8074951171875,0.12628173828125,-0.03179931640625,167,-8862,-2798,-5,9,108
13763256,0.57562255859375,-0.8056640625,0.1375732421875,-0.0257568359375,125,-8832,-2805,1,13,109
13773244,0.576171875,-0.80340576171875,0.1488037109375,-0.0203857421875,26,-8797,-2821,6,16,104
13783225,0.5771484375,-0.80078125,0.1593017578125,-0.0159912109375,-100,-8787,-2833,11,19,94
13793208,0.57843017578125,-0.7979736328125,0.16876220703125,-0.012939453125,-258,-8785,-2855,16,22,80
13803188,0.5799560546875,-0.795166015625,0.17681884765625,-0.0113525390625,-451,-8767,-2867,21,25,63
13813179,0.581787109375,-0.7923583984375,0.18310546875,-0.0113525390625,-692,-8731,-2882,24,27,42
13823162,0.58380126953125,-0.78985595703125,0.1873779296875,-0.01300048828125,-941,-8688,-2884,27,28,19
13833140,0.5859375,-0.7877197265625,0.189453125,-0.0164794921875,-1196,-8608,-2871,29,29,-6
13843113,0.58819580078125,-0.78594970703125,0.189208984375,-0.0216064453125,-1453,-8511,-2825,30,28,-31
13853095,0.59039306640625,-0.78472900390625,0.18670654296875,-0.0281982421875,-1694,-8395,-2763,31,27,-54
13863077,0.592529296875,-0.78387451171875,0.18218994140625,-0.03594970703125,-1931,-8261,-2679,30,25,-74
13873060,0.59454345703125,-0.7833251953125,0.17596435546875,-0.0443115234375,-2122,-8140,-2585,29,21,-88
13883043,0.59637451171875,-0.78302001953125,0.16851806640625,-0.05291748046875,-2286,-8030,-2494,27,17,-97
13893026,0.5980224609375,-0.78289794921875,0.1602783203125,-0.061279296875,-2412,-7928,-2400,25,11,-101
13903009,0.59954833984375,-0.7828369140625,0.15155029296875,-0.06890869140625,-2527,-7811,-2290,24,5,-101
13912997,0.60107421875,-0.78271484375,0.1427001953125,-0.0755615234375,-2595,-7704,-2177,22,-3,-97
13922977,0.6025390625,-0.7825927734375,0.13385009765625,-0.08087158203125,-2624,-7617,-2062,20,-11,-90
13932955,0.6041259765625,-0.78240966796875,0.125244140625,-0.08465576171875,-2616,-7557,-1968,19,-20,-80
13942937,0.60577392578125,-0.78216552734375,0.1170654296875,-0.0869140625,-2555,-7519,-1898,18,-28,-69
13952922,0.60760498046875,-0.78179931640625,0.109375,-0.0875244140625,-2442,-7506,-1845,18,-36,-57
13962904,0.60955810546875,-0.78131103515625,0.10223388671875,-0.086669921875,-2262,-7546,-1805,18,-43,-45
13972886,0.61175537109375,-0.78070068359375,0.09576416015625,-0.08441162109375,-2030,-7631,-1783,19,-49,-32
13982870,0.6141357421875,-0.7799072265625,0.08990478515625,-0.08087158203125,-1787,-7722,-1786,20,-54,-20
13992853,0.61676025390625,-0.77886962890625,0.0848388671875,-0.076171875,-1512,-7849,-1806,22,-57,-8
14002839,0.61962890625,-0.77752685546875,0.08056640625,-0.0704345703125,-1224,-7989,-1817,24,-60,4
14012817,0.62274169921875,-0.7760009765625,0.0772705078125,-0.06390380859375,-912,-8120,-1849,25,-61,16
14022798,0.6260986328125,-0.77410888671875,0.074951171875,-0.0565185546875,-591,-8263,-1838,27,-60,29
14032784,0.629638671875,-0.7718505859375,0.07366943359375,-0.04852294921875,-294,-8391,-1817,29,-59,41
14042766,0.63336181640625,-0.769287109375,0.07354736328125,-0.0400390625,-30,-8511,-1770,31,-56,51
14052759,0.63726806640625,-0.76641845703125,0.07427978515625,-0.0313720703125,182,-8628,-1722,34,-53,58
14062741,0.6412353515625,-0.7633056640625,0.07550048828125,-0.02288818359375,338,-8721,-1667,35,-49,60
14072719,0.645263671875,-0.75994873046875,0.076904296875,-0.01495361328125,441,-8791,-1609,37,-44,57
14082700,0.64935302734375,-0.75640869140625,0.07806396484375,-0.00799560546875,487,-8849,-1537,39,-39,50
14092682,0.65350341796875,-0.7528076171875,0.0787353515625,-0.0023193359375,501,-8881,-1439,41,-34,39
14102666,0.65771484375,-0.7491455078125,0.07861328125,0.0018310546875,504,-8879,-1340,42,-29,26
14112649,0.66192626953125,-0.7454833984375,0.07769775390625,0.00445556640625,474,-8842,-1237,43,-24,12
14122636,0.66619873046875,-0.74188232421875,0.07598876953125,0.0054931640625,439,-8760,-1111,44,-18,-1
14132611,0.67034912109375,-0.73834228515625,0.07366943359375,0.00506591796875,397,-8628,-979,43,-12,-13
14142594,0.67437744140625,-0.7349853515625,0.07086181640625,0.00341796875,352,-8484,-848,42,-8,-23
14152578,0.67822265625,-0.73175048828125,0.0677490234375,0.00067138671875,295,-8295,-706,40,-3,-31
14162564,0.68182373046875,-0.7286376953125,0.06451416015625,-0.00286865234375,200,-8079,-541,38,1,-36
14172544,0.68511962890625,-0.72576904296875,0.061279296875,-0.0069580078125,55,-7853,-398,35,5,-41
14182526,0.68804931640625,-0.72320556640625,0.05804443359375,-0.01141357421875,-106,-7596,-264,31,8,-44
14192509,0.6905517578125,-0.72100830078125,0.054931640625,-0.01605224609375,-281,-7332,-145,26,9,-45
14202491,0.6925048828125,-0.71923828125,0.05194091796875,-0.0205078125,-454,-7075,-38,20,8,-45
14212471,0.6939697265625,-0.7178955078125,0.04901123046875,-0.02471923828125,-605,-6848,24,15,7,-43
14222457,0.69488525390625,-0.71710205078125,0.0462646484375,-0.0284423828125,-768,-6642,76,9,5,-40
14232435,0.6953125,-0.7166748046875,0.04364013671875,-0.0316162109375,-902,-6484,87,3,2,-38
14242426,0.69525146484375,-0.716796875,0.04083251953125,-0.0343017578125,-1003,-6380,74,-2,-1,-37
14252406,0.69476318359375,-0.71734619140625,0.037841796875,-0.03662109375,-1077,-6327,19,-6,-5,-36
14262390,0.69390869140625,-0.71820068359375,0.03448486328125,-0.0384521484375,-1105,-6365,-39,-10,-10,-36
14272368,0.69287109375,-0.71929931640625,0.03082275390625,-0.0399169921875,-1064,-6466,-99,-12,-14,-35
14282350,0.69158935546875,-0.72064208984375,0.0269775390625,-0.04095458984375,-959,-6630,-172,-14,-17,-33
14292332,0.69024658203125,-0.72198486328125,0.023193359375,-0.04144287109375,-797,-6833,-266,-14,-20,-28
14302318,0.68896484375,-0.72332763671875,0.01983642578125,-0.04119873046875,-592,-7071,-371,-13,-22,-19
14312301,0.68780517578125,-0.724609375,0.017333984375,-0.03997802734375,-337,-7336,-486,-12,-22,-6
14322285,0.68682861328125,-0.7257080078125,0.01593017578125,-0.03765869140625,-56,-7610,-607,-10,-22,9
14332265,0.68603515625,-0.7265625,0.0159912109375,-0.03424072265625,248,-7875,-735,-8,-21,26
14342245,0.685546875,-0.72723388671875,0.017578125,-0.02972412109375,547,-8136,-852,-5,-18,42
14352239,0.68536376953125,-0.72747802734375,0.020751953125,-0.0242919921875,817,-8369,-955,-1,-14,58
14362225,0.68548583984375,-0.7274169921875,0.025390625,-0.01824951171875,1054,-8568,-1056,3,-10,70
14372206,0.6859130859375,-0.7269287109375,0.03125,-0.011962890625,1230,-8747,-1123,7,-4,79
14382187,0.68658447265625,-0.72601318359375,0.0380859375,-0.00579833984375,1331,-8917,-1197,10,2,84
14392175,0.6875,-0.72479248046875,0.0455322265625,-0.00018310546875,1410,-9059,-1254,14,9,84
14402156,0.6885986328125,-0.72314453125,0.05328369140625,0.00457763671875,1458,-9180,-1289,18,16,81
14412129,0.69000244140625,-0.72119140625,0.06109619140625,0.0081787109375,1443,-9265,-1291,22,23,74
14422116,0.691650390625,-0.7188720703125,0.06878662109375,0.0103759765625,1383,-9308,-1283,25,30,64
14432097,0.69342041015625,-0.7164306640625,0.07611083984375,0.0108642578125,1294,-9311,-1249,28,38,52
14442082,0.6953125,-0.7138671875,0.08282470703125,0.00970458984375,1179,-9266,-1192,30,45,39
14452066,0.697265625,-0.71124267578125,0.0889892578125,0.00677490234375,1037,-9165,-1132,32,51,25
14462051,0.69915771484375,-0.7086181640625,0.09466552734375,0.00225830078125,871,-9019,-1075,32,58,12
14472027,0.700927734375,-0.7061767578125,0.099853515625,-0.003662109375,705,-8796,-989,31,63,1
14482011,0.70245361328125,-0.703857421875,0.104736328125,-0.01068115234375,520,-8513,-894,29,68,-8
14491996,0.70367431640625,-0.70184326171875,0.10943603515625,-0.01861572265625,330,-8191,-786,26,72,-15
14501981,0.70440673828125,-0.70001220703125,0.11419677734375,-0.02703857421875,115,-7822,-678,22,76,-19
14511959,0.70465087890625,-0.69854736328125,0.119140625,-0.03558349609375,-137,-7441,-553,16,77,-20
14521943,0.70440673828125,-0.69744873046875,0.12420654296875,-0.0440673828125,-395,-7075,-459,10,78,-20
14531924,0.7034912109375,-0.69677734375,0.12957763671875,-0.05224609375,-662,-6759,-379,4,78,-19
14541907,0.7020263671875,-0.69659423828125,0.13507080078125,-0.0599365234375,-954,-6497,-312,-3,76,-18
14551887,0.7000732421875,-0.6968994140625,0.1405029296875,-0.06707763671875,-1231,-6296,-274,-10,73,-17
14561869,0.697509765625,-0.69769287109375,0.1458740234375,-0.07366943359375,-1512,-6171,-236,-16,69,-16
14571850,0.69451904296875,-0.69891357421875,0.15093994140625,-0.07977294921875,-1776,-6114,-228,-22,65,-17
14581834,0.69110107421875,-0.70062255859375,0.15557861328125,-0.08526611328125,-1994,-6132,-260,-27,60,-17
14591816,0.68731689453125,-0.70281982421875,0.15985107421875,-0.0902099609375,-2173,-6213,-309,-32,54,-17
14601800,0.68328857421875,-0.705322265625,0.16357421875,-0.09442138671875,-2310,-6348,-360,-35,47,-17
14611784,0.67913818359375,-0.70806884765625,0.1668701171875,-0.09796142578125,-2395,-6515,-423,-38,41,-16
14621771,0.67486572265625,-0.71099853515625,0.1697998046875,-0.1007080078125,-2426,-6728,-520,-39,34,-13
14631754,0.67071533203125,-0.71405029296875,0.1724853515625,-0.10272216796875,-2393,-6968,-616,-40,28,-9
14641737,0.66668701171875,-0.717041015625,0.17498779296875,-0.1038818359375,-2321,-7234,-726,-39,22,-5
14651720,0.66290283203125,-0.71990966796875,0.177490234375,-0.1041259765625,-2207,-7506,-849,-38,17,2
14661697,0.659423828125,-0.72247314453125,0.17999267578125,-0.10357666015625,-2058,-7797,-951,-36,12,9
14671680,0.65643310546875,-0.7247314453125,0.1827392578125,-0.10223388671875,-1892,-8100,-1065,-33,8,16
14681663,0.65386962890625,-0.7265625,0.185791015625,-0.10015869140625,-1693,-8391,-1166,-29,5,24
14691646,0.65179443359375,-0.7279052734375,0.18927001953125,-0.097412109375,-1485,-8666,-1253,-24,3,33
14701628,0.6502685546875,-0.7286376953125,0.19317626953125,-0.09417724609375,-1269,-8915,-1342,-20,2,41
14711613,0.6492919921875,-0.72882080078125,0.19757080078125,-0.090576171875,-1067,-9141,-1401,-14,3,48
14721595,0.6488037109375,-0.7283935546875,0.20245361328125,-0.0867919921875,-916,-9308,-1470,-9,3,54
14731579,0.6488037109375,-0.72735595703125,0.2076416015625,-0.0830078125,-813,-9425,-1519,-3,5,56
14741568,0.64923095703125,-0.72589111328125,0.2127685546875,-0.07952880859375,-776,-9502,-1535,3,6,55
14751547,0.65008544921875,-0.7239990234375,0.2176513671875,-0.07659912109375,-792,-9555,-1567,8,8,50
14761529,0.65130615234375,-0.7218017578125,0.221923828125,-0.074462890625,-845,-9593,-1569,14,9,42
14771511,0.65283203125,-0.71942138671875,0.2254638671875,-0.0733642578125,-923,-9611,-1574,19,10,32
14781495,0.65472412109375,-0.7169189453125,0.22808837890625,-0.07330322265625,-1037,-9600,-1568,24,11,20
14791478,0.6568603515625,-0.71435546875,0.2296142578125,-0.074462890625,-1183,-9567,-1523,29,12,7
14801460,0.65924072265625,-0.7117919921875,0.22998046875,-0.07672119140625,-1365,-9526,-1457,33,12,-7
14811437,0.661865234375,-0.709228515625,0.229248046875,-0.080078125,-1538,-9447,-1372,37,12,-20
14821430,0.66455078125,-0.70672607421875,0.22747802734375,-0.08428955078125,-1723,-9336,-1278,39,11,-32
14831413,0.6673583984375,-0.70440673828125,0.22479248046875,-0.08917236328125,-1902,-9189,-1155,40,9,-41
14841396,0.670166015625,-0.7021484375,0.22125244140625,-0.094482421875,-2050,-8997,-1009,40,7,-49
14851372,0.6729736328125,-0.699951171875,0.21722412109375,-0.09979248046875,-2189,-8737,-859,40,4,-52
14861354,0.67578125,-0.6978759765625,0.21295166015625,-0.1048583984375,-2310,-8438,-666,38,1,-53
14871335,0.678466796875,-0.69586181640625,0.20855712890625,-0.10931396484375,-2425,-8124,-471,36,-3,-50
14881316,0.68109130859375,-0.6939697265625,0.20416259765625,-0.11297607421875,-2530,-7799,-286,32,-7,-46
14891299,0.68365478515625,-0.6922607421875,0.199951171875,-0.11553955078125,-2600,-7491,-124,29,-13,-40
14901279,0.68609619140625,-0.6907958984375,0.19598388671875,-0.11700439453125,-2665,-7219,17,25,-18,-33
14911266,0.6883544921875,-0.68951416015625,0.19219970703125,-0.1173095703125,-2684,-7008,131,20,-24,-26
14921244,0.69049072265625,-0.6885986328125,0.1884765625,-0.11651611328125,-2654,-6854,199,16,-29,-20
14931237,0.6923828125,-0.68798828125,0.18475341796875,-0.11480712890625,-2591,-6764,249,12,-34,-15
14941219,0.694091796875,-0.68768310546875,0.180908203125,-0.1124267578125,-2470,-6740,259,9,-39,-12
14951206,0.69561767578125,-0.6876220703125,0.17681884765625,-0.10955810546875,-2324,-6787,254,6,-43,-11
14961191,0.697021484375,-0.68780517578125,0.1724853515625,-0.1064453125,-2155,-6892,249,4,-46,-11
14971174,0.69830322265625,-0.6881103515625,0.16790771484375,-0.10308837890625,-1949,-7038,230,3,-48,-9
14981157,0.6995849609375,-0.6884765625,0.163330078125,-0.0994873046875,-1715,-7237,196,3,-49,-7
14991129,0.70086669921875,-0.68878173828125,0.15887451171875,-0.095703125,-1438,-7468,162,4,-49,-2
15001115,0.7022705078125,-0.6888427734375,0.15484619140625,-0.091552734375,-1150,-7765,126,5,-49,4
15011095,0.7037353515625,-0.6885986328125,0.15142822265625,-0.0870361328125,-860,-8066,71,7,-47,12
15021081,0.7054443359375,-0.6881103515625,0.14886474609375,-0.08209228515625,-604,-8363,29,9,-45,21
15031063,0.707275390625,-0.68719482421875,0.14703369140625,-0.076904296875,-390,-8608,9,11,-41,28
15041051,0.7093505859375,-0.68585205078125,0.14593505859375,-0.0716552734375,-223,-8801,4,14,-37,32
15051029,0.71160888671875,-0.68414306640625,0.14532470703125,-0.0665283203125,-116,-8960,21,17,-33,35
15061012,0.7139892578125,-0.68218994140625,0.1451416015625,-0.0618896484375,-57,-9065,38,21,-28,34
15070996,0.7164306640625,-0.679931640625,0.14501953125,-0.05792236328125,-28,-9137,54,23,-24,30
15080984,0.71905517578125,-0.677490234375,0.14483642578125,-0.05474853515625,-37,-9190,58,26,-20,24
15090959,0.7216796875,-0.6749267578125,0.14447021484375,-0.0526123046875,-65,-9189,67,29,-16,17
15100943,0.724365234375,-0.6722412109375,0.14385986328125,-0.0513916015625,-110,-9120,94,31,-12,10
15110925,0.7271728515625,-0.66949462890625,0.1429443359375,-0.05126953125,-181,-8988,140,33,-8,2
15120909,0.7298583984375,-0.66668701171875,0.14178466796875,-0.05206298828125,-270,-8822,203,34,-4,-6
15130887,0.7325439453125,-0.66387939453125,0.14044189453125,-0.0537109375,-404,-8620,266,34,-1,-13
15140878,0.73516845703125,-0.6611328125,0.13885498046875,-0.055908203125,-564,-8387,342,34,1,-19
15150854,0.73760986328125,-0.6585693359375,0.13702392578125,-0.05865478515625,-726,-8156,417,32,2,-24
15160837,0.7398681640625,-0.6561279296875,0.1351318359375,-0.06158447265625,-899,-7925,502,30,3,-26
15170820,0.74188232421875,-0.6539306640625,0.13330078125,-0.064453125,-1062,-7686,568,27,2,-27
15180804,0.74365234375,-0.65203857421875,0.1314697265625,-0.0670166015625,-1213,-7442,647,23,1,-26
15190787,0.74505615234375,-0.65057373046875,0.1297607421875,-0.0692138671875,-1343,-7179,702,18,-1,-24
15200773,0.7462158203125,-0.6494140625,0.128173828125,-0.07086181640625,-1419,-6950,763,14,-3,-21
15210755,0.7469482421875,-0.648681640625,0.1265869140625,-0.072021484375,-1471,-6749,805,8,-5,-18
15220736,0.74737548828125,-0.6484375,0.12506103515625,-0.07269287109375,-1488,-6613,824,3,-8,-15
15230712,0.7474365234375,-0.64862060546875,0.12359619140625,-0.0728759765625,-1496,-6544,828,-1,-10,-13
15240696,0.7471923828125,-0.64923095703125,0.12213134765625,-0.07257080078125,-1457,-6542,811,-5,-12,-10
15250677,0.74676513671875,-0.65008544921875,0.12066650390625,-0.0718994140625,-1387,-6600,787,-9,-13,-7
15260661,0.74609375,-0.6512451171875,0.119384765625,-0.07086181640625,-1295,-6718,788,-11,-15,-4
15270644,0.74530029296875,-0.6524658203125,0.1181640625,-0.06951904296875,-1182,-6866,776,-13,-15,-1
15280636,0.74444580078125,-0.65380859375,0.11712646484375,-0.06793212890625,-1046,-7054,754,-14,-15,3
15290610,0.74359130859375,-0.65509033203125,0.11639404296875,-0.06610107421875,-914,-7272,748,-14,-15,6
15300592,0.74273681640625,-0.65631103515625,0.11590576171875,-0.06402587890625,-794,-7488,740,-13,-14,10
15310575,0.74200439453125,-0.65740966796875,0.11572265625,-0.06182861328125,-684,-7696,713,-12,-13,13
15320558,0.741455078125,-0.65826416015625,0.1158447265625,-0.05950927734375,-623,-7907,704,-10,-12,15
15330542,0.74102783203125,-0.65887451171875,0.1162109375,-0.05712890625,-604,-8100,705,-7,-11,17
15340525,0.74078369140625,-0.65924072265625,0.11669921875,-0.0546875,-590,-8268,709,-5,-10,18
15350506,0.74078369140625,-0.65936279296875,0.11737060546875,-0.05230712890625,-609,-8418,704,-2,-9,19
15360493,0.74090576171875,-0.65924072265625,0.1180419921875,-0.0499267578125,-636,-8534,713,0,-9,19
15370475,0.74127197265625,-0.658935546875,0.11859130859375,-0.0477294921875,-691,-8625,722,2,-9,17
15380457,0.74176025390625,-0.658447265625,0.11895751953125,-0.0457763671875,-774,-8686,734,4,-10,14
15390439,0.74237060546875,-0.6578369140625,0.118896484375,-0.0440673828125,-865,-8726,739,6,-10,9
15400429,0.7431640625,-0.65716552734375,0.118408203125,-0.04278564453125,-950,-8746,742,8,-11,4
15410417,0.7440185546875,-0.65643310546875,0.1173095703125,-0.04193115234375,-1014,-8739,740,9,-13,-2
15420394,0.74493408203125,-0.65570068359375,0.11578369140625,-0.04144287109375,-1051,-8713,722,10,-14,-7
15430370,0.74591064453125,-0.65496826171875,0.1136474609375,-0.04132080078125,-1031,-8676,717,12,-15,-11
15440352,0.7469482421875,-0.6541748046875,0.1112060546875,-0.04144287109375,-969,-8635,746,12,-16,-14
15450336,0.74798583984375,-0.65338134765625,0.10858154296875,-0.04168701171875,-827,-8585,765,12,-16,-14
15460318,0.7491455078125,-0.65252685546875,0.10614013671875,-0.04193115234375,-636,-8529,794,13,-15,-10
15470301,0.75030517578125,-0.6514892578125,0.1041259765625,-0.04193115234375,-423,-8504,811,14,-13,-5
15480293,0.75146484375,-0.650390625,0.10284423828125,-0.0416259765625,-196,-8520,814,14,-9,2
15490268,0.75262451171875,-0.64910888671875,0.102294921875,-0.04107666015625,58,-8505,837,15,-6,9
15500256,0.75390625,-0.64764404296875,0.10260009765625,-0.0404052734375,303,-8467,879,16,-1,16
15510245,0.7552490234375,-0.64593505859375,0.1038818359375,-0.03961181640625,473,-8355,934,17,5,21
15520226,0.756591796875,-0.64404296875,0.10601806640625,-0.0389404296875,594,-8221,1002,17,11,25
15530208,0.7579345703125,-0.64202880859375,0.10882568359375,-0.03851318359375,677,-8088,1070,18,17,27
15540187,0.75921630859375,-0.639892578125,0.11224365234375,-0.03851318359375,714,-7977,1127,18,23,27
15550179,0.7603759765625,-0.63775634765625,0.11627197265625,-0.0389404296875,690,-7862,1152,18,29,26
15560161,0.76141357421875,-0.63568115234375,0.1207275390625,-0.0399169921875,633,-7722,1191,17,35,24
15570139,0.76226806640625,-0.6336669921875,0.12548828125,-0.04144287109375,538,-7565,1228,15,40,22
15580116,0.7628173828125,-0.63177490234375,0.13055419921875,-0.04364013671875,434,-7383,1256,13,45,18
15590098,0.7630615234375,-0.63018798828125,0.13580322265625,-0.04638671875,304,-7215,1288,11,49,14
15600082,0.762939453125,-0.62884521484375,0.1412353515625,-0.04974365234375,129,-7092,1305,8,53,10
15610064,0.762451171875,-0.62786865234375,0.146728515625,-0.05377197265625,-66,-6992,1311,4,57,5
15620051,0.7615966796875,-0.62725830078125,0.152099609375,-0.05828857421875,-311,-6899,1321,0,59,-1
15630024,0.76025390625,-0.6270751953125,0.1573486328125,-0.06341552734375,-552,-6818,1317,-4,61,-8
15640007,0.75848388671875,-0.62738037109375,0.162353515625,-0.06903076171875,-797,-6776,1310,-8,62,-14
15649995,0.75628662109375,-0.6280517578125,0.16705322265625,-0.0750732421875,-1038,-6729,1311,-13,62,-19
15659979,0.75360107421875,-0.6292724609375,0.17144775390625,-0.08135986328125,-1266,-6714,1264,-17,62,-24
15669958,0.7506103515625,-0.63092041015625,0.17559814453125,-0.08770751953125,-1465,-6723,1218,-22,60,-27
15679939,0.7471923828125,-0.63299560546875,0.17950439453125,-0.093994140625,-1620,-6767,1149,-25,58,-29
15689923,0.74346923828125,-0.63531494140625,0.18316650390625,-0.10003662109375,-1766,-6845,1080,-29,56,-29
15699905,0.73956298828125,-0.637939453125,0.18670654296875,-0.105712890625,-1872,-6952,992,-31,53,-28
15709888,0.73553466796875,-0.6407470703125,0.1900634765625,-0.11083984375,-1947,-7072,905,-34,49,-26
15719870,0.7314453125,-0.64361572265625,0.193359375,-0.115478515625,-1991,-7199,795,-35,46,-23
15729854,0.72735595703125,-0.64654541015625,0.1966552734375,-0.119384765625,-2004,-7344,682,-35,42,-18
15739836,0.72344970703125,-0.6492919921875,0.2000732421875,-0.12255859375,-1992,-7495,572,-34,39,-12
15749826,0.7197265625,-0.65185546875,0.20361328125,-0.1248779296875,-1956,-7650,462,-33,36,-5
15759809,0.71630859375,-0.65411376953125,0.2073974609375,-0.12646484375,-1896,-7783,356,-31,33,2
15769787,0.71319580078125,-0.65606689453125,0.21142578125,-0.1273193359375,-1808,-7920,263,-29,30,10
15779768,0.71051025390625,-0.6575927734375,0.21575927734375,-0.12738037109375,-1680,-8064,146,-25,28,18
15789759,0.70819091796875,-0.6585693359375,0.220458984375,-0.12677001953125,-1543,-8211,35,-22,26,26
15799742,0.7064208984375,-0.6590576171875,0.2255859375,-0.12554931640625,-1400,-8337,-64,-17,25,34
15809720,0.705078125,-0.65887451171875,0.231201171875,-0.12384033203125,-1302,-8453,-135,-12,25,42
15819702,0.70416259765625,-0.65814208984375,0.2371826171875,-0.1217041015625,-1260,-8577,-201,-8,25,48
15829685,0.70361328125,-0.65679931640625,0.243408203125,-0.119384765625,-1266,-8701,-261,-3,25,51
15839671,0.70355224609375,-0.655029296875,0.24957275390625,-0.1170654296875,-1306,-8832,-314,2,24,51
15849653,0.7037353515625,-0.65283203125,0.255615234375,-0.11492919921875,-1382,-8992,-359,7,24,50
15859636,0.70428466796875,-0.650390625,0.26123046875,-0.11309814453125,-1472,-9110,-389,11,23,46
15869623,0.70501708984375,-0.647705078125,0.26629638671875,-0.11175537109375,-1604,-9204,-415,14,22,40
15879603,0.70587158203125,-0.64508056640625,0.27069091796875,-0.11114501953125,-1738,-9209,-413,17,21,31
15889586,0.70684814453125,-0.64251708984375,0.27410888671875,-0.11138916015625,-1867,-9132,-362,19,20,20
15899570,0.70782470703125,-0.64019775390625,0.2764892578125,-0.11260986328125,-2008,-8999,-297,20,19,7
15909553,0.70867919921875,-0.63824462890625,0.27777099609375,-0.1148681640625,-2133,-8829,-208,21,18,-6
15919530,0.70941162109375,-0.63677978515625,0.2779541015625,-0.11810302734375,-2250,-8635,-110,20,17,-20
15929513,0.7099609375,-0.6358642578125,0.2769775390625,-0.122314453125,-2337,-8416,-4,18,15,-32
15939495,0.71026611328125,-0.6353759765625,0.27508544921875,-0.127197265625,-2404,-8210,94,16,13,-42
15949480,0.7103271484375,-0.63531494140625,0.2724609375,-0.13250732421875,-2464,-7981,190,14,11,-51
15959463,0.710205078125,-0.63568115234375,0.26922607421875,-0.1380615234375,-2512,-7762,286,11,9,-56
15969449,0.7098388671875,-0.6363525390625,0.26556396484375,-0.14361572265625,-2536,-7570,376,8,6,-59
15979433,0.7093505859375,-0.6373291015625,0.26171875,-0.14886474609375,-2554,-7403,451,6,4,-59
15989410,0.708740234375,-0.63848876953125,0.25775146484375,-0.15362548828125,-2552,-7268,537,3,0,-56
15999394,0.70806884765625,-0.6397705078125,0.25390625,-0.15765380859375,-2552,-7173,589,0,-3,-52
16009368,0.70733642578125,-0.64117431640625,0.2503662109375,-0.1607666015625,-2541,-7098,610,-3,-6,-45
16021995,0.7066650390625,-0.64263916015625,0.2470703125,-0.16290283203125,-2514,-7076,632,-6,-10,-37
16029330,0.7060546875,-0.6441650390625,0.24420166015625,-0.1639404296875,-2478,-7096,633,-9,-13,-29
16039312,0.70550537109375,-0.64569091796875,0.24176025390625,-0.1640625,-2461,-7130,634,-10,-16,-21
16049298,0.705078125,-0.64715576171875,0.2396240234375,-0.16314697265625,-2449,-7191,613,-12,-20,-14
16059278,0.70477294921875,-0.6485595703125,0.23779296875,-0.16143798828125,-2422,-7288,598,-12,-23,-7
16069262,0.70465087890625,-0.64996337890625,0.23614501953125,-0.15887451171875,-2394,-7420,567,-13,-26,-1
16079247,0.70465087890625,-0.6512451171875,0.2347412109375,-0.1556396484375,-2348,-7564,521,-13,-28,4
16089234,0.70477294921875,-0.65252685546875,0.23333740234375,-0.15191650390625,-2276,-7729,459,-12,-31,8
16099219,0.70501708984375,-0.6536865234375,0.23193359375,-0.14776611328125,-2216,-7876,406,-12,-33,11
16109206,0.7054443359375,-0.65472412109375,0.23046875,-0.1434326171875,-2143,-8031,359,-10,-35,12
16119191,0.70599365234375,-0.6556396484375,0.2288818359375,-0.1390380859375,-2064,-8189,314,-8,-36,13
16129174,0.70672607421875,-0.6563720703125,0.22705078125,-0.1346435546875,-1984,-8354,292,-6,-37,12
