subject,Reese Hammons
arm,Right
label,2
hz,100.17251683897761
time,4.452319

timestamp_us,q0,q1,q2,q3,ax,ay,az,gx,gy,gz
942658375,-0.3895263671875,0.58062744140625,-0.36846923828125,-0.61273193359375,-8157,3,358,-3,-2,0
942668358,-0.3892822265625,0.5806884765625,-0.36822509765625,-0.6129150390625,-8159,-14,371,-4,-2,0
942678344,-0.38916015625,0.580810546875,-0.367919921875,-0.61309814453125,-8153,-32,374,-3,-1,-1
942688329,-0.38897705078125,0.5809326171875,-0.36761474609375,-0.61328125,-8141,-54,379,-4,-1,0
942698307,-0.38885498046875,0.5810546875,-0.3673095703125,-0.61346435546875,-8137,-72,390,-4,-1,-1
942708289,-0.388671875,0.58123779296875,-0.36700439453125,-0.61358642578125,-8131,-89,382,-3,-1,-1
942718270,-0.3885498046875,0.58135986328125,-0.36676025390625,-0.6136474609375,-8111,-103,382,-3,-1,-1
942731419,-0.3883056640625,0.58154296875,-0.36651611328125,-0.61376953125,-8105,-114,381,-3,-1,0
942738243,-0.38812255859375,0.58172607421875,-0.3663330078125,-0.6138916015625,-8092,-119,402,-4,0,0
942748222,-0.38787841796875,0.58184814453125,-0.36614990234375,-0.61395263671875,-8090,-140,399,-3,0,0
942758208,-0.38775634765625,0.58209228515625,-0.36590576171875,-0.61395263671875,-8104,-152,388,-3,0,-1
942768194,-0.3876953125,0.58233642578125,-0.36572265625,-0.6138916015625,-8107,-159,383,-2,0,-2
942778176,-0.3876953125,0.58258056640625,-0.36553955078125,-0.61376953125,-8116,-166,390,-2,1,-2
942788159,-0.3876953125,0.58282470703125,-0.36541748046875,-0.6136474609375,-8109,-167,390,-1,1,-2
942798138,-0.3876953125,0.58306884765625,-0.36529541015625,-0.61346435546875,-8111,-171,401,-1,1,-2
942808121,-0.38775634765625,0.583251953125,-0.36517333984375,-0.61334228515625,-8112,-173,404,-1,1,-1
942818107,-0.38775634765625,0.5833740234375,-0.36517333984375,-0.6131591796875,-8105,-168,412,0,1,-1
942828084,-0.3878173828125,0.58355712890625,-0.36517333984375,-0.61297607421875,-8109,-142,422,0,1,-2
942838070,-0.38787841796875,0.583740234375,-0.36517333984375,-0.61273193359375,-8118,-134,426,0,1,-2
942848050,-0.38800048828125,0.583984375,-0.36517333984375,-0.61248779296875,-8131,-116,419,0,2,-2
942858033,-0.38812255859375,0.58416748046875,-0.36517333984375,-0.6121826171875,-8145,-115,430,1,1,-3
942868016,-0.3883056640625,0.5843505859375,-0.365234375,-0.61187744140625,-8162,-98,427,1,2,-3
942878000,-0.3885498046875,0.58453369140625,-0.365234375,-0.611572265625,-8163,-93,432,1,1,-3
942887981,-0.38873291015625,0.584716796875,-0.36529541015625,-0.61126708984375,-8165,-76,432,1,1,-3
942897966,-0.388916015625,0.58489990234375,-0.36529541015625,-0.6109619140625,-8164,-65,439,1,2,-3
942907946,-0.38909912109375,0.58502197265625,-0.36529541015625,-0.6107177734375,-8166,-50,454,1,1,-3
942917930,-0.38934326171875,0.58514404296875,-0.3653564453125,-0.61041259765625,-8177,-44,441,1,1,-3
942927912,-0.3895263671875,0.5853271484375,-0.3653564453125,-0.610107421875,-8163,-33,441,1,2,-3
942937896,-0.38970947265625,0.58551025390625,-0.3653564453125,-0.6097412109375,-8180,-28,431,1,2,-3
942947879,-0.389892578125,0.58575439453125,-0.3653564453125,-0.60943603515625,-8182,-27,427,1,2,-3
942957858,-0.39013671875,0.5859375,-0.3653564453125,-0.609130859375,-8192,-26,428,1,1,-4
942967849,-0.39031982421875,0.58612060546875,-0.3653564453125,-0.60882568359375,-8196,-32,411,1,1,-4
942977832,-0.39056396484375,0.58636474609375,-0.36529541015625,-0.60845947265625,-8187,-40,409,1,1,-4
942987817,-0.3907470703125,0.58660888671875,-0.365234375,-0.608154296875,-8200,-57,399,1,1,-3
942997791,-0.3909912109375,0.5867919921875,-0.365234375,-0.60784912109375,-8190,-61,392,1,1,-3
943007776,-0.39117431640625,0.5869140625,-0.365234375,-0.6075439453125,-8183,-81,388,1,1,-3
943017756,-0.391357421875,0.58709716796875,-0.365234375,-0.6072998046875,-8161,-90,390,1,1,-3
943027741,-0.39154052734375,0.58721923828125,-0.365234375,-0.60699462890625,-8149,-106,376,1,1,-3
943037723,-0.3917236328125,0.58740234375,-0.365234375,-0.606689453125,-8144,-127,358,1,1,-3
943047707,-0.39190673828125,0.587646484375,-0.36529541015625,-0.60638427734375,-8132,-149,338,1,2,-2
943057689,-0.39208984375,0.58782958984375,-0.3653564453125,-0.6060791015625,-8114,-156,335,1,1,-3
943067668,-0.39227294921875,0.5880126953125,-0.36541748046875,-0.605712890625,-8087,-154,329,1,2,-3
943077662,-0.3924560546875,0.588134765625,-0.36553955078125,-0.60540771484375,-8070,-166,338,1,2,-2
943087642,-0.3927001953125,0.58831787109375,-0.3656005859375,-0.60504150390625,-8042,-161,341,2,2,-3
943097629,-0.39288330078125,0.5885009765625,-0.36578369140625,-0.6046142578125,-8014,-153,335,2,2,-3
943107615,-0.39306640625,0.58868408203125,-0.365966796875,-0.604248046875,-8004,-159,332,2,2,-2
943117598,-0.39312744140625,0.58880615234375,-0.3662109375,-0.60382080078125,-7993,-162,333,2,3,-1
943127580,-0.3931884765625,0.5889892578125,-0.3665771484375,-0.60345458984375,-7986,-155,341,2,3,-1
943137554,-0.3931884765625,0.58905029296875,-0.3670654296875,-0.60308837890625,-7981,-165,365,2,4,1
943147531,-0.39306640625,0.589111328125,-0.36761474609375,-0.602783203125,-8020,-164,376,3,4,2
943157515,-0.3929443359375,0.589111328125,-0.3682861328125,-0.60247802734375,-8103,-147,398,3,4,3
943167498,-0.39276123046875,0.5889892578125,-0.3690185546875,-0.60223388671875,-8231,-133,433,3,4,4
943177480,-0.3924560546875,0.58880615234375,-0.36993408203125,-0.60205078125,-8408,-98,435,4,4,5
943187463,-0.39208984375,0.5885009765625,-0.37103271484375,-0.6019287109375,-8621,-71,468,5,4,7
943197446,-0.39166259765625,0.58807373046875,-0.37225341796875,-0.60186767578125,-8885,-40,512,5,4,9
943207430,-0.3909912109375,0.58734130859375,-0.373779296875,-0.60205078125,-9159,7,561,6,4,13
943217418,-0.3900146484375,0.58636474609375,-0.37579345703125,-0.6024169921875,-9400,85,606,7,4,19
943227402,-0.388427734375,0.58489990234375,-0.37841796875,-0.60321044921875,-9605,199,644,7,4,28
943237380,-0.3861083984375,0.5828857421875,-0.3818359375,-0.6044921875,-9754,364,665,8,3,38
943247363,-0.38299560546875,0.5802001953125,-0.38623046875,-0.60626220703125,-9843,569,682,9,3,50
943257346,-0.37896728515625,0.576904296875,-0.39154052734375,-0.60858154296875,-9866,818,689,10,3,62
943267328,-0.37408447265625,0.5728759765625,-0.39776611328125,-0.611328125,-9863,1077,697,11,3,73
943277312,-0.36834716796875,0.56829833984375,-0.40472412109375,-0.614501953125,-9849,1344,695,12,3,83
943287295,-0.36199951171875,0.56317138671875,-0.412353515625,-0.61785888671875,-9796,1629,697,13,4,91
943297279,-0.3551025390625,0.55767822265625,-0.42047119140625,-0.62139892578125,-9736,1905,701,13,5,96
943307263,-0.3480224609375,0.55194091796875,-0.4287109375,-0.6248779296875,-9670,2179,703,14,5,99
943317245,-0.34075927734375,0.54608154296875,-0.4371337890625,-0.62823486328125,-9599,2444,699,15,6,99
943327228,-0.33343505859375,0.54010009765625,-0.44549560546875,-0.6314697265625,-9520,2693,679,16,6,99
943337210,-0.32623291015625,0.53411865234375,-0.45379638671875,-0.6343994140625,-9414,2925,661,16,6,98
943347190,-0.3189697265625,0.52801513671875,-0.4620361328125,-0.63720703125,-9334,3127,625,17,6,98
943357182,-0.31170654296875,0.5218505859375,-0.47027587890625,-0.63983154296875,-9273,3297,561,18,6,99
943367164,-0.3043212890625,0.51544189453125,-0.47857666015625,-0.6424560546875,-9229,3453,490,18,5,101
943377141,-0.2967529296875,0.50885009765625,-0.4869384765625,-0.64495849609375,-9198,3596,411,19,5,104
943387126,-0.28900146484375,0.501953125,-0.49542236328125,-0.64739990234375,-9176,3739,324,19,4,107
943397110,-0.281005859375,0.49481201171875,-0.50396728515625,-0.64984130859375,-9144,3869,247,19,4,110
943407091,-0.27294921875,0.4873046875,-0.512451171875,-0.65228271484375,-9115,3997,182,19,3,111
943417075,-0.26495361328125,0.47979736328125,-0.52081298828125,-0.654541015625,-9086,4121,106,20,2,111
943427059,-0.257080078125,0.4720458984375,-0.5289306640625,-0.65673828125,-9046,4247,51,19,1,111
943437039,-0.2491455078125,0.4642333984375,-0.53692626953125,-0.658935546875,-8967,4387,-8,19,-1,111
943447021,-0.24127197265625,0.45623779296875,-0.54473876953125,-0.6610107421875,-8860,4532,-48,18,-1,111
943457004,-0.23333740234375,0.44818115234375,-0.55230712890625,-0.6630859375,-8724,4679,-109,17,-2,110
943466985,-0.22552490234375,0.440185546875,-0.5595703125,-0.6650390625,-8583,4837,-156,16,-3,109
943476969,-0.2177734375,0.43218994140625,-0.56646728515625,-0.6669921875,-8444,4980,-187,14,-3,106
943486951,-0.2103271484375,0.42449951171875,-0.57293701171875,-0.6688232421875,-8330,5101,-217,13,-3,102
943496935,-0.20306396484375,0.4169921875,-0.57904052734375,-0.67059326171875,-8220,5218,-257,12,-3,99
943506918,-0.1959228515625,0.40972900390625,-0.584716796875,-0.6722412109375,-8120,5329,-276,10,-3,96
943516900,-0.18890380859375,0.40264892578125,-0.59002685546875,-0.673828125,-8033,5424,-312,8,-3,94
943526883,-0.181884765625,0.39569091796875,-0.59515380859375,-0.6754150390625,-7963,5519,-353,6,-3,94
943536864,-0.1749267578125,0.388916015625,-0.5999755859375,-0.67694091796875,-7883,5621,-403,5,-3,92
943546855,-0.16790771484375,0.3822021484375,-0.6046142578125,-0.67840576171875,-7804,5708,-433,4,-2,92
943556837,-0.16070556640625,0.3753662109375,-0.609130859375,-0.679931640625,-7694,5788,-473,3,-2,94
943566821,-0.15313720703125,0.36834716796875,-0.61370849609375,-0.681396484375,-7570,5867,-495,2,-1,97
943576794,-0.14508056640625,0.36102294921875,-0.61822509765625,-0.6829833984375,-7410,5952,-503,1,-1,102
943586781,-0.1365966796875,0.3533935546875,-0.622802734375,-0.6845703125,-7251,6051,-512,0,0,106
943596762,-0.12774658203125,0.3455810546875,-0.6273193359375,-0.6861572265625,-7085,6140,-533,-1,0,109
943606742,-0.1187744140625,0.33770751953125,-0.63165283203125,-0.68768310546875,-6914,6226,-540,-2,1,109
943616726,-0.10992431640625,0.3299560546875,-0.6357421875,-0.68914794921875,-6752,6306,-560,-3,1,106
943626707,-0.1014404296875,0.32257080078125,-0.6395263671875,-0.6904296875,-6593,6399,-572,-4,1,101
943636691,-0.09332275390625,0.31561279296875,-0.64300537109375,-0.69158935546875,-6417,6480,-584,-4,2,95
943646670,-0.0855712890625,0.3089599609375,-0.6461181640625,-0.69268798828125,-6246,6533,-589,-5,1,92
943656662,-0.07794189453125,0.3023681640625,-0.64910888671875,-0.69366455078125,-6105,6568,-598,-5,2,91
943666646,-0.070068359375,0.29571533203125,-0.65203857421875,-0.69464111328125,-5957,6623,-613,-6,2,94
943676629,-0.06207275390625,0.28875732421875,-0.65496826171875,-0.69561767578125,-5800,6669,-604,-6,2,96
943686619,-0.0537109375,0.28155517578125,-0.65789794921875,-0.696533203125,-5615,6717,-605,-6,2,99
943696600,-0.04522705078125,0.2740478515625,-0.6607666015625,-0.69732666015625,-5443,6753,-610,-6,2,101
943706582,-0.03668212890625,0.2666015625,-0.66363525390625,-0.69805908203125,-5264,6794,-624,-6,2,101
943716553,-0.0281982421875,0.2591552734375,-0.66632080078125,-0.6986083984375,-5052,6856,-624,-6,2,99
943726536,-0.01971435546875,0.251708984375,-0.6689453125,-0.69915771484375,-4837,6897,-601,-6,2,99
943736518,-0.01123046875,0.24432373046875,-0.6715087890625,-0.69952392578125,-4626,6931,-607,-6,3,99
943746502,-0.00262451171875,0.23687744140625,-0.67401123046875,-0.69976806640625,-4417,6957,-620,-6,3,100
943756483,0.00604248046875,0.22943115234375,-0.6763916015625,-0.69989013671875,-4214,6960,-608,-5,4,100
943766467,0.01470947265625,0.2220458984375,-0.67877197265625,-0.69989013671875,-4016,6949,-611,-5,5,99
943776450,0.02313232421875,0.2149658203125,-0.6810302734375,-0.69964599609375,-3844,6957,-609,-4,5,96
943786432,0.03118896484375,0.208251953125,-0.68316650390625,-0.69927978515625,-3682,6985,-607,-3,6,91
943796419,0.03875732421875,0.20208740234375,-0.68524169921875,-0.69873046875,-3539,7002,-623,-2,7,85
943806408,0.04595947265625,0.19635009765625,-0.68719482421875,-0.697998046875,-3378,7027,-621,0,8,81
943816385,0.05291748046875,0.19085693359375,-0.68914794921875,-0.69708251953125,-3233,7043,-642,1,8,79
943826364,0.05999755859375,0.18536376953125,-0.69122314453125,-0.6959228515625,-3050,7047,-651,3,9,80
943836348,0.06732177734375,0.17962646484375,-0.69342041015625,-0.694580078125,-2908,7036,-657,4,9,84
943846332,0.0750732421875,0.17352294921875,-0.69580078125,-0.69293212890625,-2757,7031,-665,6,10,90
943856312,0.083251953125,0.16705322265625,-0.69830322265625,-0.69110107421875,-2601,7053,-664,7,10,93
943866302,0.091552734375,0.16046142578125,-0.70086669921875,-0.68902587890625,-2462,7087,-679,9,11,95
943876278,0.09979248046875,0.15399169921875,-0.703369140625,-0.686767578125,-2256,7120,-648,9,12,93
943886262,0.10809326171875,0.14764404296875,-0.705810546875,-0.6844482421875,-2031,7132,-621,10,13,91
943896246,0.11627197265625,0.1416015625,-0.7081298828125,-0.68194580078125,-1775,7133,-599,11,14,89
943906226,0.12451171875,0.13580322265625,-0.7103271484375,-0.67938232421875,-1520,7116,-565,11,16,86
943916211,0.1324462890625,0.13043212890625,-0.71240234375,-0.6767578125,-1312,7086,-542,11,17,82
943926194,0.1400146484375,0.125732421875,-0.7142333984375,-0.6741943359375,-1096,7073,-520,11,19,75
943936186,0.14727783203125,0.12158203125,-0.71588134765625,-0.671630859375,-901,7052,-477,11,20,70
943946170,0.15460205078125,0.1175537109375,-0.7174072265625,-0.6690673828125,-694,6997,-448,11,21,70
943956147,0.16229248046875,0.11328125,-0.71881103515625,-0.66650390625,-493,6962,-396,10,22,75
943966132,0.170654296875,0.10833740234375,-0.72015380859375,-0.66375732421875,-284,6911,-341,9,23,83
943976114,0.1796875,0.10272216796875,-0.7213134765625,-0.6610107421875,-49,6828,-291,7,23,89
943986097,0.1890869140625,0.0968017578125,-0.72235107421875,-0.65814208984375,193,6731,-228,6,24,92
943996079,0.198486328125,0.09075927734375,-0.72308349609375,-0.6553955078125,462,6585,-168,4,24,90
944006062,0.2076416015625,0.08489990234375,-0.72357177734375,-0.65283203125,774,6392,-91,2,23,86
944016042,0.2164306640625,0.079345703125,-0.72369384765625,-0.6505126953125,1107,6106,-6,0,23,79
944026025,0.2247314453125,0.07415771484375,-0.7235107421875,-0.6485595703125,1454,5754,83,-3,22,72
944036006,0.2325439453125,0.06927490234375,-0.72296142578125,-0.64691162109375,1815,5334,170,-5,21,65
944045987,0.23968505859375,0.06488037109375,-0.72216796875,-0.64569091796875,2157,4849,266,-8,19,56
944055969,0.2459716796875,0.06103515625,-0.7210693359375,-0.6448974609375,2465,4297,348,-10,17,44
944065952,0.25103759765625,0.05810546875,-0.71978759765625,-0.64471435546875,2706,3754,423,-12,15,30
944075934,0.25439453125,0.0565185546875,-0.71826171875,-0.64520263671875,2865,3236,495,-14,12,9
944085915,0.25567626953125,0.0567626953125,-0.71661376953125,-0.646484375,2901,2751,548,-15,9,-15
944095895,0.25457763671875,0.05889892578125,-0.71484375,-0.648681640625,2846,2287,598,-15,5,-40
944105877,0.25115966796875,0.06298828125,-0.7130126953125,-0.651611328125,2736,1878,606,-14,1,-64
944115858,0.24542236328125,0.0687255859375,-0.71124267578125,-0.6551513671875,2548,1539,624,-13,-4,-86
944125847,0.23779296875,0.07568359375,-0.70953369140625,-0.6590576171875,2362,1296,631,-11,-8,-102
944135829,0.2286376953125,0.08355712890625,-0.7078857421875,-0.66314697265625,2160,1147,659,-9,-12,-114
944145815,0.21832275390625,0.09210205078125,-0.706298828125,-0.6671142578125,1977,1109,682,-6,-15,-122
944155793,0.2071533203125,0.10107421875,-0.70477294921875,-0.67095947265625,1809,1180,716,-3,-17,-128
944165780,0.19525146484375,0.11053466796875,-0.703369140625,-0.674560546875,1656,1372,738,1,-18,-134
944175761,0.18292236328125,0.1204833984375,-0.70196533203125,-0.677734375,1515,1647,749,4,-17,-137
944185742,0.1702880859375,0.130859375,-0.7005615234375,-0.68060302734375,1309,2013,769,7,-16,-139
944195725,0.1573486328125,0.14178466796875,-0.69903564453125,-0.68304443359375,1087,2456,766,10,-14,-144
944205706,0.14398193359375,0.15350341796875,-0.69732666015625,-0.68524169921875,844,2978,747,12,-11,-151
944215690,0.13006591796875,0.16607666015625,-0.69537353515625,-0.68701171875,545,3535,707,14,-9,-158
944225670,0.1156005859375,0.1795654296875,-0.693115234375,-0.6884765625,205,4102,660,16,-6,-164
944235662,0.1009521484375,0.19354248046875,-0.6905517578125,-0.6895751953125,-214,4649,616,17,-3,-166
944245644,0.08642578125,0.2076416015625,-0.6878662109375,-0.690185546875,-695,5182,545,18,-1,-163
944255630,0.0726318359375,0.22119140625,-0.68505859375,-0.6903076171875,-1214,5679,483,18,1,-153
944265617,0.05987548828125,0.2337646484375,-0.682373046875,-0.6900634765625,-1782,6128,418,18,2,-140
944275601,0.048095703125,0.24530029296875,-0.6798095703125,-0.68951416015625,-2345,6555,304,18,2,-128
944285585,0.0367431640625,0.256103515625,-0.67724609375,-0.6888427734375,-2927,6915,184,17,1,-122
944295564,0.0252685546875,0.266845703125,-0.6744384765625,-0.68798828125,-3529,7195,51,16,-1,-123
944305536,0.01318359375,0.27777099609375,-0.67138671875,-0.68701171875,-4045,7419,-105,17,-3,-128
944315520,0.00079345703125,0.28851318359375,-0.668212890625,-0.68585205078125,-4537,7540,-234,17,-5,-128
944325502,-0.011474609375,0.2987060546875,-0.6649169921875,-0.68450927734375,-5067,7596,-328,18,-7,-121
944335486,-0.0233154296875,0.3079833984375,-0.661865234375,-0.68310546875,-5551,7618,-442,18,-10,-112
944345475,-0.0345458984375,0.3160400390625,-0.6590576171875,-0.681640625,-5937,7635,-547,18,-13,-102
944355452,-0.0452880859375,0.32305908203125,-0.65643310546875,-0.6802978515625,-6268,7628,-628,18,-17,-95
944365435,-0.05615234375,0.32952880859375,-0.65380859375,-0.67889404296875,-6536,7625,-746,18,-21,-94
944375420,-0.0673828125,0.33587646484375,-0.65106201171875,-0.6773681640625,-6666,7613,-825,19,-23,-99
944385406,-0.07891845703125,0.34210205078125,-0.648193359375,-0.67578125,-6746,7520,-872,20,-25,-100
944395382,-0.0902099609375,0.34783935546875,-0.64544677734375,-0.674072265625,-6861,7374,-883,21,-26,-94
944405366,-0.1009521484375,0.35284423828125,-0.64300537109375,-0.6722412109375,-6954,7268,-897,22,-26,-86
944415348,-0.1109619140625,0.35711669921875,-0.640869140625,-0.67047119140625,-7019,7193,-925,22,-27,-79
944425330,-0.12060546875,0.36102294921875,-0.63885498046875,-0.66864013671875,-7086,7159,-953,22,-27,-77
944435314,-0.13055419921875,0.364990234375,-0.63653564453125,-0.666748046875,-7154,7156,-997,21,-28,-82
944445302,-0.14105224609375,0.36962890625,-0.6337890625,-0.6646728515625,-7199,7136,-1029,21,-28,-92
944455280,-0.15203857421875,0.374755859375,-0.63067626953125,-0.66241455078125,-7146,7126,-1048,21,-27,-98
944465262,-0.1627197265625,0.37969970703125,-0.62750244140625,-0.6600341796875,-7076,7030,-1020,21,-26,-95
944475243,-0.17242431640625,0.38397216796875,-0.6246337890625,-0.6578369140625,-7076,6873,-978,19,-24,-83
944485228,-0.1807861328125,0.38720703125,-0.62237548828125,-0.65582275390625,-7081,6761,-937,18,-23,-67
944495210,-0.1878662109375,0.38958740234375,-0.62054443359375,-0.6541748046875,-7175,6697,-931,16,-21,-57
944505190,-0.19451904296875,0.39190673828125,-0.61871337890625,-0.652587890625,-7316,6679,-944,14,-21,-56
944515182,-0.20147705078125,0.39471435546875,-0.616455078125,-0.65087890625,-7414,6658,-981,13,-19,-65
944525164,-0.2091064453125,0.3984375,-0.61358642578125,-0.64886474609375,-7533,6616,-1021,12,-19,-76
944535143,-0.21728515625,0.40283203125,-0.6102294921875,-0.64666748046875,-7575,6557,-1039,11,-18,-83
944545125,-0.225341796875,0.4073486328125,-0.6068115234375,-0.64434814453125,-7604,6439,-1030,10,-16,-82
944555109,-0.232666015625,0.4114990234375,-0.603515625,-0.64215087890625,-7682,6269,-1014,9,-14,-73
944565092,-0.239013671875,0.4150390625,-0.6007080078125,-0.64019775390625,-7725,6125,-998,8,-13,-62
944575074,-0.2442626953125,0.4178466796875,-0.59832763671875,-0.63861083984375,-7758,6017,-991,7,-11,-52
944585059,-0.2489013671875,0.42034912109375,-0.59619140625,-0.63714599609375,-7818,5918,-1015,5,-11,-48
944595040,-0.2535400390625,0.42303466796875,-0.5938720703125,-0.6357421875,-7875,5817,-1023,4,-10,-51
944605022,-0.258544921875,0.42608642578125,-0.59112548828125,-0.6341552734375,-8033,5684,-1060,3,-11,-56
944615006,-0.26416015625,0.42974853515625,-0.5880126953125,-0.63232421875,-8194,5549,-1106,3,-11,-64
944624989,-0.27020263671875,0.433837890625,-0.58453369140625,-0.63018798828125,-8359,5383,-1135,3,-11,-69
944634971,-0.276611328125,0.4381103515625,-0.580810546875,-0.62786865234375,-8566,5205,-1164,4,-12,-72
944644956,-0.28326416015625,0.44244384765625,-0.57696533203125,-0.62542724609375,-8707,5042,-1174,5,-12,-73
944654938,-0.28973388671875,0.4464111328125,-0.5732421875,-0.623046875,-8777,4888,-1165,5,-13,-70
944664919,-0.29595947265625,0.44989013671875,-0.56976318359375,-0.62091064453125,-8777,4733,-1139,6,-15,-64
944674903,-0.30157470703125,0.4525146484375,-0.56671142578125,-0.6190185546875,-8689,4584,-1092,6,-16,-55
944684885,-0.30645751953125,0.45428466796875,-0.564208984375,-0.61761474609375,-8557,4439,-1052,6,-18,-44
944694873,-0.31060791015625,0.45513916015625,-0.562255859375,-0.61663818359375,-8408,4321,-991,7,-18,-34
944704857,-0.31414794921875,0.45538330078125,-0.560791015625,-0.61602783203125,-8262,4233,-909,7,-18,-27
944714839,-0.3173828125,0.455322265625,-0.5594482421875,-0.61566162109375,-8110,4161,-837,7,-19,-24
944724821,-0.32061767578125,0.45526123046875,-0.55810546875,-0.615234375,-7920,4109,-768,7,-19,-26
944734799,-0.3240966796875,0.4554443359375,-0.5565185546875,-0.61474609375,-7710,4084,-702,6,-19,-31
944744782,-0.327880859375,0.45599365234375,-0.55462646484375,-0.614013671875,-7473,4047,-620,6,-18,-36
944754765,-0.331787109375,0.45684814453125,-0.55242919921875,-0.61328125,-7251,3983,-519,4,-18,-39
944764748,-0.3358154296875,0.45794677734375,-0.54998779296875,-0.6124267578125,-7074,3904,-431,3,-17,-41
944774730,-0.3397216796875,0.45916748046875,-0.54742431640625,-0.61163330078125,-6962,3836,-344,1,-15,-42
944784710,-0.343505859375,0.46063232421875,-0.5447998046875,-0.61077880859375,-6989,3772,-282,0,-14,-42
944794692,-0.34722900390625,0.46240234375,-0.5419921875,-0.60986328125,-7073,3726,-226,-1,-12,-44
944804670,-0.35101318359375,0.4644775390625,-0.5389404296875,-0.6087646484375,-7153,3671,-185,-3,-11,-47
944814663,-0.35467529296875,0.466796875,-0.53582763671875,-0.607666015625,-7212,3606,-149,-4,-10,-48
944824645,-0.35809326171875,0.4691162109375,-0.53265380859375,-0.606689453125,-7217,3533,-89,-6,-9,-46
944834629,-0.3609619140625,0.4713134765625,-0.52960205078125,-0.60589599609375,-7166,3457,-40,-8,-7,-40
944844616,-0.363037109375,0.4730224609375,-0.5269775390625,-0.60565185546875,-7067,3374,26,-10,-7,-31
944854599,-0.36407470703125,0.47418212890625,-0.5247802734375,-0.60601806640625,-7031,3263,49,-13,-6,-19
944864583,-0.3642578125,0.47503662109375,-0.52301025390625,-0.60675048828125,-7053,3172,44,-14,-5,-11
944874553,-0.36395263671875,0.47576904296875,-0.52142333984375,-0.60772705078125,-7081,3125,35,-16,-3,-8
944884533,-0.36346435546875,0.47686767578125,-0.519775390625,-0.608642578125,-7189,3082,-6,-18,-2,-10
944894521,-0.3631591796875,0.47845458984375,-0.51776123046875,-0.6092529296875,-7354,3046,-32,-20,0,-16
944904501,-0.36334228515625,0.480712890625,-0.51519775390625,-0.60955810546875,-7537,3001,-32,-21,2,-25
944914484,-0.36395263671875,0.4837646484375,-0.5120849609375,-0.609375,-7767,2947,-21,-22,4,-33
944924467,-0.364990234375,0.487548828125,-0.50836181640625,-0.60882568359375,-8083,2863,-3,-24,6,-41
944934450,-0.36651611328125,0.49212646484375,-0.50408935546875,-0.6077880859375,-8572,2808,-7,-25,8,-50
944944432,-0.36865234375,0.49737548828125,-0.49920654296875,-0.60626220703125,-9148,2768,-26,-26,8,-60
944954419,-0.3714599609375,0.5032958984375,-0.49371337890625,-0.60418701171875,-9724,2718,-85,-26,8,-70
944964404,-0.37481689453125,0.5096435546875,-0.4876708984375,-0.6016845703125,-10341,2662,-179,-25,8,-77
944974381,-0.3785400390625,0.5159912109375,-0.48138427734375,-0.59893798828125,-11003,2581,-287,-25,5,-79
944984364,-0.38232421875,0.52203369140625,-0.4752197265625,-0.59625244140625,-11615,2491,-387,-23,3,-76
944994348,-0.3858642578125,0.5272216796875,-0.4696044921875,-0.5938720703125,-12160,2410,-497,-20,0,-67
945004332,-0.38873291015625,0.53118896484375,-0.46490478515625,-0.59210205078125,-12604,2369,-562,-16,-4,-52
945014312,-0.39056396484375,0.5335693359375,-0.46160888671875,-0.59136962890625,-12913,2392,-573,-13,-7,-31
945024294,-0.3909912109375,0.5340576171875,-0.4599609375,-0.5919189453125,-13083,2476,-525,-9,-10,-7
945034280,-0.389892578125,0.53271484375,-0.460205078125,-0.59368896484375,-13098,2626,-444,-6,-12,19
945044259,-0.3870849609375,0.5294189453125,-0.4622802734375,-0.59686279296875,-12947,2861,-309,-4,-14,45
945054244,-0.382568359375,0.5244140625,-0.46612548828125,-0.60113525390625,-12633,3163,-148,-1,-14,69
945064231,-0.37652587890625,0.51806640625,-0.471435546875,-0.6063232421875,-12277,3520,19,0,-13,88
945074213,-0.3692626953125,0.5107421875,-0.47772216796875,-0.612060546875,-11876,3905,181,1,-12,101
945084192,-0.36126708984375,0.50311279296875,-0.4844970703125,-0.6177978515625,-11437,4336,319,1,-9,105
945094184,-0.35296630859375,0.49560546875,-0.49127197265625,-0.623291015625,-10989,4724,415,0,-6,103
945104166,-0.3446044921875,0.48846435546875,-0.49786376953125,-0.62835693359375,-10567,5023,489,-1,-2,100
945114147,-0.3363037109375,0.48187255859375,-0.504150390625,-0.6329345703125,-10165,5219,512,-1,1,95
945124126,-0.3280029296875,0.47564697265625,-0.51025390625,-0.63714599609375,-9811,5317,518,-2,4,94
945134108,-0.31939697265625,0.46954345703125,-0.516357421875,-0.64105224609375,-9474,5359,522,-2,7,96
945144090,-0.31036376953125,0.46343994140625,-0.5225830078125,-0.6448974609375,-9112,5347,510,-3,8,101
945154073,-0.3006591796875,0.45697021484375,-0.52911376953125,-0.64874267578125,-8792,5301,512,-3,11,108
945164059,-0.2901611328125,0.4501953125,-0.535888671875,-0.6527099609375,-8526,5235,516,-3,13,117
945174040,-0.279052734375,0.4429931640625,-0.54296875,-0.6566162109375,-8284,5138,507,-4,14,124
945184025,-0.267578125,0.4356689453125,-0.550048828125,-0.660400390625,-8054,5016,482,-4,15,126
945194007,-0.25604248046875,0.4283447265625,-0.55694580078125,-0.6639404296875,-7840,4882,449,-3,15,126
945203987,-0.244873046875,0.421142578125,-0.5635986328125,-0.66717529296875,-7656,4751,413,-3,15,122
945213969,-0.2342529296875,0.41436767578125,-0.56982421875,-0.669921875,-7536,4630,359,-2,15,115
945223956,-0.224365234375,0.407958984375,-0.57562255859375,-0.67230224609375,-7437,4547,293,0,14,109
945233936,-0.215087890625,0.40179443359375,-0.5810546875,-0.67437744140625,-7366,4464,245,0,12,104
945243920,-0.20623779296875,0.3956298828125,-0.58624267578125,-0.67626953125,-7290,4417,194,1,10,102
945253902,-0.19757080078125,0.3892822265625,-0.59130859375,-0.6781005859375,-7224,4386,154,2,8,103
945263887,-0.18902587890625,0.382568359375,-0.5963134765625,-0.67999267578125,-7173,4382,125,2,6,104
945273873,-0.1805419921875,0.37548828125,-0.60125732421875,-0.681884765625,-7088,4411,98,2,3,106
945283858,-0.172119140625,0.3680419921875,-0.60614013671875,-0.68377685546875,-7010,4468,51,3,0,107
945293841,-0.163818359375,0.3603515625,-0.6109619140625,-0.6856689453125,-6846,4552,16,3,-2,107
945303823,-0.15557861328125,0.3524169921875,-0.6156005859375,-0.6875,-6670,4671,-16,2,-4,107
945313798,-0.1474609375,0.344482421875,-0.6201171875,-0.6893310546875,-6477,4826,-15,2,-4,104
945323781,-0.1395263671875,0.3365478515625,-0.62432861328125,-0.6910400390625,-6240,5006,-26,2,-5,101
945333763,-0.1317138671875,0.3287353515625,-0.6282958984375,-0.6927490234375,-6033,5199,-25,0,-5,99
945343747,-0.12408447265625,0.32110595703125,-0.63189697265625,-0.6944580078125,-5863,5391,-39,-1,-5,96
945353727,-0.11651611328125,0.31365966796875,-0.63525390625,-0.69610595703125,-5737,5581,-50,-3,-5,94
945363711,-0.1090087890625,0.3062744140625,-0.63836669921875,-0.69775390625,-5615,5767,-44,-4,-5,93
945373693,-0.1014404296875,0.2989501953125,-0.64129638671875,-0.69940185546875,-5487,5935,-57,-5,-4,93
945383680,-0.09368896484375,0.29156494140625,-0.64404296875,-0.7010498046875,-5357,6108,-69,-7,-4,94
945393664,-0.085693359375,0.28411865234375,-0.64666748046875,-0.7027587890625,-5263,6270,-72,-8,-3,96
945403648,-0.07733154296875,0.27642822265625,-0.649169921875,-0.7044677734375,-5199,6437,-51,-10,-3,99
945413631,-0.06866455078125,0.2685546875,-0.6514892578125,-0.70623779296875,-5125,6613,-43,-12,-3,102
945423619,-0.0596923828125,0.26055908203125,-0.65362548828125,-0.70806884765625,-5067,6760,-35,-14,-2,105
945433602,-0.0506591796875,0.25244140625,-0.655517578125,-0.7099609375,-5003,6905,-45,-16,-2,105
945443584,-0.0416259765625,0.244384765625,-0.6571044921875,-0.7119140625,-4898,7014,-43,-18,-3,104
945453561,-0.03289794921875,0.2364501953125,-0.658447265625,-0.71380615234375,-4814,7101,-50,-19,-3,101
945463537,-0.02435302734375,0.22869873046875,-0.659423828125,-0.71575927734375,-4708,7164,-48,-21,-4,99
945473521,-0.0159912109375,0.220947265625,-0.66021728515625,-0.71771240234375,-4634,7211,-44,-22,-5,98
945483505,-0.00787353515625,0.21331787109375,-0.66070556640625,-0.7197265625,-4615,7267,-28,-23,-6,97
945493485,-0.00018310546875,0.205810546875,-0.66094970703125,-0.7216796875,-4543,7329,-17,-24,-7,93
945503475,0.00714111328125,0.198486328125,-0.6610107421875,-0.72369384765625,-4449,7348,-8,-25,-8,89
945513455,0.01409912109375,0.19134521484375,-0.660888671875,-0.7255859375,-4313,7344,6,-25,-9,86
945523438,0.0208740234375,0.1842041015625,-0.66064453125,-0.72747802734375,-4152,7330,32,-25,-10,85
945533422,0.027587890625,0.17694091796875,-0.660400390625,-0.72930908203125,-3965,7298,80,-24,-11,86
945543410,0.03466796875,0.16925048828125,-0.66009521484375,-0.7310791015625,-3734,7271,136,-24,-12,90
945553386,0.0421142578125,0.16119384765625,-0.65985107421875,-0.73272705078125,-3493,7222,202,-24,-12,94
945563370,0.04986572265625,0.15289306640625,-0.65960693359375,-0.7342529296875,-3223,7174,279,-24,-11,96
945573352,0.05767822265625,0.14453125,-0.6593017578125,-0.73565673828125,-2955,7119,344,-23,-10,95
945583333,0.06524658203125,0.1365966796875,-0.658935546875,-0.73687744140625,-2702,7061,398,-22,-9,90
945593319,0.072265625,0.1292724609375,-0.65850830078125,-0.7379150390625,-2451,7005,444,-21,-8,83
945603302,0.0787353515625,0.12255859375,-0.657958984375,-0.7388916015625,-2218,6913,506,-20,-7,76
945613283,0.0845947265625,0.11651611328125,-0.6573486328125,-0.73974609375,-2034,6819,554,-18,-6,70
945623266,0.09014892578125,0.11090087890625,-0.65692138671875,-0.7403564453125,-1860,6722,594,-15,-5,66
945633248,0.09552001953125,0.10552978515625,-0.65655517578125,-0.74078369140625,-1678,6621,639,-13,-4,64
945643232,0.1009521484375,0.10028076171875,-0.6563720703125,-0.740966796875,-1491,6532,680,-10,-4,64
945653212,0.10638427734375,0.0950927734375,-0.6563720703125,-0.74090576171875,-1331,6463,736,-8,-3,64
945663195,0.11163330078125,0.090087890625,-0.65655517578125,-0.74053955078125,-1203,6436,786,-5,-3,61
945673183,0.11639404296875,0.08575439453125,-0.65692138671875,-0.739990234375,-1096,6440,825,-2,-2,55
945683171,0.1204833984375,0.08209228515625,-0.65753173828125,-0.7392578125,-1000,6440,854,2,-1,47
945693155,0.12408447265625,0.0789794921875,-0.6583251953125,-0.73828125,-869,6451,871,6,0,42
945703129,0.1275634765625,0.0760498046875,-0.65936279296875,-0.737060546875,-715,6438,895,9,0,41
945713112,0.1312255859375,0.0731201171875,-0.66070556640625,-0.73553466796875,-545,6443,905,12,1,43
945723095,0.13525390625,0.07000732421875,-0.66229248046875,-0.733642578125,-339,6447,904,15,2,46
945733077,0.13970947265625,0.06671142578125,-0.66412353515625,-0.7314453125,-92,6435,888,17,3,49
945743061,0.14447021484375,0.0633544921875,-0.6661376953125,-0.72900390625,154,6421,879,20,4,51
945753043,0.1495361328125,0.05987548828125,-0.66827392578125,-0.726318359375,440,6350,860,22,6,52
945763026,0.15484619140625,0.05633544921875,-0.6705322265625,-0.723388671875,742,6258,837,23,7,53
945773012,0.160400390625,0.0528564453125,-0.67279052734375,-0.72039794921875,1025,6180,825,23,8,53
945782995,0.16583251953125,0.04962158203125,-0.67498779296875,-0.71728515625,1335,6090,799,24,10,49
945792977,0.17095947265625,0.046875,-0.67706298828125,-0.71435546875,1664,5946,773,23,10,42
945802959,0.17547607421875,0.04486083984375,-0.6790771484375,-0.71142578125,1988,5778,728,24,12,33
945812942,0.179443359375,0.04351806640625,-0.680908203125,-0.708740234375,2307,5570,685,22,13,25
945822925,0.18292236328125,0.0426025390625,-0.6826171875,-0.706298828125,2610,5305,638,21,13,18
945832907,0.18621826171875,0.04205322265625,-0.68414306640625,-0.7039794921875,2876,4993,573,20,13,15
945842890,0.1895751953125,0.041259765625,-0.685546875,-0.7017822265625,3104,4671,533,18,13,17
945852873,0.19317626953125,0.04010009765625,-0.686767578125,-0.69964599609375,3323,4367,517,16,13,19
945862862,0.19677734375,0.03875732421875,-0.687744140625,-0.69775390625,3465,4084,528,13,11,18
945872843,0.19976806640625,0.037841796875,-0.68841552734375,-0.69622802734375,3554,3884,554,11,10,10
945882825,0.20147705078125,0.0380859375,-0.6888427734375,-0.6953125,3591,3717,579,8,10,-6
945892796,0.2012939453125,0.03997802734375,-0.68896484375,-0.6951904296875,3554,3601,590,6,9,-29
945902781,0.19891357421875,0.0438232421875,-0.6888427734375,-0.69573974609375,3456,3523,609,4,8,-52
945912763,0.19464111328125,0.0494384765625,-0.68841552734375,-0.69696044921875,3278,3470,630,3,7,-72
945922747,0.18878173828125,0.05645751953125,-0.68780517578125,-0.69866943359375,3037,3445,660,2,7,-88
945932729,0.18170166015625,0.064453125,-0.68707275390625,-0.70062255859375,2736,3477,657,2,5,-97
945942717,0.173828125,0.072998046875,-0.68621826171875,-0.70257568359375,2412,3586,659,2,4,-103
945952696,0.16534423828125,0.08184814453125,-0.68524169921875,-0.70458984375,2083,3759,653,3,3,-107
945962681,0.15643310546875,0.091064453125,-0.68426513671875,-0.7064208984375,1743,3966,667,4,2,-110
945972669,0.1470947265625,0.10040283203125,-0.68328857421875,-0.70819091796875,1440,4214,665,5,2,-112
945982651,0.13763427734375,0.10992431640625,-0.6822509765625,-0.70965576171875,1141,4500,666,6,1,-112
945992634,0.1280517578125,0.11956787109375,-0.68115234375,-0.7109375,858,4809,685,8,3,-113
946002613,0.118408203125,0.12945556640625,-0.6800537109375,-0.7119140625,525,5149,690,9,3,-114
946012604,0.10858154296875,0.13970947265625,-0.6788330078125,-0.71270751953125,147,5511,672,10,5,-116
946022588,0.0985107421875,0.15032958984375,-0.677490234375,-0.71331787109375,-224,5854,661,11,7,-119
946032564,0.0882568359375,0.16131591796875,-0.676025390625,-0.713623046875,-585,6183,611,12,8,-121
946042542,0.07794189453125,0.1724853515625,-0.6744384765625,-0.71368408203125,-942,6489,556,13,9,-121
946052524,0.06781005859375,0.1834716796875,-0.6728515625,-0.7135009765625,-1298,6747,498,13,10,-118
946062506,0.058349609375,0.19403076171875,-0.67132568359375,-0.7130126953125,-1703,6973,436,14,11,-110
946072489,0.04962158203125,0.2039794921875,-0.66986083984375,-0.71221923828125,-2157,7160,387,14,12,-100
946082475,0.04168701171875,0.2132568359375,-0.6685791015625,-0.71124267578125,-2591,7336,314,15,12,-91
946092455,0.03424072265625,0.221923828125,-0.66754150390625,-0.7099609375,-2996,7490,199,15,11,-84
946102437,0.0269775390625,0.2301025390625,-0.66644287109375,-0.70867919921875,-3317,7614,85,15,10,-82
946112420,0.0196533203125,0.23822021484375,-0.66534423828125,-0.70733642578125,-3582,7700,-29,15,9,-83
946122407,0.01202392578125,0.246337890625,-0.66412353515625,-0.70587158203125,-3837,7744,-120,15,7,-85
946132384,0.004150390625,0.25439453125,-0.66278076171875,-0.704345703125,-4138,7747,-167,16,6,-86
946142368,-0.0037841796875,0.262451171875,-0.661376953125,-0.70269775390625,-4506,7724,-236,16,6,-84
946152353,-0.0118408203125,0.2703857421875,-0.65997314453125,-0.700927734375,-4827,7742,-342,16,4,-84
946162336,-0.02001953125,0.27813720703125,-0.65850830078125,-0.6990966796875,-5052,7745,-438,16,2,-85
946172318,-0.02838134765625,0.28564453125,-0.6568603515625,-0.697265625,-5213,7717,-525,16,0,-86
946182302,-0.03692626953125,0.2928466796875,-0.65521240234375,-0.6954345703125,-5368,7676,-619,16,-3,-85
946192282,-0.04541015625,0.2996826171875,-0.65350341796875,-0.693603515625,-5545,7643,-681,16,-5,-83
946202265,-0.053955078125,0.30615234375,-0.65167236328125,-0.69189453125,-5728,7629,-715,15,-7,-81
946212248,-0.06219482421875,0.312255859375,-0.64990234375,-0.69012451171875,-5921,7571,-720,15,-7,-78
946222231,-0.07025146484375,0.3179931640625,-0.64813232421875,-0.68841552734375,-6101,7542,-738,15,-9,-74
946232214,-0.07818603515625,0.3233642578125,-0.64630126953125,-0.68682861328125,-6162,7527,-769,14,-10,-74
946242193,-0.08612060546875,0.3287353515625,-0.644287109375,-0.6851806640625,-6218,7524,-802,13,-11,-76
946252186,-0.09454345703125,0.3343505859375,-0.64190673828125,-0.68359375,-6242,7536,-816,12,-11,-83
946262166,-0.10333251953125,0.34033203125,-0.63916015625,-0.68194580078125,-6229,7506,-819,11,-12,-89
946272145,-0.11224365234375,0.346435546875,-0.63616943359375,-0.6802978515625,-6232,7438,-831,10,-11,-90
946282129,-0.12066650390625,0.35223388671875,-0.6331787109375,-0.67864990234375,-6196,7358,-792,9,-11,-85
946292109,-0.1282958984375,0.357421875,-0.63031005859375,-0.67718505859375,-6240,7216,-729,8,-10,-76
946302094,-0.13507080078125,0.36199951171875,-0.62774658203125,-0.67584228515625,-6343,7101,-704,6,-9,-67
946312077,-0.14117431640625,0.3662109375,-0.625244140625,-0.67462158203125,-6380,7035,-682,5,-8,-62
946322059,-0.14703369140625,0.37017822265625,-0.62261962890625,-0.673583984375,-6466,6983,-666,3,-8,-62
946332042,-0.15325927734375,0.3746337890625,-0.61968994140625,-0.6724853515625,-6587,6953,-675,1,-9,-68
946342021,-0.159912109375,0.37957763671875,-0.61627197265625,-0.67132568359375,-6596,6929,-650,0,-8,-77
946352004,-0.1669921875,0.38494873046875,-0.61236572265625,-0.67010498046875,-6619,6832,-640,-1,-8,-81
946361985,-0.17401123046875,0.39044189453125,-0.6082763671875,-0.6688232421875,-6640,6690,-619,-3,-8,-81
946371968,-0.18060302734375,0.39556884765625,-0.604248046875,-0.667724609375,-6612,6529,-581,-4,-8,-76
946381951,-0.18646240234375,0.40020751953125,-0.60040283203125,-0.6668701171875,-6652,6342,-524,-5,-7,-68
946391935,-0.1917724609375,0.4044189453125,-0.5966796875,-0.6661376953125,-6753,6166,-486,-7,-7,-62
946401916,-0.19671630859375,0.40838623046875,-0.593017578125,-0.66552734375,-6838,6013,-447,-8,-7,-59
946411900,-0.2017822265625,0.41253662109375,-0.589111328125,-0.6649169921875,-6964,5889,-437,-9,-7,-63
946421883,-0.20733642578125,0.41717529296875,-0.5848388671875,-0.66412353515625,-7052,5776,-435,-9,-7,-71
946431860,-0.213623046875,0.42236328125,-0.58001708984375,-0.6630859375,-7119,5670,-419,-9,-7,-80
946441854,-0.220458984375,0.427978515625,-0.57470703125,-0.66180419921875,-7179,5538,-420,-10,-8,-87
946451836,-0.2276611328125,0.433837890625,-0.569091796875,-0.660400390625,-7198,5377,-388,-10,-9,-90
946461818,-0.23480224609375,0.4395751953125,-0.56341552734375,-0.65899658203125,-7310,5217,-360,-10,-9,-88
946471796,-0.24169921875,0.44512939453125,-0.55767822265625,-0.65765380859375,-7426,5072,-333,-11,-9,-86
946481778,-0.24847412109375,0.450439453125,-0.552001953125,-0.65631103515625,-7536,4935,-282,-11,-9,-84
946491762,-0.25518798828125,0.4556884765625,-0.5462646484375,-0.6549072265625,-7690,4798,-267,-11,-9,-84
946501744,-0.2620849609375,0.461181640625,-0.54022216796875,-0.6533203125,-7835,4666,-246,-12,-9,-89
946511726,-0.2694091796875,0.46697998046875,-0.53375244140625,-0.65155029296875,-7988,4526,-214,-12,-9,-95
946521717,-0.27728271484375,0.47320556640625,-0.52691650390625,-0.64935302734375,-8121,4375,-200,-11,-9,-102
946531692,-0.2855224609375,0.47967529296875,-0.5196533203125,-0.6468505859375,-8186,4219,-177,-11,-9,-107
946541680,-0.29376220703125,0.48614501953125,-0.5123291015625,-0.6441650390625,-8204,4046,-159,-11,-9,-107
946551667,-0.30181884765625,0.49237060546875,-0.505126953125,-0.641357421875,-8176,3877,-129,-9,-8,-104
946561649,-0.309326171875,0.49810791015625,-0.498291015625,-0.638671875,-8171,3688,-93,-9,-8,-98
946571630,-0.31640625,0.50347900390625,-0.49169921875,-0.6361083984375,-8327,3479,-55,-9,-8,-92
946581611,-0.32330322265625,0.5086669921875,-0.4853515625,-0.63348388671875,-8539,3266,-38,-8,-7,-90
946591603,-0.33013916015625,0.513671875,-0.47906494140625,-0.63067626953125,-8745,3085,-49,-7,-7,-89
946601585,-0.33697509765625,0.5185546875,-0.47283935546875,-0.627685546875,-8930,2944,-43,-5,-8,-90
946611563,-0.3438720703125,0.52325439453125,-0.46673583984375,-0.6246337890625,-9037,2811,-35,-3,-8,-89
946621539,-0.3505859375,0.527587890625,-0.46087646484375,-0.62164306640625,-9072,2690,-22,-2,-8,-85
946631520,-0.35693359375,0.531494140625,-0.45538330078125,-0.61871337890625,-9105,2565,13,-1,-8,-80
946641510,-0.36273193359375,0.534912109375,-0.45037841796875,-0.615966796875,-9122,2430,26,0,-8,-73
946651490,-0.3681640625,0.53790283203125,-0.44586181640625,-0.61346435546875,-9108,2316,63,1,-8,-66
946661475,-0.373046875,0.54058837890625,-0.44183349609375,-0.611083984375,-9094,2208,79,2,-7,-61
946671455,-0.37774658203125,0.54302978515625,-0.43804931640625,-0.6087646484375,-9082,2099,121,2,-7,-59
946681437,-0.38232421875,0.54534912109375,-0.4344482421875,-0.60638427734375,-9044,2010,138,4,-6,-58
946691421,-0.38690185546875,0.54766845703125,-0.43096923828125,-0.6038818359375,-8982,1938,183,4,-5,-58
946701409,-0.39141845703125,0.54986572265625,-0.4276123046875,-0.60137939453125,-8897,1872,223,5,-4,-57
946711388,-0.39569091796875,0.55194091796875,-0.42449951171875,-0.598876953125,-8821,1804,262,5,-3,-54
946721370,-0.39959716796875,0.5538330078125,-0.421630859375,-0.59649658203125,-8738,1749,292,5,-3,-50
946734419,-0.40313720703125,0.5555419921875,-0.419189453125,-0.59429931640625,-8655,1705,322,6,-1,-45
946741339,-0.40625,0.55712890625,-0.41705322265625,-0.5921630859375,-8567,1681,342,5,0,-42
946751318,-0.40911865234375,0.55865478515625,-0.4151611328125,-0.590087890625,-8483,1658,362,5,1,-40
946761302,-0.41180419921875,0.560302734375,-0.41326904296875,-0.5880126953125,-8392,1632,393,4,3,-40
946771284,-0.41455078125,0.56219482421875,-0.4112548828125,-0.585693359375,-8302,1606,405,4,4,-43
946781265,-0.41741943359375,0.564453125,-0.4090576171875,-0.58306884765625,-8245,1556,392,3,6,-48
946791247,-0.42047119140625,0.567138671875,-0.40643310546875,-0.58001708984375,-8247,1481,353,2,8,-53
946801233,-0.42364501953125,0.5701904296875,-0.40362548828125,-0.57672119140625,-8246,1381,335,1,10,-56
946811213,-0.4266357421875,0.5733642578125,-0.400634765625,-0.5733642578125,-8231,1279,336,-1,11,-55
946821191,-0.4293212890625,0.57647705078125,-0.39788818359375,-0.5701904296875,-8239,1179,325,-2,12,-51
946831183,-0.43133544921875,0.57940673828125,-0.39544677734375,-0.56732177734375,-8245,1064,295,-4,12,-44
946841165,-0.4327392578125,0.58221435546875,-0.3934326171875,-0.5648193359375,-8257,969,263,-6,13,-38
946851141,-0.4334716796875,0.5848388671875,-0.391845703125,-0.5626220703125,-8267,885,233,-7,14,-31
946861124,-0.4337158203125,0.5872802734375,-0.3905029296875,-0.56085205078125,-8294,801,197,-9,14,-25
946871108,-0.43341064453125,0.58966064453125,-0.389404296875,-0.559326171875,-8337,712,178,-11,15,-21
946881088,-0.43280029296875,0.59197998046875,-0.38836669921875,-0.55804443359375,-8411,602,159,-13,15,-18
946891072,-0.431884765625,0.59429931640625,-0.38739013671875,-0.5570068359375,-8514,464,124,-15,15,-15
946901059,-0.43060302734375,0.59649658203125,-0.38653564453125,-0.55621337890625,-8625,324,73,-16,15,-11
946911038,-0.4290771484375,0.5986328125,-0.3857421875,-0.5556640625,-8726,187,17,-18,14,-7
946921019,-0.42724609375,0.6005859375,-0.38507080078125,-0.55548095703125,-8805,67,-28,-19,13,-4
946930999,-0.4251708984375,0.60235595703125,-0.38446044921875,-0.55548095703125,-8861,-24,-72,-20,11,-1
946940986,-0.4229736328125,0.60400390625,-0.3839111328125,-0.5557861328125,-8924,-91,-105,-21,10,1
946950968,-0.42071533203125,0.6055908203125,-0.38323974609375,-0.5562744140625,-8977,-191,-134,-22,9,2
946960951,-0.41845703125,0.6070556640625,-0.3824462890625,-0.556884765625,-9040,-279,-178,-22,7,2
946970933,-0.41632080078125,0.6085205078125,-0.381591796875,-0.55755615234375,-9085,-372,-214,-22,6,2
946980915,-0.414306640625,0.60980224609375,-0.3804931640625,-0.558349609375,-9122,-474,-262,-22,4,2
946990899,-0.41241455078125,0.61102294921875,-0.37933349609375,-0.5592041015625,-9134,-569,-293,-22,2,2
947000882,-0.4105224609375,0.61199951171875,-0.378173828125,-0.560302734375,-9116,-634,-333,-22,0,3
947010862,-0.4088134765625,0.61285400390625,-0.376953125,-0.56146240234375,-9079,-690,-343,-21,-2,4
947020852,-0.40716552734375,0.6134033203125,-0.375732421875,-0.5628662109375,-9025,-745,-362,-20,-4,4
947030835,-0.40570068359375,0.61383056640625,-0.37451171875,-0.5643310546875,-8963,-779,-368,-19,-7,5
947040818,-0.40435791015625,0.614013671875,-0.37322998046875,-0.56585693359375,-8904,-815,-352,-18,-8,5
947050795,-0.40313720703125,0.61407470703125,-0.3719482421875,-0.5675048828125,-8854,-843,-338,-17,-10,5
947060776,-0.40216064453125,0.61395263671875,-0.37054443359375,-0.5692138671875,-8782,-874,-313,-16,-11,4
947070759,-0.4013671875,0.61370849609375,-0.36920166015625,-0.57098388671875,-8691,-894,-284,-15,-13,4
947080742,-0.40069580078125,0.61322021484375,-0.36785888671875,-0.57281494140625,-8593,-891,-243,-14,-14,5
947090725,-0.400146484375,0.61260986328125,-0.3665771484375,-0.57470703125,-8500,-893,-218,-13,-15,5
947100710,-0.399658203125,0.61187744140625,-0.3653564453125,-0.57659912109375,-8417,-885,-187,-11,-16,5
947110694,-0.3994140625,0.61102294921875,-0.36407470703125,-0.57843017578125,-8348,-880,-167,-10,-17,3
