subject,Still with noise
arm,neither
label,0
hz,100.16987140692758
time,4.552267

timestamp_us,q0,q1,q2,q3,ax,ay,az,gx,gy,gz
91524063,0.61895751953125,0.34814453125,-0.61065673828125,-0.35040283203125,4208,7109,101,0,0,0
91534036,0.61895751953125,0.34814453125,-0.61065673828125,-0.35040283203125,4219,7111,96,-1,-1,0
91544024,0.61895751953125,0.34814453125,-0.61065673828125,-0.35040283203125,4222,7122,97,0,0,-1
91554002,0.61895751953125,0.34814453125,-0.61065673828125,-0.35040283203125,4217,7121,98,-1,-1,0
91563990,0.61895751953125,0.34814453125,-0.61065673828125,-0.35040283203125,4213,7114,90,0,0,0
91573970,0.61895751953125,0.34820556640625,-0.61065673828125,-0.350341796875,4221,7117,97,0,0,-1
91583951,0.61895751953125,0.34820556640625,-0.61065673828125,-0.350341796875,4232,7133,92,0,0,0
91593935,0.6190185546875,0.34814453125,-0.61065673828125,-0.350341796875,4240,7118,97,-1,-1,0
91603918,0.61895751953125,0.34814453125,-0.61065673828125,-0.350341796875,4231,7120,84,-1,-1,0
91613911,0.61895751953125,0.34814453125,-0.61065673828125,-0.350341796875,4221,7112,88,0,0,0
91623885,0.6190185546875,0.34820556640625,-0.61065673828125,-0.350341796875,4221,7114,103,-1,0,-1
91633873,0.6190185546875,0.34820556640625,-0.61065673828125,-0.350341796875,4224,7102,97,0,0,0
91643855,0.6190185546875,0.34820556640625,-0.610595703125,-0.350341796875,4221,7096,102,-1,0,-1
91653845,0.6190185546875,0.34820556640625,-0.610595703125,-0.350341796875,4226,7109,98,-1,0,0
91663827,0.6190185546875,0.34820556640625,-0.610595703125,-0.350341796875,4221,7126,96,-1,-1,0
91673806,0.6190185546875,0.3482666015625,-0.610595703125,-0.350341796875,4219,7123,89,0,0,-1
91683787,0.61895751953125,0.3482666015625,-0.610595703125,-0.35040283203125,4217,7126,88,-1,-1,0
91693774,0.61895751953125,0.3482666015625,-0.610595703125,-0.35040283203125,4220,7124,105,0,0,-1
91703754,0.61895751953125,0.3482666015625,-0.610595703125,-0.35040283203125,4220,7117,99,-1,-1,0
91713738,0.61895751953125,0.3482666015625,-0.610595703125,-0.350341796875,4217,7120,96,0,-1,-1
91723717,0.61895751953125,0.34832763671875,-0.610595703125,-0.350341796875,4210,7125,91,0,0,0
91733694,0.61895751953125,0.34832763671875,-0.610595703125,-0.350341796875,4223,7139,83,0,0,0
91743680,0.61895751953125,0.34832763671875,-0.610595703125,-0.350341796875,4217,7131,85,-1,-1,0
91753665,0.61895751953125,0.34832763671875,-0.610595703125,-0.350341796875,4226,7143,96,0,-1,0
91763660,0.61895751953125,0.34832763671875,-0.610595703125,-0.350341796875,4228,7143,105,0,0,0
91773634,0.6190185546875,0.34832763671875,-0.61053466796875,-0.350341796875,4235,7137,117,0,0,0
91783616,0.6190185546875,0.34832763671875,-0.61053466796875,-0.350341796875,4230,7132,116,0,0,-1
91793615,0.6190185546875,0.34832763671875,-0.61053466796875,-0.350341796875,4225,7126,100,0,-1,0
91803598,0.6190185546875,0.34832763671875,-0.61053466796875,-0.350341796875,4226,7133,103,-1,0,-1
91813570,0.6190185546875,0.34832763671875,-0.61053466796875,-0.350341796875,4225,7132,98,-1,-1,0
91823546,0.6190185546875,0.34832763671875,-0.61053466796875,-0.350341796875,4231,7129,98,0,-1,-1
91833540,0.6190185546875,0.34832763671875,-0.61053466796875,-0.350341796875,4225,7127,101,0,0,-1
91843516,0.6190185546875,0.34832763671875,-0.61053466796875,-0.350341796875,4241,7122,100,0,0,0
91853495,0.6190185546875,0.34832763671875,-0.61053466796875,-0.350341796875,4228,7129,107,-1,-1,0
91863480,0.6190185546875,0.34832763671875,-0.61053466796875,-0.350341796875,4228,7134,102,0,0,0
91873457,0.6190185546875,0.34832763671875,-0.61053466796875,-0.350341796875,4233,7137,114,-1,-1,0
91883447,0.6190185546875,0.34832763671875,-0.61053466796875,-0.350341796875,4232,7126,101,0,0,-1
91893428,0.6190185546875,0.34832763671875,-0.61053466796875,-0.350341796875,4228,7114,89,0,0,-1
91903413,0.6190185546875,0.348388671875,-0.61053466796875,-0.350341796875,4238,7111,87,0,-1,-1
91913409,0.6190185546875,0.348388671875,-0.61053466796875,-0.35028076171875,4242,7120,90,0,0,0
91923383,0.6190185546875,0.348388671875,-0.61053466796875,-0.35028076171875,4239,7131,98,0,-1,-1
91933358,0.6190185546875,0.348388671875,-0.61053466796875,-0.35028076171875,4236,7120,101,0,-1,0
91943338,0.6190185546875,0.34832763671875,-0.61053466796875,-0.35028076171875,4228,7112,99,-1,-1,0
91953328,0.6190185546875,0.34832763671875,-0.61053466796875,-0.35028076171875,4229,7124,100,0,0,0
91963308,0.61907958984375,0.34832763671875,-0.61053466796875,-0.35028076171875,4222,7122,95,-1,0,0
91973294,0.6190185546875,0.34832763671875,-0.61053466796875,-0.35028076171875,4222,7111,88,0,-1,0
91983279,0.6190185546875,0.34832763671875,-0.61053466796875,-0.35028076171875,4220,7122,95,-1,0,-1
91993255,0.61907958984375,0.34832763671875,-0.61053466796875,-0.35028076171875,4232,7112,95,0,0,-1
92003239,0.61907958984375,0.348388671875,-0.61053466796875,-0.35028076171875,4232,7121,87,0,0,0
92013225,0.6190185546875,0.34832763671875,-0.61053466796875,-0.35028076171875,4237,7124,91,-1,-1,-1
92023209,0.6190185546875,0.34832763671875,-0.61053466796875,-0.35028076171875,4237,7118,87,0,-1,0
92033195,0.6190185546875,0.348388671875,-0.610595703125,-0.3502197265625,4233,7113,85,0,0,-1
92043174,0.6190185546875,0.348388671875,-0.61053466796875,-0.3502197265625,4234,7109,92,-1,0,-1
92053161,0.6190185546875,0.348388671875,-0.61053466796875,-0.3502197265625,4239,7108,94,0,-1,-1
92063146,0.61907958984375,0.348388671875,-0.61053466796875,-0.3502197265625,4227,7121,98,0,0,0
92073122,0.61907958984375,0.348388671875,-0.61053466796875,-0.3502197265625,4230,7128,93,-1,-1,-1
92083105,0.6190185546875,0.348388671875,-0.61053466796875,-0.3502197265625,4228,7120,85,0,0,-1
92093089,0.6190185546875,0.348388671875,-0.61053466796875,-0.3502197265625,4221,7126,90,-1,-1,0
92103071,0.6190185546875,0.34844970703125,-0.61053466796875,-0.3502197265625,4219,7123,82,0,-1,-1
92113053,0.6190185546875,0.34844970703125,-0.61053466796875,-0.35028076171875,4220,7125,87,0,-1,-1
92123046,0.61895751953125,0.34844970703125,-0.61053466796875,-0.3502197265625,4220,7127,85,0,0,0
92133020,0.6190185546875,0.348388671875,-0.61053466796875,-0.3502197265625,4229,7132,92,-1,-1,0
92143007,0.6190185546875,0.348388671875,-0.610595703125,-0.3502197265625,4225,7128,92,0,-1,0
92152987,0.6190185546875,0.348388671875,-0.610595703125,-0.3502197265625,4223,7126,86,0,-1,0
92162967,0.6190185546875,0.348388671875,-0.610595703125,-0.3502197265625,4229,7120,86,-1,-1,-1
92172951,0.6190185546875,0.34844970703125,-0.610595703125,-0.35015869140625,4237,7127,87,0,0,-1
92182942,0.6190185546875,0.34844970703125,-0.610595703125,-0.3502197265625,4228,7126,91,0,0,0
92192917,0.6190185546875,0.34844970703125,-0.61053466796875,-0.3502197265625,4230,7137,91,-1,0,-1
92202908,0.61895751953125,0.3485107421875,-0.61053466796875,-0.35015869140625,4226,7133,82,0,0,0
92212883,0.61895751953125,0.3485107421875,-0.61053466796875,-0.35015869140625,4212,7128,78,-1,0,0
92222873,0.6190185546875,0.3485107421875,-0.61053466796875,-0.35015869140625,4227,7123,86,0,0,-1
92232856,0.6190185546875,0.3485107421875,-0.61053466796875,-0.35015869140625,4224,7120,84,0,0,0
92242843,0.6190185546875,0.3485107421875,-0.61053466796875,-0.35015869140625,4232,7122,95,-1,0,0
92252818,0.6190185546875,0.34857177734375,-0.6104736328125,-0.35015869140625,4230,7131,97,-1,-1,-1
92262803,0.6190185546875,0.34857177734375,-0.61053466796875,-0.35015869140625,4234,7124,81,0,-1,-1
92272787,0.61895751953125,0.34857177734375,-0.61053466796875,-0.35015869140625,4239,7129,72,0,-1,0
92282768,0.61895751953125,0.34857177734375,-0.61053466796875,-0.35015869140625,4236,7130,73,0,0,-1
92292750,0.61895751953125,0.34857177734375,-0.61053466796875,-0.35015869140625,4233,7126,83,-1,-1,0
92302735,0.61895751953125,0.34857177734375,-0.61053466796875,-0.35009765625,4235,7125,80,0,0,0
92312717,0.61895751953125,0.34857177734375,-0.61053466796875,-0.35015869140625,4229,7126,85,-1,-1,-1
92322704,0.61895751953125,0.3486328125,-0.61053466796875,-0.35009765625,4234,7125,79,0,0,0
92332680,0.61895751953125,0.3486328125,-0.61053466796875,-0.35009765625,4223,7124,76,-1,0,-1
92342663,0.618896484375,0.34869384765625,-0.61053466796875,-0.35015869140625,4215,7124,82,0,-1,-1
92352659,0.61895751953125,0.34869384765625,-0.61053466796875,-0.35009765625,4214,7118,81,0,0,0
92362637,0.61895751953125,0.34869384765625,-0.61053466796875,-0.35009765625,4215,7119,92,-1,0,-1
92372630,0.61895751953125,0.3487548828125,-0.61053466796875,-0.35009765625,4210,7118,81,0,0,-1
92382611,0.61895751953125,0.3487548828125,-0.6104736328125,-0.35009765625,4207,7122,93,-1,0,0
92392588,0.61895751953125,0.3487548828125,-0.6104736328125,-0.35009765625,4214,7120,104,-1,0,0
92402570,0.61895751953125,0.34869384765625,-0.6104736328125,-0.35009765625,4208,7121,100,-1,-1,0
92412548,0.61895751953125,0.34869384765625,-0.6104736328125,-0.35009765625,4212,7113,107,0,-1,-1
92422528,0.61895751953125,0.34869384765625,-0.6104736328125,-0.35015869140625,4213,7110,108,-1,-1,0
92432505,0.61895751953125,0.34869384765625,-0.61053466796875,-0.35009765625,4224,7117,102,-1,-1,0
92442498,0.61895751953125,0.34869384765625,-0.61053466796875,-0.35009765625,4238,7123,102,0,0,0
92452483,0.61895751953125,0.34869384765625,-0.6104736328125,-0.35009765625,4217,7124,96,0,0,0
92462465,0.6190185546875,0.34869384765625,-0.6104736328125,-0.35009765625,4216,7107,106,-1,-1,-1
92472449,0.6190185546875,0.34869384765625,-0.6104736328125,-0.35009765625,4219,7110,110,0,0,0
92482428,0.61907958984375,0.34869384765625,-0.61041259765625,-0.35009765625,4217,7114,112,-1,0,-1
92492420,0.6190185546875,0.34869384765625,-0.61041259765625,-0.35009765625,4222,7108,103,0,-1,0
92502402,0.61907958984375,0.34869384765625,-0.61041259765625,-0.35009765625,4228,7105,112,-1,-1,0
92512379,0.61907958984375,0.34869384765625,-0.61041259765625,-0.35009765625,4230,7114,107,0,0,0
92522361,0.61907958984375,0.34869384765625,-0.61041259765625,-0.35003662109375,4230,7115,112,0,0,-1
92532347,0.619140625,0.34869384765625,-0.61041259765625,-0.35003662109375,4238,7112,116,-1,0,0
92542322,0.619140625,0.34869384765625,-0.61041259765625,-0.35003662109375,4236,7113,102,-1,-1,0
92552311,0.61907958984375,0.34869384765625,-0.61041259765625,-0.35003662109375,4236,7117,91,0,-1,-1
92562292,0.61907958984375,0.34869384765625,-0.6104736328125,-0.35003662109375,4224,7116,98,0,-1,0
92572280,0.61907958984375,0.34869384765625,-0.61041259765625,-0.35003662109375,4205,7119,99,0,0,0
92582260,0.61907958984375,0.34869384765625,-0.61041259765625,-0.35009765625,4212,7120,106,-1,0,-1
92592240,0.61907958984375,0.3487548828125,-0.61041259765625,-0.35009765625,4214,7115,103,0,-1,-1
92602229,0.61907958984375,0.34869384765625,-0.61041259765625,-0.35009765625,4216,7110,105,0,-1,-1
92612208,0.6190185546875,0.3487548828125,-0.61041259765625,-0.35009765625,4211,7122,93,-1,-1,0
92622193,0.6190185546875,0.3487548828125,-0.61041259765625,-0.35009765625,4214,7121,90,0,0,-1
92632182,0.6190185546875,0.3487548828125,-0.61041259765625,-0.35009765625,4217,7125,92,-1,-1,0
92642167,0.6190185546875,0.3487548828125,-0.61041259765625,-0.35009765625,4219,7129,102,-1,-1,0
92652146,0.6190185546875,0.3487548828125,-0.61041259765625,-0.35009765625,4215,7128,102,0,-1,-1
92662116,0.6190185546875,0.3487548828125,-0.61041259765625,-0.35009765625,4218,7131,97,-1,-1,-1
92672106,0.6190185546875,0.3487548828125,-0.61041259765625,-0.35009765625,4269,7205,57,0,-1,0
92682092,0.61920166015625,0.34857177734375,-0.61029052734375,-0.35015869140625,4230,7003,198,-1,-1,0
92692070,0.61907958984375,0.34869384765625,-0.6103515625,-0.3502197265625,4351,7322,139,0,-1,-2
92702060,0.6190185546875,0.34881591796875,-0.6102294921875,-0.35040283203125,4164,7187,154,0,-1,0
92712033,0.6190185546875,0.3487548828125,-0.6103515625,-0.35028076171875,4141,7053,132,0,-1,2
92722016,0.619140625,0.3485107421875,-0.6104736328125,-0.35009765625,4293,7125,135,-1,-1,1
92732002,0.619140625,0.34857177734375,-0.61041259765625,-0.35015869140625,4285,7154,135,0,-1,-2
92741991,0.61907958984375,0.34869384765625,-0.6103515625,-0.35015869140625,4195,7126,113,0,0,0
92751974,0.61907958984375,0.34869384765625,-0.6103515625,-0.35015869140625,4193,7090,118,0,0,0
92761955,0.61907958984375,0.3486328125,-0.6103515625,-0.35015869140625,4242,7131,130,-1,-1,-1
92771935,0.61907958984375,0.34869384765625,-0.6103515625,-0.35015869140625,4244,7168,103,0,0,-1
92781920,0.61907958984375,0.34869384765625,-0.6103515625,-0.35015869140625,4108,6945,178,-1,-1,0
92791906,0.61907958984375,0.34869384765625,-0.6103515625,-0.35009765625,4259,7106,90,-1,0,0
92801886,0.61920166015625,0.3486328125,-0.61029052734375,-0.3502197265625,4233,7124,126,0,0,-1
92811878,0.61907958984375,0.3487548828125,-0.61029052734375,-0.3502197265625,4189,7105,101,-1,0,0
92821857,0.619140625,0.34869384765625,-0.61029052734375,-0.35015869140625,4181,7070,80,-1,-1,1
92831836,0.619140625,0.3486328125,-0.6103515625,-0.35009765625,4220,7078,98,-1,-1,0
92841827,0.619140625,0.3486328125,-0.6103515625,-0.35015869140625,4221,7124,93,-1,0,-1
92851803,0.619140625,0.34869384765625,-0.61029052734375,-0.35015869140625,4208,7146,90,0,0,0
92861781,0.61920166015625,0.3486328125,-0.6103515625,-0.35009765625,4199,7059,105,-1,0,1
92871767,0.61920166015625,0.34857177734375,-0.6103515625,-0.35003662109375,4239,7083,93,-1,-1,0
92881747,0.61920166015625,0.3486328125,-0.6103515625,-0.35009765625,4061,6736,185,-1,0,-1
92891732,0.6192626953125,0.34857177734375,-0.6102294921875,-0.35015869140625,4324,7133,79,0,0,-2
92901717,0.619140625,0.3487548828125,-0.61016845703125,-0.35028076171875,4301,7237,125,-1,-1,-3
92911701,0.61907958984375,0.34893798828125,-0.61004638671875,-0.3504638671875,4146,7204,94,0,-1,0
92921682,0.61907958984375,0.348876953125,-0.610107421875,-0.35040283203125,4129,7092,89,0,0,1
92931661,0.61920166015625,0.34869384765625,-0.61016845703125,-0.35028076171875,4230,7107,99,-1,-1,0
92941658,0.619140625,0.34869384765625,-0.6102294921875,-0.35028076171875,4287,7208,88,0,0,-1
92951632,0.619140625,0.3487548828125,-0.61016845703125,-0.350341796875,4197,7127,105,0,0,-1
92961630,0.619140625,0.3487548828125,-0.61016845703125,-0.35028076171875,4187,7097,94,0,0,0
92971609,0.61920166015625,0.34869384765625,-0.61016845703125,-0.3502197265625,4213,7101,112,-1,-1,0
92981598,0.61920166015625,0.34869384765625,-0.6102294921875,-0.3502197265625,4236,7134,98,-1,-1,-1
92991581,0.619140625,0.34869384765625,-0.6102294921875,-0.3502197265625,4214,7120,85,0,-1,0
93001544,0.619140625,0.34869384765625,-0.6102294921875,-0.35015869140625,4201,7076,75,-1,-1,0
93011535,0.61920166015625,0.34869384765625,-0.6102294921875,-0.35015869140625,4218,7094,93,0,0,-1
93021512,0.619140625,0.3487548828125,-0.6102294921875,-0.35015869140625,4234,7150,92,0,0,-1
93031499,0.619140625,0.3487548828125,-0.6102294921875,-0.3502197265625,4215,7123,91,-1,-1,0
93041483,0.619140625,0.3487548828125,-0.6102294921875,-0.35015869140625,4203,7071,81,0,0,0
93051464,0.619140625,0.3487548828125,-0.6102294921875,-0.35015869140625,4233,7111,91,0,-1,-1
93061444,0.619140625,0.34881591796875,-0.6102294921875,-0.35015869140625,4237,7141,112,0,-1,-1
93071424,0.619140625,0.3487548828125,-0.6102294921875,-0.35015869140625,4203,7112,103,0,-1,0
93081419,0.61920166015625,0.34869384765625,-0.6102294921875,-0.35009765625,4218,7095,102,-1,0,0
93091406,0.61920166015625,0.34869384765625,-0.61029052734375,-0.35009765625,4236,7141,101,-1,-1,-1
93101377,0.61920166015625,0.3487548828125,-0.6102294921875,-0.35009765625,4222,7154,110,0,0,-1
93111361,0.61920166015625,0.3487548828125,-0.6102294921875,-0.35009765625,4207,7118,97,0,0,0
93121342,0.6192626953125,0.34869384765625,-0.61029052734375,-0.35003662109375,4228,7102,106,-1,-1,0
93131326,0.6192626953125,0.34869384765625,-0.61029052734375,-0.35003662109375,4248,7106,111,0,-1,-1
93141313,0.6192626953125,0.34869384765625,-0.61029052734375,-0.35003662109375,4256,7147,123,0,0,-1
93151296,0.61920166015625,0.34869384765625,-0.6103515625,-0.3499755859375,4417,7367,27,0,-1,0
93161276,0.61920166015625,0.34869384765625,-0.6103515625,-0.3499755859375,4319,7254,129,-1,0,-1
93171262,0.619140625,0.34881591796875,-0.61029052734375,-0.35003662109375,4273,7255,94,0,0,-1
93181243,0.619140625,0.3487548828125,-0.61029052734375,-0.35009765625,4272,7243,75,-1,-1,0
93191227,0.61920166015625,0.3487548828125,-0.61029052734375,-0.35003662109375,4280,7182,106,0,0,0
93201209,0.61920166015625,0.34869384765625,-0.61029052734375,-0.35003662109375,4276,7195,100,-1,-1,-1
93211197,0.619140625,0.3487548828125,-0.61029052734375,-0.35003662109375,4233,7175,85,0,0,-1
93221179,0.619140625,0.34881591796875,-0.61029052734375,-0.35003662109375,4224,7128,83,-1,0,0
93231164,0.61920166015625,0.3487548828125,-0.61029052734375,-0.3499755859375,4256,7136,76,-1,-1,0
93241142,0.61920166015625,0.3487548828125,-0.61029052734375,-0.3499755859375,4241,7130,98,0,0,-1
93251129,0.61920166015625,0.3487548828125,-0.61029052734375,-0.35003662109375,4237,7129,98,0,-1,0
93261105,0.61920166015625,0.34869384765625,-0.6103515625,-0.35003662109375,4235,7119,102,0,-1,0
93271084,0.619140625,0.34869384765625,-0.6103515625,-0.35003662109375,4229,7133,99,-1,-1,0
93281082,0.619140625,0.34869384765625,-0.6103515625,-0.35003662109375,4238,7144,99,0,0,0
93291060,0.61920166015625,0.34869384765625,-0.6103515625,-0.3499755859375,4236,7140,99,-1,-1,0
93301039,0.619140625,0.34869384765625,-0.6103515625,-0.3499755859375,4231,7124,99,0,-1,-1
93311022,0.619140625,0.34869384765625,-0.6103515625,-0.35003662109375,4225,7122,95,-1,0,-1
93321009,0.619140625,0.34869384765625,-0.6103515625,-0.35003662109375,4236,7143,92,-1,-1,0
93330989,0.619140625,0.34869384765625,-0.6103515625,-0.35003662109375,4223,7138,94,-1,-1,-1
93340976,0.619140625,0.34869384765625,-0.6103515625,-0.35003662109375,4222,7118,89,0,0,0
93350954,0.619140625,0.3486328125,-0.6103515625,-0.35003662109375,4249,7124,110,-1,-1,-1
93360938,0.619140625,0.34869384765625,-0.6103515625,-0.35003662109375,4248,7134,102,0,0,-1
93370922,0.619140625,0.3486328125,-0.6103515625,-0.35003662109375,4239,7118,94,-1,-1,0
93380901,0.61920166015625,0.3486328125,-0.6103515625,-0.35003662109375,4245,7107,93,-1,-1,0
93390883,0.619140625,0.3486328125,-0.61041259765625,-0.35003662109375,4244,7111,88,0,-1,0
93400873,0.619140625,0.3486328125,-0.61041259765625,-0.35003662109375,4250,7110,94,0,0,-1
93410857,0.619140625,0.3486328125,-0.6103515625,-0.35003662109375,4224,7098,104,0,0,-1
93420847,0.61920166015625,0.3486328125,-0.6103515625,-0.35003662109375,4224,7103,104,0,0,0
93430823,0.61920166015625,0.3486328125,-0.6103515625,-0.35003662109375,4224,7110,104,-1,-1,0
93440816,0.61920166015625,0.3486328125,-0.6103515625,-0.35003662109375,4226,7113,100,0,0,0
93450784,0.61920166015625,0.3486328125,-0.6103515625,-0.35003662109375,4220,7102,100,-1,-1,0
93460774,0.61920166015625,0.3486328125,-0.6103515625,-0.3499755859375,4224,7101,102,0,0,-1
93470753,0.61920166015625,0.3486328125,-0.6103515625,-0.35003662109375,4212,7118,93,-1,-1,0
93480738,0.61920166015625,0.3486328125,-0.6103515625,-0.35003662109375,4208,7115,89,0,-1,0
93490717,0.61920166015625,0.3486328125,-0.6103515625,-0.3499755859375,4212,7126,87,0,0,0
93500697,0.61920166015625,0.3486328125,-0.6103515625,-0.3499755859375,4216,7127,90,-1,0,0
93510684,0.61920166015625,0.3486328125,-0.6103515625,-0.3499755859375,4217,7125,84,-1,-1,0
93520666,0.6192626953125,0.34857177734375,-0.6103515625,-0.34991455078125,4217,7115,89,-1,-1,0
93530658,0.6192626953125,0.34857177734375,-0.6103515625,-0.34991455078125,4221,7118,94,0,-1,-1
93540644,0.6192626953125,0.3486328125,-0.6103515625,-0.34991455078125,4228,7115,99,0,0,-1
93550630,0.6192626953125,0.34857177734375,-0.6103515625,-0.3499755859375,4222,7117,102,-1,-1,0
93560608,0.6192626953125,0.34857177734375,-0.61041259765625,-0.34991455078125,4223,7116,94,0,-1,0
93570598,0.6192626953125,0.3486328125,-0.6103515625,-0.34991455078125,4215,7109,95,-1,-1,0
93580580,0.6192626953125,0.34857177734375,-0.61041259765625,-0.34991455078125,4218,7106,93,0,-1,0
93590549,0.6192626953125,0.34857177734375,-0.61041259765625,-0.34991455078125,4219,7116,95,-1,0,-1
93600534,0.61920166015625,0.3486328125,-0.61041259765625,-0.34991455078125,4206,7113,90,0,-1,0
93610515,0.61920166015625,0.3486328125,-0.6103515625,-0.34991455078125,4210,7118,90,-1,0,-1
93620501,0.61920166015625,0.3486328125,-0.61041259765625,-0.34991455078125,4217,7122,89,-1,-1,0
93630482,0.61920166015625,0.3486328125,-0.6103515625,-0.34991455078125,4221,7119,96,0,-1,-1
93640466,0.61920166015625,0.3486328125,-0.6103515625,-0.34991455078125,4223,7118,97,0,0,-1
93650445,0.61920166015625,0.3486328125,-0.61041259765625,-0.34991455078125,4239,7110,98,-1,-1,0
93660431,0.61920166015625,0.3486328125,-0.61041259765625,-0.349853515625,4236,7118,87,0,0,0
93670419,0.61920166015625,0.3486328125,-0.61041259765625,-0.34991455078125,4224,7116,91,-1,-1,-1
93680389,0.61920166015625,0.34869384765625,-0.61041259765625,-0.34991455078125,4227,7117,92,0,-1,-1
93690387,0.61920166015625,0.34869384765625,-0.61041259765625,-0.349853515625,4223,7114,85,0,0,0
93700363,0.61920166015625,0.34869384765625,-0.61041259765625,-0.349853515625,4234,7120,90,0,-1,0
93710345,0.61920166015625,0.34869384765625,-0.61041259765625,-0.349853515625,4237,7122,106,0,0,-1
93720335,0.61920166015625,0.34869384765625,-0.61041259765625,-0.349853515625,4236,7130,105,0,-1,-1
93730308,0.619140625,0.34869384765625,-0.61041259765625,-0.34991455078125,4230,7124,98,0,-1,-1
93740289,0.619140625,0.34869384765625,-0.6104736328125,-0.349853515625,4229,7123,91,0,-1,0
93750279,0.619140625,0.3487548828125,-0.6104736328125,-0.349853515625,4230,7130,88,0,0,-1
93760259,0.619140625,0.3487548828125,-0.61041259765625,-0.349853515625,4228,7129,91,0,0,-1
93770241,0.619140625,0.3487548828125,-0.61041259765625,-0.349853515625,4231,7121,100,0,0,-1
93780233,0.619140625,0.3487548828125,-0.61041259765625,-0.34991455078125,4236,7125,102,0,0,0
93790208,0.61920166015625,0.3487548828125,-0.61041259765625,-0.349853515625,4249,7133,99,-1,0,0
93800191,0.61920166015625,0.3487548828125,-0.6103515625,-0.349853515625,4239,7130,100,0,0,-1
93810185,0.61920166015625,0.3487548828125,-0.6103515625,-0.349853515625,4234,7125,101,-1,-1,0
93820166,0.61920166015625,0.3487548828125,-0.6103515625,-0.349853515625,4240,7114,105,0,0,0
93830136,0.6192626953125,0.3487548828125,-0.6103515625,-0.349853515625,4234,7118,108,0,0,-1
93840123,0.6192626953125,0.3487548828125,-0.61029052734375,-0.349853515625,4239,7125,105,0,0,-1
93850105,0.6192626953125,0.3487548828125,-0.61029052734375,-0.349853515625,4243,7118,101,0,0,-1
93860092,0.6192626953125,0.3487548828125,-0.61029052734375,-0.349853515625,4232,7130,94,-1,-1,0
93870069,0.6192626953125,0.3487548828125,-0.61029052734375,-0.34991455078125,4228,7132,101,-1,-1,-1
93880060,0.6192626953125,0.3487548828125,-0.61029052734375,-0.34991455078125,4246,7169,-79,-1,-1,-1
93890035,0.61932373046875,0.34869384765625,-0.6102294921875,-0.34991455078125,4041,6423,267,-2,0,-2
93900015,0.61920166015625,0.34881591796875,-0.6102294921875,-0.35009765625,4938,8204,56,1,-1,-7
93910001,0.61883544921875,0.34954833984375,-0.60980224609375,-0.3507080078125,4140,7492,175,0,0,-2
93919989,0.61883544921875,0.3494873046875,-0.6099853515625,-0.3504638671875,3584,6543,-22,0,0,5
93929966,0.619140625,0.348876953125,-0.61029052734375,-0.34991455078125,4179,6969,61,-1,-1,7
93939956,0.61944580078125,0.348388671875,-0.61053466796875,-0.3494873046875,4779,7560,146,-1,0,-2
93949932,0.6192626953125,0.3487548828125,-0.61029052734375,-0.349853515625,4357,7265,88,1,-1,-5
93959920,0.61895751953125,0.3492431640625,-0.6102294921875,-0.35009765625,3810,6603,27,-1,0,-2
93969901,0.61907958984375,0.34912109375,-0.61016845703125,-0.35009765625,4145,7038,56,-1,0,2
93979882,0.61920166015625,0.34893798828125,-0.61029052734375,-0.34991455078125,4526,7524,153,-1,-1,0
93989873,0.61920166015625,0.3489990234375,-0.61016845703125,-0.3499755859375,4237,7272,113,0,0,-1
93999857,0.61920166015625,0.3489990234375,-0.6102294921875,-0.34991455078125,3961,6797,77,0,0,2
94009841,0.61932373046875,0.3487548828125,-0.61029052734375,-0.3497314453125,4224,6937,111,-1,-1,1
94019816,0.61932373046875,0.3487548828125,-0.61029052734375,-0.34979248046875,4514,7427,145,-1,-1,-4
94029803,0.619140625,0.34906005859375,-0.610107421875,-0.35003662109375,4227,7254,105,0,-1,-2
94039788,0.619140625,0.34912109375,-0.61016845703125,-0.35003662109375,3977,6908,62,-1,-1,2
94049766,0.6192626953125,0.348876953125,-0.6102294921875,-0.349853515625,4207,7032,86,-1,0,1
94059748,0.61932373046875,0.34881591796875,-0.61029052734375,-0.34979248046875,4447,7358,114,-1,-1,-2
94069734,0.61920166015625,0.3489990234375,-0.61016845703125,-0.3499755859375,4229,7218,96,0,0,-2
94083419,0.619140625,0.34906005859375,-0.61016845703125,-0.3499755859375,4041,6935,67,-1,-1,1
94089699,0.6192626953125,0.348876953125,-0.61029052734375,-0.349853515625,4237,7057,112,-1,-1,0
94099685,0.6192626953125,0.348876953125,-0.6102294921875,-0.349853515625,4386,7321,118,0,0,-2
94109667,0.61920166015625,0.3489990234375,-0.61016845703125,-0.35003662109375,4201,7185,107,-1,-1,0
94119660,0.61920166015625,0.34893798828125,-0.6102294921875,-0.3499755859375,4100,6982,35,-1,-1,1
94129637,0.61932373046875,0.3487548828125,-0.61029052734375,-0.34979248046875,4053,6542,127,-2,0,0
94139618,0.61944580078125,0.3487548828125,-0.610107421875,-0.34991455078125,4735,7634,151,1,-1,-5
94149607,0.61907958984375,0.34942626953125,-0.60986328125,-0.35040283203125,4380,7663,164,0,0,-4
94159598,0.61895751953125,0.349609375,-0.6097412109375,-0.35052490234375,3759,6834,94,0,-1,3
94169570,0.619140625,0.3492431640625,-0.61004638671875,-0.35009765625,3958,6860,90,-1,-1,6
94179540,0.61944580078125,0.3486328125,-0.6103515625,-0.34967041015625,4588,7368,146,-1,-1,1
94189532,0.61944580078125,0.34869384765625,-0.61029052734375,-0.3497314453125,4452,7349,128,0,0,-4
94199510,0.6192626953125,0.34906005859375,-0.610107421875,-0.34991455078125,3943,6767,78,0,0,-2
94209497,0.6192626953125,0.34906005859375,-0.610107421875,-0.3499755859375,4083,6915,92,-1,0,0
94219477,0.61932373046875,0.3489990234375,-0.61004638671875,-0.34991455078125,4409,7378,141,-1,0,-1
94229460,0.6192626953125,0.34906005859375,-0.61004638671875,-0.35003662109375,4274,7316,121,0,-1,-1
94239447,0.6192626953125,0.34912109375,-0.61004638671875,-0.34991455078125,4011,6899,74,0,0,1
94249426,0.619384765625,0.34893798828125,-0.61016845703125,-0.34979248046875,4175,6922,97,-1,0,1
94259412,0.61944580078125,0.348876953125,-0.610107421875,-0.34979248046875,4418,7280,130,-1,-1,-3
94269400,0.61932373046875,0.34912109375,-0.6099853515625,-0.3499755859375,4263,7253,123,0,0,-2
94279378,0.6192626953125,0.34918212890625,-0.6099853515625,-0.35003662109375,4029,6960,93,-1,0,1
94289357,0.619384765625,0.3489990234375,-0.61004638671875,-0.349853515625,4162,6980,103,-1,0,1
94299341,0.61944580078125,0.348876953125,-0.610107421875,-0.34979248046875,4378,7246,122,-1,-1,-1
94309325,0.619384765625,0.34906005859375,-0.6099853515625,-0.34991455078125,4258,7226,115,0,0,-2
94319312,0.61932373046875,0.34912109375,-0.6099853515625,-0.3499755859375,4084,6999,84,-1,-1,0
94329288,0.61932373046875,0.3489990234375,-0.61004638671875,-0.34991455078125,4188,7034,90,-1,-1,0
94339277,0.619384765625,0.3489990234375,-0.61004638671875,-0.349853515625,4332,7249,104,0,0,-2
94349254,0.61932373046875,0.34912109375,-0.6099853515625,-0.3499755859375,4220,7203,114,0,0,-1
94359243,0.61932373046875,0.34912109375,-0.6099853515625,-0.34991455078125,4116,7019,89,0,0,1
94369224,0.61944580078125,0.3489990234375,-0.61004638671875,-0.349853515625,4228,7061,99,-1,0,0
94379208,0.61944580078125,0.3489990234375,-0.61004638671875,-0.349853515625,4256,7058,37,-1,0,-2
94389191,0.619384765625,0.34912109375,-0.60992431640625,-0.34991455078125,4087,6640,155,-2,1,-2
94399176,0.619384765625,0.34918212890625,-0.60980224609375,-0.35009765625,4665,7780,87,1,-1,-4
94409157,0.61907958984375,0.34967041015625,-0.609619140625,-0.35052490234375,4220,7568,156,-1,-1,-2
94419139,0.61907958984375,0.349609375,-0.60968017578125,-0.35040283203125,3778,6857,31,0,-1,5
94429115,0.61932373046875,0.34906005859375,-0.61004638671875,-0.34979248046875,4123,6901,68,-1,-1,6
94439102,0.61962890625,0.34857177734375,-0.6103515625,-0.34942626953125,4586,7251,125,-1,-1,-1
94449083,0.61944580078125,0.348876953125,-0.61016845703125,-0.34967041015625,4402,7268,89,0,-1,-6
94459072,0.61920166015625,0.34930419921875,-0.6099853515625,-0.35003662109375,3946,6825,78,0,0,-2
94469060,0.619140625,0.349365234375,-0.6099853515625,-0.35009765625,4078,7035,78,-1,-1,1
94479032,0.6192626953125,0.34912109375,-0.61004638671875,-0.34991455078125,4381,7349,125,-1,-1,0
94489018,0.6192626953125,0.34906005859375,-0.610107421875,-0.34991455078125,4268,7244,92,0,-1,0
94499008,0.6192626953125,0.34906005859375,-0.61016845703125,-0.349853515625,4069,6910,72,-1,-1,1
94508982,0.6192626953125,0.34893798828125,-0.6102294921875,-0.34979248046875,4206,6963,96,-1,-1,0
94518966,0.6192626953125,0.34893798828125,-0.61016845703125,-0.349853515625,4391,7282,121,-1,-1,-3
94528952,0.61920166015625,0.34918212890625,-0.610107421875,-0.3499755859375,4244,7244,97,0,0,-1
94538937,0.619140625,0.34918212890625,-0.610107421875,-0.3499755859375,4078,7004,76,-1,0,1
94548918,0.6192626953125,0.3489990234375,-0.61016845703125,-0.34979248046875,4205,7033,95,-1,-1,1
94558907,0.6192626953125,0.3489990234375,-0.61016845703125,-0.34979248046875,4368,7271,90,0,0,-2
94568880,0.619140625,0.34918212890625,-0.610107421875,-0.34991455078125,4241,7224,78,0,0,-1
94578873,0.619140625,0.3492431640625,-0.610107421875,-0.34991455078125,4106,7022,48,-1,0,1
94588854,0.61920166015625,0.34912109375,-0.61016845703125,-0.34979248046875,4223,7075,76,-1,0,0
94598843,0.6192626953125,0.34912109375,-0.610107421875,-0.34979248046875,4336,7251,101,-1,-1,-2
94608826,0.61920166015625,0.34918212890625,-0.610107421875,-0.34991455078125,4185,7091,-85,-1,0,-1
94618800,0.61920166015625,0.34918212890625,-0.610107421875,-0.349853515625,3937,6172,354,-3,1,0
94628780,0.619384765625,0.34912109375,-0.6099853515625,-0.34991455078125,5216,8430,31,2,-1,-8
94638760,0.61883544921875,0.35003662109375,-0.6094970703125,-0.350830078125,4315,7618,237,-1,0,-6
94648755,0.61871337890625,0.35028076171875,-0.609375,-0.35089111328125,3578,6528,13,1,-1,1
94658731,0.6187744140625,0.35003662109375,-0.609619140625,-0.3505859375,3919,6980,106,-2,0,7
94668717,0.6192626953125,0.3492431640625,-0.6099853515625,-0.35003662109375,4800,7843,177,-1,-1,4
94678700,0.619384765625,0.34906005859375,-0.6099853515625,-0.34991455078125,4400,7379,198,0,-1,-1
94688690,0.61920166015625,0.349365234375,-0.61004638671875,-0.34991455078125,3838,6572,47,0,0,0
94698661,0.6192626953125,0.3492431640625,-0.61004638671875,-0.349853515625,4154,6864,71,-1,0,1
94708657,0.61932373046875,0.34912109375,-0.61004638671875,-0.34979248046875,4541,7405,120,-1,0,-3
94718633,0.61920166015625,0.349365234375,-0.60986328125,-0.35009765625,4315,7372,105,0,-1,-3
94728630,0.61907958984375,0.349609375,-0.60986328125,-0.35009765625,3929,6881,58,0,0,1
94738611,0.61920166015625,0.349365234375,-0.6099853515625,-0.34991455078125,4064,6896,83,-1,-1,3
94748590,0.61932373046875,0.34912109375,-0.610107421875,-0.3497314453125,4456,7308,111,-1,-1,-1
94758570,0.6192626953125,0.3492431640625,-0.61004638671875,-0.349853515625,4349,7307,97,0,0,-2
94768550,0.619140625,0.34942626953125,-0.61004638671875,-0.34991455078125,4035,6962,64,0,-1,0
94778528,0.619140625,0.349365234375,-0.610107421875,-0.34979248046875,4100,6951,78,-1,-1,1
94788511,0.6192626953125,0.3492431640625,-0.610107421875,-0.34979248046875,4364,7269,106,-1,-1,-1
94798496,0.61920166015625,0.34930419921875,-0.61004638671875,-0.349853515625,4291,7269,109,0,0,-1
94808479,0.61920166015625,0.349365234375,-0.610107421875,-0.34979248046875,4087,7005,86,0,0,1
94818462,0.61920166015625,0.3492431640625,-0.61016845703125,-0.3497314453125,4163,6979,102,-1,-1,0
94828443,0.6192626953125,0.34918212890625,-0.61016845703125,-0.3497314453125,4337,7227,104,0,-1,-2
94838420,0.61920166015625,0.34930419921875,-0.610107421875,-0.349853515625,4249,7245,98,0,-1,-1
94848420,0.619140625,0.349365234375,-0.610107421875,-0.34979248046875,4114,7033,82,0,0,1
94858402,0.6192626953125,0.34918212890625,-0.61016845703125,-0.34967041015625,4199,7014,98,-1,-1,1
94868382,0.6192626953125,0.34912109375,-0.61016845703125,-0.34967041015625,4319,7207,108,0,-1,-2
94878354,0.61920166015625,0.34930419921875,-0.610107421875,-0.34979248046875,4236,7203,98,0,-1,-1
94888344,0.619140625,0.34930419921875,-0.61016845703125,-0.34979248046875,4132,7064,89,0,-1,1
94898323,0.61920166015625,0.34918212890625,-0.61016845703125,-0.34967041015625,4194,7070,106,-1,-1,0
94908310,0.61920166015625,0.34918212890625,-0.6102294921875,-0.34967041015625,4272,7185,105,0,-1,-1
94918286,0.61920166015625,0.3492431640625,-0.61016845703125,-0.3497314453125,4210,7137,98,0,-1,-1
94928274,0.61920166015625,0.34918212890625,-0.6102294921875,-0.3497314453125,4172,7042,96,0,-1,0
94938253,0.6192626953125,0.34912109375,-0.6102294921875,-0.34967041015625,4244,7084,100,-1,-1,0
94948243,0.61920166015625,0.34912109375,-0.6102294921875,-0.34967041015625,4277,7172,89,0,0,-1
94958226,0.61920166015625,0.34918212890625,-0.6102294921875,-0.34967041015625,4217,7120,79,0,0,0
94968208,0.61920166015625,0.34918212890625,-0.61029052734375,-0.34967041015625,4194,7072,78,-1,-1,0
94978196,0.61920166015625,0.34918212890625,-0.61029052734375,-0.34967041015625,4230,7113,80,0,0,-1
94988175,0.619140625,0.3492431640625,-0.6102294921875,-0.34967041015625,4230,7153,85,0,0,-1
94998161,0.619140625,0.34930419921875,-0.6102294921875,-0.3497314453125,4190,7121,87,-1,-1,-1
95008147,0.619140625,0.3492431640625,-0.6102294921875,-0.34967041015625,4192,7085,82,0,0,0
95018124,0.61920166015625,0.3492431640625,-0.6102294921875,-0.349609375,4238,7105,98,-1,0,-1
95028104,0.61920166015625,0.3492431640625,-0.6102294921875,-0.34967041015625,4250,7154,108,0,0,-1
95038088,0.61920166015625,0.3492431640625,-0.6102294921875,-0.34967041015625,4221,7133,89,-1,-1,0
95048076,0.61920166015625,0.3492431640625,-0.6102294921875,-0.34967041015625,4212,7105,83,0,-1,0
95058063,0.61920166015625,0.3492431640625,-0.6102294921875,-0.34967041015625,4234,7126,75,0,0,-1
95068045,0.61920166015625,0.3492431640625,-0.6102294921875,-0.34967041015625,4240,7152,94,0,0,0
95078022,0.61920166015625,0.3492431640625,-0.6102294921875,-0.34967041015625,4217,7125,100,-1,-1,0
95087998,0.61920166015625,0.34918212890625,-0.6102294921875,-0.349609375,4214,7106,93,-1,-1,0
95097997,0.61920166015625,0.3492431640625,-0.6102294921875,-0.349609375,4235,7128,92,-1,0,-1
95107970,0.61920166015625,0.34930419921875,-0.6102294921875,-0.349609375,4228,7146,87,0,-1,-1
95117957,0.61920166015625,0.34930419921875,-0.6102294921875,-0.349609375,4213,7113,74,0,-1,0
95127943,0.61920166015625,0.3492431640625,-0.6102294921875,-0.34954833984375,4214,7102,82,0,0,0
95137919,0.61920166015625,0.34930419921875,-0.61016845703125,-0.349609375,4221,7138,96,-1,0,-1
95147908,0.61920166015625,0.34930419921875,-0.61016845703125,-0.349609375,4218,7133,80,0,0,0
95157882,0.6192626953125,0.34930419921875,-0.61016845703125,-0.34954833984375,4218,7114,87,0,0,0
95167873,0.6192626953125,0.34930419921875,-0.61016845703125,-0.34954833984375,4238,7113,87,-1,0,-1
95177856,0.6192626953125,0.349365234375,-0.61016845703125,-0.34954833984375,4248,7126,86,0,0,-1
95187849,0.6192626953125,0.349365234375,-0.61016845703125,-0.34954833984375,4243,7130,81,0,-1,0
95197830,0.6192626953125,0.349365234375,-0.61016845703125,-0.3494873046875,4222,7116,84,0,0,0
95207805,0.6192626953125,0.349365234375,-0.61016845703125,-0.34954833984375,3997,6775,190,-1,-1,-1
95217788,0.619140625,0.34942626953125,-0.61029052734375,-0.3494873046875,4243,7144,86,-1,-1,0
95227774,0.61920166015625,0.34942626953125,-0.610107421875,-0.349609375,4172,7111,137,0,-1,-1
95237757,0.61907958984375,0.34954833984375,-0.61016845703125,-0.349609375,4130,7079,99,-1,0,0
95247731,0.61920166015625,0.34942626953125,-0.610107421875,-0.349609375,4221,7154,49,-1,-1,0
95257711,0.61920166015625,0.34930419921875,-0.61016845703125,-0.34954833984375,4249,7122,107,-1,-1,0
95267704,0.61920166015625,0.34942626953125,-0.61016845703125,-0.34954833984375,4226,7127,95,0,0,-1
95277691,0.61920166015625,0.34942626953125,-0.610107421875,-0.349609375,4209,7104,105,0,0,0
95287661,0.61920166015625,0.34942626953125,-0.61016845703125,-0.34954833984375,4223,7087,101,-1,0,0
95297656,0.6192626953125,0.349365234375,-0.61016845703125,-0.3494873046875,4270,7141,97,0,0,0
95307637,0.6192626953125,0.34942626953125,-0.61016845703125,-0.34954833984375,4233,7107,110,-1,-1,-1
95317630,0.6192626953125,0.34942626953125,-0.61016845703125,-0.34954833984375,4223,7098,93,0,0,0
95327609,0.6192626953125,0.349365234375,-0.61016845703125,-0.3494873046875,4233,7108,113,-1,-1,0
95337601,0.6192626953125,0.349365234375,-0.610107421875,-0.3494873046875,4230,7122,99,-1,0,-1
95347580,0.6192626953125,0.349365234375,-0.610107421875,-0.3494873046875,4226,7119,108,-1,0,0
95357547,0.61932373046875,0.349365234375,-0.61016845703125,-0.3494873046875,4214,7101,94,0,-1,0
95367535,0.61932373046875,0.349365234375,-0.61016845703125,-0.3494873046875,4210,7105,97,0,0,-1
95377512,0.61932373046875,0.34942626953125,-0.610107421875,-0.3494873046875,4215,7119,92,0,0,-1
95387500,0.61932373046875,0.34942626953125,-0.610107421875,-0.3494873046875,4223,7120,92,-1,-1,-1
95397484,0.61932373046875,0.34942626953125,-0.610107421875,-0.34942626953125,4214,7102,87,0,0,0
95407465,0.61932373046875,0.34942626953125,-0.610107421875,-0.34942626953125,4226,7102,81,-1,0,-1
95417451,0.61932373046875,0.3494873046875,-0.610107421875,-0.34942626953125,4236,7116,87,0,-1,0
95427432,0.61932373046875,0.3494873046875,-0.610107421875,-0.34942626953125,4217,7123,93,0,0,-1
95437419,0.61932373046875,0.34942626953125,-0.610107421875,-0.34942626953125,4212,7107,103,-1,-1,0
95447400,0.61932373046875,0.34942626953125,-0.610107421875,-0.34942626953125,4224,7123,91,0,-1,0
95457376,0.6192626953125,0.34942626953125,-0.610107421875,-0.34942626953125,4226,7138,86,0,-1,-1
95467360,0.6192626953125,0.3494873046875,-0.610107421875,-0.34942626953125,4217,7130,92,0,0,-1
95477344,0.61932373046875,0.34942626953125,-0.610107421875,-0.3494873046875,4215,7132,109,-1,0,0
95487332,0.61932373046875,0.34942626953125,-0.610107421875,-0.3494873046875,4292,7242,86,-1,-1,-1
95497311,0.61932373046875,0.34942626953125,-0.610107421875,-0.34942626953125,4508,7524,172,0,-1,0
95507296,0.619384765625,0.349365234375,-0.61004638671875,-0.3494873046875,4272,7177,246,-1,-1,-1
95517284,0.61920166015625,0.34954833984375,-0.61016845703125,-0.3494873046875,4234,7171,121,0,0,0
95527257,0.61932373046875,0.34942626953125,-0.61004638671875,-0.3494873046875,4314,7258,91,-1,0,0
95537244,0.619384765625,0.349365234375,-0.61004638671875,-0.34942626953125,4306,7180,105,-1,0,0
95547225,0.619384765625,0.34942626953125,-0.61004638671875,-0.34942626953125,4294,7218,85,0,0,-1
95557217,0.61932373046875,0.3494873046875,-0.61004638671875,-0.3494873046875,4246,7172,109,0,-1,0
95567194,0.61932373046875,0.34942626953125,-0.610107421875,-0.3494873046875,4244,7129,96,-1,-1,0
95577182,0.619384765625,0.349365234375,-0.610107421875,-0.34942626953125,4284,7148,89,0,-1,-1
95587167,0.61932373046875,0.34942626953125,-0.610107421875,-0.34942626953125,4253,7152,101,0,0,-1
95597139,0.61932373046875,0.34942626953125,-0.61004638671875,-0.3494873046875,4235,7139,96,-1,-1,-1
95607125,0.61932373046875,0.34942626953125,-0.610107421875,-0.3494873046875,4247,7121,89,0,-1,0
95617110,0.61932373046875,0.349365234375,-0.610107421875,-0.3494873046875,4244,7124,99,-1,0,-1
95627094,0.61932373046875,0.34942626953125,-0.61004638671875,-0.3494873046875,4240,7121,97,0,0,0
95637071,0.619384765625,0.349365234375,-0.61004638671875,-0.3494873046875,4239,7099,94,-1,-1,0
95647064,0.619384765625,0.349365234375,-0.610107421875,-0.3494873046875,4229,7112,103,0,0,-1
95657040,0.619384765625,0.34942626953125,-0.61004638671875,-0.3494873046875,4223,7120,104,0,0,-1
95667024,0.619384765625,0.34942626953125,-0.61004638671875,-0.3494873046875,4223,7120,88,0,0,-1
95677011,0.619384765625,0.34942626953125,-0.61004638671875,-0.34942626953125,4217,7107,87,0,-1,0
95686982,0.619384765625,0.349365234375,-0.61004638671875,-0.34942626953125,4229,7112,96,-1,-1,0
95696967,0.619384765625,0.349365234375,-0.610107421875,-0.34942626953125,4240,7122,99,-1,-1,0
95706955,0.619384765625,0.349365234375,-0.610107421875,-0.34942626953125,4236,7133,95,0,0,0
95716937,0.61944580078125,0.349365234375,-0.61004638671875,-0.34942626953125,4230,7119,103,-1,0,-1
95726925,0.61944580078125,0.349365234375,-0.61004638671875,-0.34942626953125,4228,7116,98,0,-1,0
95736901,0.61944580078125,0.34930419921875,-0.610107421875,-0.34942626953125,4248,7125,96,-1,-1,-1
95746881,0.619384765625,0.34930419921875,-0.610107421875,-0.34942626953125,4232,7123,96,0,-1,-1
95756873,0.619384765625,0.349365234375,-0.610107421875,-0.34942626953125,4224,7107,99,0,0,-1
95766859,0.61944580078125,0.349365234375,-0.610107421875,-0.349365234375,4245,7115,98,0,0,-1
95776849,0.61944580078125,0.349365234375,-0.61004638671875,-0.349365234375,4260,7124,105,0,0,-1
95786828,0.61944580078125,0.34930419921875,-0.61004638671875,-0.349365234375,4251,7115,108,0,0,0
95796800,0.6195068359375,0.34930419921875,-0.61004638671875,-0.349365234375,4247,7110,111,0,-1,0
95806788,0.6195068359375,0.34930419921875,-0.61004638671875,-0.34930419921875,4245,7108,110,-1,-1,0
95816774,0.6195068359375,0.349365234375,-0.61004638671875,-0.34930419921875,4239,7117,104,0,0,-1
95826755,0.6195068359375,0.34930419921875,-0.61004638671875,-0.34930419921875,4234,7124,93,-1,-1,0
95836727,0.6195068359375,0.34930419921875,-0.610107421875,-0.34930419921875,4244,7122,94,-1,-1,0
95846717,0.6195068359375,0.34930419921875,-0.610107421875,-0.34930419921875,4244,7125,94,0,-1,0
95856700,0.6195068359375,0.3492431640625,-0.610107421875,-0.34930419921875,4242,7112,103,-1,0,0
95866684,0.6195068359375,0.34930419921875,-0.61004638671875,-0.3492431640625,4245,7119,99,0,0,-1
95876667,0.6195068359375,0.3492431640625,-0.610107421875,-0.3492431640625,4234,7104,94,-1,-1,0
95886657,0.6195068359375,0.3492431640625,-0.610107421875,-0.34930419921875,4228,7098,95,0,-1,-1
95896639,0.6195068359375,0.3492431640625,-0.610107421875,-0.34930419921875,4226,7109,90,-1,-1,-1
95906620,0.6195068359375,0.3492431640625,-0.610107421875,-0.3492431640625,4230,7104,79,0,-1,0
95916617,0.6195068359375,0.34930419921875,-0.610107421875,-0.34930419921875,4221,7109,78,0,0,-1
95926589,0.6195068359375,0.34930419921875,-0.610107421875,-0.34930419921875,4226,7124,93,0,0,-1
95936569,0.6195068359375,0.34930419921875,-0.610107421875,-0.3492431640625,4225,7121,99,0,0,0
95946553,0.6195068359375,0.34930419921875,-0.610107421875,-0.3492431640625,4227,7111,112,-1,-1,0
95956529,0.6195068359375,0.34930419921875,-0.610107421875,-0.34930419921875,4221,7115,114,-1,-1,-1
95966520,0.61944580078125,0.34930419921875,-0.610107421875,-0.34930419921875,4227,7123,93,0,0,0
95976501,0.61944580078125,0.34930419921875,-0.610107421875,-0.34930419921875,4228,7129,93,-1,0,0
95986486,0.6195068359375,0.34930419921875,-0.610107421875,-0.34930419921875,4229,7124,109,-1,-1,-1
95996475,0.6195068359375,0.34930419921875,-0.610107421875,-0.3492431640625,4233,7123,99,0,0,0
96006461,0.6195068359375,0.34930419921875,-0.610107421875,-0.34930419921875,4227,7115,107,0,0,0
96016430,0.61944580078125,0.34930419921875,-0.610107421875,-0.34930419921875,4236,7122,104,-1,-1,-1
96026420,0.61944580078125,0.34930419921875,-0.61016845703125,-0.34930419921875,4251,7151,95,0,-1,-1
96036390,0.619384765625,0.34930419921875,-0.61016845703125,-0.34930419921875,4234,7137,75,-1,-1,-1
96046377,0.619384765625,0.34930419921875,-0.6102294921875,-0.34930419921875,4236,7127,73,0,-1,0
96056370,0.619384765625,0.34930419921875,-0.61016845703125,-0.3492431640625,4231,7117,79,0,0,-1
96066348,0.619384765625,0.34930419921875,-0.61016845703125,-0.3492431640625,4222,7111,91,-1,0,0
96076330,0.61944580078125,0.34930419921875,-0.61016845703125,-0.3492431640625,4223,7125,83,-1,-1,0
