subject,Still with noise
arm,neither
label,0
hz,100.16940864492584
time,5.231138

timestamp_us,q0,q1,q2,q3,ax,ay,az,gx,gy,gz
214814903,-0.215087890625,0.54339599609375,0.46038818359375,-0.668212890625,-4265,-6927,-109,0,-1,-1
214824893,-0.215087890625,0.54339599609375,0.46038818359375,-0.668212890625,-4265,-6919,-109,0,0,0
214834860,-0.215087890625,0.54339599609375,0.46038818359375,-0.668212890625,-4257,-6918,-108,-1,0,0
214844848,-0.215087890625,0.54339599609375,0.46044921875,-0.66815185546875,-4264,-6925,-114,-1,0,-1
214854843,-0.215087890625,0.54339599609375,0.46044921875,-0.66815185546875,-4275,-6919,-118,0,-1,0
214864826,-0.215087890625,0.54339599609375,0.46038818359375,-0.66815185546875,-4270,-6901,-119,0,0,0
214874796,-0.215087890625,0.54345703125,0.46044921875,-0.66815185546875,-4264,-6894,-124,-1,0,0
214884775,-0.215087890625,0.54345703125,0.46044921875,-0.66815185546875,-4283,-6901,-127,-1,0,0
214894766,-0.215087890625,0.54345703125,0.46044921875,-0.66815185546875,-4285,-6905,-116,0,-1,0
214904752,-0.215087890625,0.54345703125,0.46038818359375,-0.66815185546875,-4287,-6902,-112,0,0,0
214914729,-0.215087890625,0.54345703125,0.46044921875,-0.66815185546875,-4276,-6913,-107,-1,-1,0
214924717,-0.215087890625,0.54345703125,0.46044921875,-0.66815185546875,-4287,-6931,-124,0,0,0
214934699,-0.215087890625,0.54339599609375,0.46044921875,-0.66815185546875,-4272,-6932,-119,0,-1,-1
214944685,-0.215087890625,0.54339599609375,0.46044921875,-0.66815185546875,-4263,-6912,-122,0,0,0
214954665,-0.215087890625,0.54345703125,0.46044921875,-0.6680908203125,-4263,-6910,-121,-1,0,-1
214964652,-0.21514892578125,0.54345703125,0.46044921875,-0.66815185546875,-4264,-6912,-117,0,0,0
214974637,-0.21514892578125,0.54345703125,0.46044921875,-0.6680908203125,-4268,-6911,-112,-1,-1,-1
214984615,-0.21514892578125,0.54339599609375,0.46044921875,-0.66815185546875,-4273,-6916,-101,-1,-1,-1
214994614,-0.215087890625,0.54339599609375,0.46044921875,-0.66815185546875,-4287,-6920,-115,0,0,0
215004599,-0.21514892578125,0.54339599609375,0.46044921875,-0.66815185546875,-4283,-6926,-127,0,0,0
215014568,-0.21514892578125,0.54339599609375,0.46044921875,-0.6680908203125,-4282,-6916,-114,-1,-1,-1
215024547,-0.21514892578125,0.54339599609375,0.46044921875,-0.66815185546875,-4285,-6911,-120,0,0,0
215034531,-0.21514892578125,0.54339599609375,0.46044921875,-0.66815185546875,-4282,-6910,-123,0,-1,0
215044509,-0.21514892578125,0.54339599609375,0.46044921875,-0.66815185546875,-4291,-6923,-114,0,0,-1
215054499,-0.21514892578125,0.54339599609375,0.46044921875,-0.66815185546875,-4290,-6921,-119,0,-1,0
215064480,-0.21514892578125,0.54339599609375,0.46044921875,-0.66815185546875,-4282,-6920,-124,0,-1,-1
215074467,-0.21514892578125,0.54339599609375,0.46044921875,-0.6680908203125,-4281,-6919,-130,0,0,0
215084439,-0.215087890625,0.54339599609375,0.46044921875,-0.6680908203125,-4284,-6924,-134,-1,-1,0
215094424,-0.215087890625,0.54345703125,0.46044921875,-0.6680908203125,-4286,-6913,-129,-1,0,0
215104413,-0.215087890625,0.54345703125,0.46051025390625,-0.6680908203125,-4278,-6925,-131,-1,-1,0
215114406,-0.215087890625,0.54345703125,0.46051025390625,-0.6680908203125,-4278,-6914,-143,0,0,0
215124374,-0.215087890625,0.54345703125,0.46051025390625,-0.66802978515625,-4279,-6926,-143,-1,-1,0
215134361,-0.215087890625,0.54345703125,0.46051025390625,-0.6680908203125,-4275,-6915,-145,0,-1,0
215144343,-0.215087890625,0.54345703125,0.46051025390625,-0.66802978515625,-4267,-6907,-141,0,0,-1
215154325,-0.215087890625,0.54345703125,0.46051025390625,-0.66802978515625,-4271,-6920,-130,-1,-1,0
215164309,-0.215087890625,0.54345703125,0.46051025390625,-0.66802978515625,-4274,-6929,-137,0,0,0
215174290,-0.215087890625,0.54345703125,0.4605712890625,-0.66802978515625,-4263,-6939,-130,-1,-1,0
215184278,-0.215087890625,0.54345703125,0.46051025390625,-0.66802978515625,-4277,-6938,-128,0,-1,0
215194263,-0.215087890625,0.54345703125,0.46051025390625,-0.66802978515625,-4280,-6922,-126,0,0,-1
215204245,-0.215087890625,0.54345703125,0.46051025390625,-0.66802978515625,-4277,-6908,-124,0,0,0
215214221,-0.215087890625,0.54351806640625,0.46051025390625,-0.66802978515625,-4294,-6915,-115,-1,0,-1
215224208,-0.215087890625,0.54351806640625,0.46051025390625,-0.66802978515625,-4288,-6913,-124,0,-1,-1
215234196,-0.21514892578125,0.54345703125,0.46051025390625,-0.66802978515625,-4277,-6930,-129,0,-1,0
215244177,-0.21514892578125,0.54345703125,0.46051025390625,-0.66802978515625,-4261,-6919,-131,-1,0,0
215254149,-0.21514892578125,0.54351806640625,0.46051025390625,-0.66796875,-4262,-6931,-129,-1,0,0
215264142,-0.21514892578125,0.54351806640625,0.4605712890625,-0.66796875,-4273,-6929,-128,0,-1,-1
215274118,-0.21514892578125,0.54345703125,0.4605712890625,-0.66802978515625,-4263,-6917,-122,0,-1,-1
215284102,-0.2152099609375,0.54345703125,0.4605712890625,-0.66802978515625,-4273,-6919,-131,0,0,-1
215294088,-0.21514892578125,0.54345703125,0.4605712890625,-0.66796875,-4274,-6915,-127,-1,-1,0
215304072,-0.21514892578125,0.54345703125,0.4605712890625,-0.66802978515625,-4276,-6900,-136,0,0,0
215314060,-0.21514892578125,0.54351806640625,0.4605712890625,-0.66796875,-4279,-6898,-132,0,0,-1
215324036,-0.21514892578125,0.54351806640625,0.46051025390625,-0.66796875,-4285,-6909,-133,0,0,0
215334018,-0.21514892578125,0.54351806640625,0.4605712890625,-0.66796875,-4273,-6925,-134,-1,0,0
215344001,-0.21514892578125,0.54351806640625,0.4605712890625,-0.66796875,-4264,-6916,-127,0,0,0
215353987,-0.21514892578125,0.54351806640625,0.46051025390625,-0.66796875,-4265,-6901,-103,0,0,0
215363968,-0.21514892578125,0.54351806640625,0.46051025390625,-0.66796875,-4277,-6895,-100,-1,0,-1
215373955,-0.2152099609375,0.54351806640625,0.46051025390625,-0.66796875,-4271,-6894,-107,0,-1,0
215383935,-0.21514892578125,0.54351806640625,0.46051025390625,-0.66796875,-4270,-6900,-110,0,-1,0
215393925,-0.21514892578125,0.5435791015625,0.46044921875,-0.66796875,-4279,-6903,-103,0,0,0
215403898,-0.21514892578125,0.5435791015625,0.46051025390625,-0.66796875,-4269,-6898,-98,-1,0,0
215413882,-0.21514892578125,0.54351806640625,0.46044921875,-0.66802978515625,-4279,-6913,-98,-1,-1,0
215423873,-0.21514892578125,0.54351806640625,0.46044921875,-0.66802978515625,-4279,-6912,-106,0,-1,0
215433857,-0.21514892578125,0.5435791015625,0.46044921875,-0.66802978515625,-4281,-6916,-117,0,0,0
215443843,-0.21514892578125,0.5435791015625,0.46044921875,-0.66802978515625,-4288,-6925,-121,0,-1,-1
215453830,-0.21514892578125,0.5435791015625,0.46044921875,-0.66802978515625,-4284,-6920,-120,0,0,0
215463799,-0.215087890625,0.5435791015625,0.46044921875,-0.66802978515625,-4293,-6913,-129,-1,-1,0
215473783,-0.21514892578125,0.54351806640625,0.46044921875,-0.66802978515625,-4287,-6919,-111,0,-1,-1
215483774,-0.21514892578125,0.5435791015625,0.46038818359375,-0.66802978515625,-4279,-6912,-116,0,0,-1
215493749,-0.2152099609375,0.54351806640625,0.46044921875,-0.66802978515625,-4273,-6929,-107,0,0,-1
215503733,-0.21527099609375,0.54351806640625,0.46044921875,-0.66802978515625,-4274,-6936,-108,0,0,-1
215513719,-0.21527099609375,0.54351806640625,0.46044921875,-0.66796875,-4275,-6927,-114,0,0,0
215523701,-0.21527099609375,0.54351806640625,0.46044921875,-0.66802978515625,-4275,-6925,-105,0,-1,-1
215533689,-0.21527099609375,0.54351806640625,0.46044921875,-0.66802978515625,-4267,-6918,-112,0,0,-1
215543663,-0.21533203125,0.54351806640625,0.46044921875,-0.66802978515625,-4270,-6916,-114,0,0,-1
215553649,-0.21533203125,0.54351806640625,0.46044921875,-0.66796875,-4271,-6913,-120,0,0,-1
215563634,-0.21533203125,0.54345703125,0.46044921875,-0.66796875,-4278,-6910,-106,-1,-1,-1
215573630,-0.21539306640625,0.54345703125,0.46044921875,-0.66802978515625,-4277,-6911,-115,0,0,0
215583605,-0.21539306640625,0.54345703125,0.46044921875,-0.66802978515625,-4268,-6923,-108,0,0,0
215593590,-0.21539306640625,0.54345703125,0.46044921875,-0.66796875,-4256,-6919,-110,-1,0,0
215603578,-0.21539306640625,0.54345703125,0.46044921875,-0.66796875,-4268,-6918,-111,0,0,-1
215613546,-0.21539306640625,0.54345703125,0.46044921875,-0.66796875,-4272,-6913,-108,-1,0,-1
215623532,-0.21539306640625,0.54345703125,0.46044921875,-0.66802978515625,-4272,-6911,-106,0,-1,0
215633521,-0.21539306640625,0.54345703125,0.46044921875,-0.66796875,-4279,-6916,-115,0,0,-1
215643495,-0.21539306640625,0.54345703125,0.46044921875,-0.66796875,-4273,-6902,-119,0,0,-1
215653481,-0.2154541015625,0.54345703125,0.46044921875,-0.66796875,-4029,-6832,-44,0,0,-1
215663475,-0.215576171875,0.5433349609375,0.46051025390625,-0.66796875,-4138,-6946,-74,0,-1,1
215673446,-0.2154541015625,0.54345703125,0.46038818359375,-0.6680908203125,-4242,-6973,-92,0,-1,1
215683430,-0.2154541015625,0.54345703125,0.4603271484375,-0.6680908203125,-4229,-6877,-97,0,0,-1
215693413,-0.21551513671875,0.54339599609375,0.46038818359375,-0.66802978515625,-4218,-6841,-89,-1,-1,-2
215703399,-0.21563720703125,0.5433349609375,0.46051025390625,-0.66802978515625,-4239,-6917,-109,0,0,-2
215713380,-0.2156982421875,0.54327392578125,0.4605712890625,-0.66796875,-4242,-6967,-121,0,-1,-1
215723362,-0.2156982421875,0.543212890625,0.4605712890625,-0.66796875,-4209,-6916,-117,0,-1,0
215733346,-0.2156982421875,0.54327392578125,0.4605712890625,-0.66802978515625,-4233,-6884,-105,0,0,0
215743322,-0.215576171875,0.5433349609375,0.46051025390625,-0.66802978515625,-4277,-6904,-115,-1,0,0
215753311,-0.215576171875,0.5433349609375,0.46051025390625,-0.66802978515625,-4271,-6908,-101,0,0,-1
215763294,-0.21563720703125,0.54327392578125,0.46051025390625,-0.66802978515625,-4244,-6900,-115,0,-1,-1
215773283,-0.21563720703125,0.54327392578125,0.46051025390625,-0.66802978515625,-4255,-6903,-126,0,-1,0
215783263,-0.21563720703125,0.5433349609375,0.46051025390625,-0.66802978515625,-4108,-6902,-92,-1,-1,0
215793244,-0.21563720703125,0.54327392578125,0.4605712890625,-0.66796875,-4218,-7010,-130,0,0,1
215803223,-0.215576171875,0.5433349609375,0.46051025390625,-0.66802978515625,-4260,-6996,-125,-1,0,0
215813208,-0.215576171875,0.5433349609375,0.46044921875,-0.66802978515625,-4224,-6922,-106,0,-1,0
215823193,-0.215576171875,0.5433349609375,0.46044921875,-0.66802978515625,-4270,-6898,-105,0,0,-1
215833181,-0.21563720703125,0.54327392578125,0.46044921875,-0.66802978515625,-4312,-6953,-96,0,0,-2
215843164,-0.21575927734375,0.543212890625,0.4605712890625,-0.66802978515625,-4260,-6936,-104,0,0,-1
215853140,-0.2158203125,0.54315185546875,0.46063232421875,-0.66796875,-4213,-6901,-109,0,0,-1
215863128,-0.2158203125,0.543212890625,0.46063232421875,-0.66796875,-4245,-6916,-115,0,-1,0
215873103,-0.21575927734375,0.543212890625,0.4605712890625,-0.66796875,-4208,-6955,-43,-1,-1,0
215883087,-0.2158203125,0.54315185546875,0.4605712890625,-0.66802978515625,-4214,-7005,-80,-1,0,1
215893071,-0.2156982421875,0.54327392578125,0.46051025390625,-0.66802978515625,-4271,-7036,-107,0,0,1
215903060,-0.215576171875,0.5433349609375,0.46038818359375,-0.6680908203125,-4320,-6986,-93,0,0,0
215913045,-0.215576171875,0.5433349609375,0.46038818359375,-0.6680908203125,-4312,-6899,-101,0,-1,-2
215923019,-0.21563720703125,0.54327392578125,0.46044921875,-0.6680908203125,-4304,-6875,-112,0,-1,-2
215932999,-0.21575927734375,0.54315185546875,0.4605712890625,-0.66802978515625,-4293,-6917,-116,-1,-1,-2
215942990,-0.21588134765625,0.5430908203125,0.460693359375,-0.66796875,-4255,-6950,-126,0,0,-1
215952971,-0.21588134765625,0.5430908203125,0.460693359375,-0.66796875,-4244,-6939,-119,-1,0,0
215962956,-0.2158203125,0.54315185546875,0.4605712890625,-0.66802978515625,-4288,-6919,-130,0,-1,0
215972936,-0.2156982421875,0.54327392578125,0.46051025390625,-0.66802978515625,-4323,-6899,-129,0,0,0
215982923,-0.21563720703125,0.54327392578125,0.46051025390625,-0.66802978515625,-4321,-6907,-120,-1,-1,-1
215992905,-0.2156982421875,0.54327392578125,0.4605712890625,-0.66802978515625,-4300,-6921,-128,0,0,-1
216002885,-0.2156982421875,0.54327392578125,0.4605712890625,-0.66796875,-4284,-6908,-134,0,0,-1
216012873,-0.21563720703125,0.54327392578125,0.4605712890625,-0.66802978515625,-4312,-6786,-172,-1,-1,0
216022862,-0.2154541015625,0.54345703125,0.46038818359375,-0.66802978515625,-4402,-6832,-152,0,0,0
216032846,-0.2154541015625,0.54345703125,0.46044921875,-0.66796875,-4416,-6917,-146,0,0,-2
216042827,-0.21563720703125,0.5433349609375,0.46051025390625,-0.66796875,-4314,-6875,-134,0,0,-2
216052797,-0.2156982421875,0.54327392578125,0.46063232421875,-0.66790771484375,-4273,-6878,-119,-1,0,-1
216062789,-0.21575927734375,0.54327392578125,0.46063232421875,-0.66790771484375,-4306,-6940,-118,0,0,0
216072774,-0.2156982421875,0.5433349609375,0.4605712890625,-0.66796875,-4320,-6958,-115,0,0,0
216082751,-0.2156982421875,0.5433349609375,0.4605712890625,-0.66796875,-4288,-6904,-103,-1,-1,0
216092736,-0.21575927734375,0.5433349609375,0.4605712890625,-0.66796875,-4287,-6880,-114,0,0,-1
216102719,-0.2156982421875,0.5433349609375,0.4605712890625,-0.66790771484375,-4316,-6919,-125,0,0,-1
216112702,-0.2156982421875,0.54327392578125,0.4605712890625,-0.66796875,-4307,-6936,-113,0,-1,-1
216122692,-0.2156982421875,0.54327392578125,0.4605712890625,-0.66796875,-4261,-6901,-103,0,0,0
216132666,-0.2156982421875,0.54327392578125,0.46051025390625,-0.66796875,-4266,-6876,-98,0,-1,0
216142654,-0.2156982421875,0.5433349609375,0.46051025390625,-0.66796875,-4288,-6902,-104,-1,0,0
216152643,-0.21563720703125,0.5433349609375,0.46051025390625,-0.66796875,-4301,-6921,-108,0,-1,-1
216162618,-0.2156982421875,0.5433349609375,0.46051025390625,-0.66802978515625,-4278,-6907,-120,0,-1,-1
216172612,-0.2156982421875,0.5433349609375,0.46051025390625,-0.66796875,-4277,-6914,-126,0,0,0
216182599,-0.2156982421875,0.5433349609375,0.46051025390625,-0.66796875,-4296,-6945,-113,0,0,-1
216192584,-0.2156982421875,0.5433349609375,0.46051025390625,-0.66796875,-4292,-6944,-117,0,-1,0
216202553,-0.21563720703125,0.5433349609375,0.46044921875,-0.66796875,-4281,-6893,-114,0,0,0
216212533,-0.2156982421875,0.5433349609375,0.46044921875,-0.66802978515625,-4275,-6897,-104,0,-1,0
216222517,-0.2156982421875,0.5433349609375,0.46051025390625,-0.66802978515625,-4286,-6928,-110,-1,0,-1
216232502,-0.2156982421875,0.5433349609375,0.46051025390625,-0.66802978515625,-4285,-6934,-121,0,-1,0
216242486,-0.21563720703125,0.5433349609375,0.46044921875,-0.66802978515625,-4277,-6892,-121,0,0,0
216252464,-0.21563720703125,0.5433349609375,0.46044921875,-0.66802978515625,-4281,-6903,-114,-1,0,-1
216262449,-0.21563720703125,0.5433349609375,0.46044921875,-0.66802978515625,-4293,-6935,-116,0,-1,-1
216272434,-0.2156982421875,0.5433349609375,0.46044921875,-0.66802978515625,-4278,-6935,-111,0,0,-1
216282419,-0.2156982421875,0.5433349609375,0.46044921875,-0.66802978515625,-4275,-6906,-117,0,-1,0
216292408,-0.2156982421875,0.5433349609375,0.46044921875,-0.66802978515625,-4280,-6926,-117,0,-1,0
216302384,-0.2156982421875,0.5433349609375,0.46044921875,-0.66796875,-4288,-6938,-118,0,0,0
216312369,-0.2156982421875,0.5433349609375,0.46044921875,-0.66802978515625,-4291,-6927,-108,-1,-1,0
216322343,-0.21563720703125,0.5433349609375,0.46038818359375,-0.66802978515625,-4292,-6907,-113,0,-1,0
216332332,-0.21563720703125,0.5433349609375,0.46038818359375,-0.66802978515625,-4296,-6903,-99,-1,-1,-1
216342313,-0.21563720703125,0.5433349609375,0.46044921875,-0.66802978515625,-4295,-6919,-113,0,0,-1
216352302,-0.2156982421875,0.54327392578125,0.46044921875,-0.66802978515625,-4284,-6921,-112,0,-1,-1
216362277,-0.2156982421875,0.54327392578125,0.46044921875,-0.66802978515625,-4285,-6922,-115,0,-1,-1
216372270,-0.2156982421875,0.54327392578125,0.46044921875,-0.66802978515625,-4284,-6914,-116,0,0,0
216382246,-0.2156982421875,0.54327392578125,0.46051025390625,-0.66802978515625,-4283,-6904,-116,0,0,-1
216392226,-0.21575927734375,0.54327392578125,0.46051025390625,-0.66802978515625,-4277,-6891,-109,0,0,-1
216402211,-0.21575927734375,0.543212890625,0.46051025390625,-0.66802978515625,-4278,-6885,-120,0,-1,-1
216412193,-0.21575927734375,0.543212890625,0.46051025390625,-0.66802978515625,-4288,-6888,-122,0,-1,-1
216422187,-0.21563720703125,0.5433349609375,0.46044921875,-0.66802978515625,-4414,-6960,-73,0,-1,-1
216432173,-0.21563720703125,0.5433349609375,0.46038818359375,-0.6680908203125,-4409,-7050,-132,0,0,1
216442148,-0.21551513671875,0.54345703125,0.46026611328125,-0.6680908203125,-4437,-7024,-130,0,-1,1
216452137,-0.2154541015625,0.54345703125,0.46026611328125,-0.6680908203125,-4385,-6928,-135,0,0,-1
216462109,-0.215576171875,0.54339599609375,0.4603271484375,-0.6680908203125,-4340,-6891,-128,0,-1,-2
216472094,-0.2156982421875,0.5433349609375,0.46044921875,-0.66802978515625,-4350,-6930,-133,0,0,-2
216482073,-0.21575927734375,0.54327392578125,0.4605712890625,-0.66796875,-4325,-6967,-136,-1,-1,-1
216492061,-0.21588134765625,0.543212890625,0.46063232421875,-0.66796875,-4235,-6947,-120,0,-1,0
216502041,-0.2158203125,0.543212890625,0.4605712890625,-0.66802978515625,-4235,-6913,-109,0,-1,1
216512026,-0.21563720703125,0.5433349609375,0.46038818359375,-0.6680908203125,-4307,-6917,-107,-1,-1,1
216522014,-0.215576171875,0.54339599609375,0.46038818359375,-0.6680908203125,-4316,-6911,-105,0,0,-1
216531991,-0.21563720703125,0.5433349609375,0.46038818359375,-0.6680908203125,-4277,-6895,-105,0,-1,-1
216541975,-0.21575927734375,0.54327392578125,0.46044921875,-0.66802978515625,-4262,-6907,-122,0,0,-1
216551953,-0.21575927734375,0.54327392578125,0.46051025390625,-0.66802978515625,-4266,-6957,-124,-1,-1,-1
216561946,-0.21575927734375,0.54327392578125,0.46051025390625,-0.66802978515625,-4272,-6951,-123,0,0,0
216571925,-0.2156982421875,0.54327392578125,0.46044921875,-0.66802978515625,-4271,-6923,-115,0,0,0
216581903,-0.2156982421875,0.5433349609375,0.46044921875,-0.66802978515625,-4281,-6912,-116,-1,0,0
216591892,-0.2156982421875,0.5433349609375,0.46044921875,-0.66802978515625,-4294,-6941,-120,0,0,-1
216601875,-0.2156982421875,0.5433349609375,0.46044921875,-0.66802978515625,-4278,-6933,-120,0,-1,-1
216611854,-0.21575927734375,0.54327392578125,0.46038818359375,-0.66802978515625,-4256,-6899,-115,0,-1,0
216621848,-0.2156982421875,0.5433349609375,0.46038818359375,-0.66802978515625,-4275,-6913,-120,0,0,0
216631827,-0.2156982421875,0.5433349609375,0.46038818359375,-0.66802978515625,-4281,-6927,-113,-1,0,-1
216641803,-0.21575927734375,0.5433349609375,0.46044921875,-0.66802978515625,-4273,-6921,-118,0,0,-1
216651796,-0.21575927734375,0.54327392578125,0.46044921875,-0.66802978515625,-4265,-6903,-125,0,-1,0
216661774,-0.21575927734375,0.54327392578125,0.46044921875,-0.66802978515625,-4279,-6911,-138,0,-1,-1
216671758,-0.21575927734375,0.5433349609375,0.46044921875,-0.66802978515625,-4280,-6920,-142,0,-1,0
216681734,-0.21575927734375,0.54327392578125,0.46044921875,-0.66802978515625,-4276,-6926,-131,-1,-1,0
216691717,-0.2156982421875,0.54327392578125,0.46044921875,-0.66802978515625,-4271,-6923,-131,0,-1,0
216701698,-0.2156982421875,0.5433349609375,0.46038818359375,-0.6680908203125,-3939,-6595,-149,0,-1,0
216711689,-0.21563720703125,0.54339599609375,0.46044921875,-0.66796875,-4100,-6730,-202,-1,0,2
216721666,-0.2154541015625,0.54351806640625,0.46026611328125,-0.66802978515625,-4293,-6822,-161,0,0,1
216731656,-0.2154541015625,0.54351806640625,0.46026611328125,-0.66802978515625,-4315,-6776,-159,-1,0,-3
216741637,-0.21575927734375,0.5433349609375,0.46051025390625,-0.66796875,-4251,-6785,-152,0,-1,-5
216751630,-0.21612548828125,0.5430908203125,0.4608154296875,-0.6678466796875,-4238,-6919,-132,0,0,-4
216761613,-0.21636962890625,0.54290771484375,0.4609375,-0.66778564453125,-4246,-6995,-125,0,0,-2
216771598,-0.2164306640625,0.54290771484375,0.46099853515625,-0.66778564453125,-4212,-6948,-127,0,-1,-1
216781581,-0.21636962890625,0.54290771484375,0.46099853515625,-0.66778564453125,-4206,-6881,-120,0,0,0
216791553,-0.21636962890625,0.54290771484375,0.4609375,-0.66778564453125,-4191,-6938,-119,0,0,0
216801532,-0.21624755859375,0.54296875,0.46087646484375,-0.6678466796875,-4203,-6969,-117,0,-1,2
216811516,-0.216064453125,0.54315185546875,0.460693359375,-0.66790771484375,-4225,-6904,-123,0,-1,2
216821508,-0.2158203125,0.54327392578125,0.46051025390625,-0.66796875,-4266,-6867,-111,0,-1,1
216831488,-0.2156982421875,0.5433349609375,0.46044921875,-0.66802978515625,-4308,-6905,-114,0,0,0
216841475,-0.2156982421875,0.5433349609375,0.46044921875,-0.66796875,-4307,-6938,-119,0,0,-1
216851457,-0.21575927734375,0.54327392578125,0.46044921875,-0.66802978515625,-4281,-6930,-116,0,-1,0
216861426,-0.21575927734375,0.54327392578125,0.46044921875,-0.66802978515625,-4250,-6916,-111,0,-1,0
216871420,-0.2156982421875,0.5433349609375,0.46038818359375,-0.66802978515625,-4264,-6917,-110,-1,0,0
216881406,-0.21563720703125,0.5433349609375,0.46038818359375,-0.6680908203125,-4277,-6905,-109,0,-1,0
216891384,-0.21563720703125,0.54339599609375,0.4603271484375,-0.6680908203125,-4273,-6876,-112,-1,0,0
216901364,-0.21563720703125,0.54339599609375,0.4603271484375,-0.6680908203125,-4263,-6886,-122,0,0,-1
216911348,-0.2156982421875,0.5433349609375,0.46038818359375,-0.66802978515625,-4273,-6918,-119,0,0,-1
216921334,-0.2156982421875,0.5433349609375,0.46038818359375,-0.66802978515625,-4267,-6924,-114,-1,0,0
216931315,-0.2156982421875,0.5433349609375,0.46038818359375,-0.66802978515625,-4260,-6893,-119,0,0,0
216941302,-0.21563720703125,0.54339599609375,0.46038818359375,-0.66802978515625,-4271,-6904,-117,-1,-1,0
216951278,-0.21563720703125,0.5433349609375,0.46038818359375,-0.66802978515625,-4278,-6927,-122,0,-1,-1
216961271,-0.21563720703125,0.5433349609375,0.46038818359375,-0.6680908203125,-4274,-6919,-113,0,-1,0
216971259,-0.2156982421875,0.5433349609375,0.46038818359375,-0.6680908203125,-4260,-6896,-117,0,0,0
216981228,-0.21563720703125,0.5433349609375,0.46038818359375,-0.6680908203125,-4267,-6917,-116,-1,-1,0
216991211,-0.2156982421875,0.54327392578125,0.46038818359375,-0.6680908203125,-4276,-6939,-118,0,-1,-1
217001196,-0.2156982421875,0.54327392578125,0.46038818359375,-0.6680908203125,-4268,-6924,-120,0,0,-1
217011191,-0.21575927734375,0.54327392578125,0.46044921875,-0.66802978515625,-4251,-6920,-133,0,0,0
217021174,-0.2156982421875,0.5433349609375,0.46038818359375,-0.6680908203125,-3681,-6771,239,0,-1,1
217031142,-0.2159423828125,0.54296875,0.4603271484375,-0.66827392578125,-3901,-7059,68,-1,0,6
217041125,-0.21527099609375,0.54339599609375,0.4598388671875,-0.66851806640625,-4205,-7115,20,0,-1,6
217051114,-0.21484375,0.54364013671875,0.45947265625,-0.668701171875,-4272,-6865,-19,0,0,1
217061090,-0.21490478515625,0.54364013671875,0.45947265625,-0.668701171875,-4316,-6705,-50,0,0,-4
217071068,-0.21533203125,0.54339599609375,0.45977783203125,-0.66851806640625,-4419,-6821,-64,0,0,-8
217081053,-0.21600341796875,0.54296875,0.4603271484375,-0.66827392578125,-4368,-6970,-76,0,-1,-9
217091046,-0.21673583984375,0.54254150390625,0.4608154296875,-0.6680908203125,-4133,-6957,-85,0,0,-5
217101034,-0.2169189453125,0.54241943359375,0.46099853515625,-0.66802978515625,-4012,-6950,-101,0,-1,1
217111013,-0.21661376953125,0.5426025390625,0.46075439453125,-0.6680908203125,-4136,-7033,-112,0,0,5
217120996,-0.216064453125,0.54296875,0.4603271484375,-0.668212890625,-4296,-7006,-111,0,-1,4
217130982,-0.2158203125,0.543212890625,0.4600830078125,-0.6683349609375,-4303,-6844,-104,0,0,1
217140958,-0.2158203125,0.543212890625,0.4600830078125,-0.6683349609375,-4297,-6781,-92,-1,0,-2
217150938,-0.21600341796875,0.5430908203125,0.460205078125,-0.66827392578125,-4329,-6900,-119,0,0,-3
217160924,-0.2161865234375,0.54296875,0.46038818359375,-0.668212890625,-4303,-6983,-119,-1,-1,-2
217170912,-0.21624755859375,0.54290771484375,0.46044921875,-0.66815185546875,-4218,-6926,-124,0,-1,0
217180892,-0.2161865234375,0.54296875,0.46038818359375,-0.668212890625,-4208,-6889,-120,0,-1,1
217190873,-0.216064453125,0.54302978515625,0.4603271484375,-0.66827392578125,-4288,-6935,-101,0,-1,0
217200873,-0.216064453125,0.54302978515625,0.46026611328125,-0.66827392578125,-4304,-6940,-109,0,0,-1
217210846,-0.216064453125,0.54302978515625,0.46026611328125,-0.66827392578125,-4256,-6870,-114,0,-1,-1
217220828,-0.216064453125,0.54302978515625,0.46026611328125,-0.66827392578125,-4255,-6870,-110,-1,0,-1
217230806,-0.21612548828125,0.54302978515625,0.4603271484375,-0.668212890625,-4305,-6947,-114,0,0,-1
217240791,-0.21612548828125,0.54296875,0.4603271484375,-0.668212890625,-4290,-6942,-116,0,-1,-1
217250780,-0.21612548828125,0.54302978515625,0.4603271484375,-0.668212890625,-4253,-6864,-115,0,0,0
217260758,-0.21612548828125,0.5430908203125,0.46026611328125,-0.668212890625,-4279,-6870,-114,0,0,0
217270743,-0.21612548828125,0.5430908203125,0.46026611328125,-0.668212890625,-4319,-6950,-113,-1,-1,-1
217280723,-0.21612548828125,0.54302978515625,0.46026611328125,-0.668212890625,-4301,-6937,-107,0,0,-1
217290717,-0.2161865234375,0.54302978515625,0.46026611328125,-0.668212890625,-4261,-6886,-105,0,-1,0
217300685,-0.21612548828125,0.54302978515625,0.46026611328125,-0.66827392578125,-4291,-6899,-119,-1,-1,0
217310680,-0.216064453125,0.54302978515625,0.46026611328125,-0.668212890625,-4316,-6950,-133,-1,0,-1
217320656,-0.21612548828125,0.54302978515625,0.4603271484375,-0.668212890625,-4287,-6929,-124,-1,-1,-1
217330645,-0.216064453125,0.54302978515625,0.4603271484375,-0.668212890625,-4265,-6895,-115,0,-1,0
217340630,-0.216064453125,0.54302978515625,0.46026611328125,-0.66827392578125,-4083,-6311,33,0,-1,0
217350616,-0.2159423828125,0.54315185546875,0.460205078125,-0.66827392578125,-4420,-6888,-160,-1,0,-2
217360599,-0.21612548828125,0.54302978515625,0.46038818359375,-0.66815185546875,-3945,-6124,9,0,-1,-3
217370582,-0.2161865234375,0.5430908203125,0.46063232421875,-0.66796875,-4118,-6568,-201,-1,0,-2
217380562,-0.21630859375,0.54296875,0.46063232421875,-0.66802978515625,-4301,-6945,-174,0,0,-1
217390546,-0.21630859375,0.54290771484375,0.460693359375,-0.66796875,-4196,-6907,-135,0,-1,0
217400515,-0.2161865234375,0.54296875,0.4605712890625,-0.6680908203125,-4121,-6780,-162,-1,-1,2
217410497,-0.2159423828125,0.5430908203125,0.46038818359375,-0.66815185546875,-4223,-6788,-125,0,-1,2
217420489,-0.21575927734375,0.543212890625,0.46026611328125,-0.668212890625,-4338,-6903,-147,0,0,0
217430475,-0.2158203125,0.543212890625,0.460205078125,-0.66827392578125,-4234,-6779,-104,0,-1,-1
217440451,-0.2158203125,0.54315185546875,0.46026611328125,-0.66827392578125,-4200,-6751,-104,0,-1,-1
217450437,-0.21588134765625,0.5430908203125,0.46026611328125,-0.66827392578125,-4272,-6849,-110,0,0,-1
217460425,-0.21588134765625,0.5430908203125,0.4603271484375,-0.668212890625,-4290,-6908,-116,-1,-1,0
217470407,-0.21588134765625,0.5430908203125,0.4603271484375,-0.66827392578125,-4237,-6865,-122,0,-1,0
217480389,-0.21588134765625,0.5430908203125,0.4603271484375,-0.668212890625,-4232,-6853,-113,0,0,0
217490366,-0.2158203125,0.54315185546875,0.46026611328125,-0.66827392578125,-4251,-6865,-99,-1,-1,0
217500352,-0.21588134765625,0.5430908203125,0.46026611328125,-0.66827392578125,-4277,-6915,-104,0,0,-1
217510338,-0.21588134765625,0.5430908203125,0.4603271484375,-0.66827392578125,-4263,-6904,-118,-1,-1,0
217520315,-0.2158203125,0.54315185546875,0.4603271484375,-0.668212890625,-4237,-6855,-133,0,-1,0
217530302,-0.2158203125,0.5430908203125,0.4603271484375,-0.668212890625,-4265,-6884,-126,-1,-1,-1
217540280,-0.2158203125,0.5430908203125,0.46038818359375,-0.668212890625,-4299,-6934,-136,0,-1,-1
217550273,-0.2158203125,0.5430908203125,0.46038818359375,-0.668212890625,-4271,-6909,-138,0,-1,0
217560248,-0.2158203125,0.5430908203125,0.46038818359375,-0.668212890625,-4242,-6875,-129,0,0,0
217570233,-0.2158203125,0.54315185546875,0.46038818359375,-0.668212890625,-4287,-6918,-138,-1,0,-1
217580216,-0.2158203125,0.54315185546875,0.46038818359375,-0.668212890625,-4294,-6956,-131,0,-1,-1
217590208,-0.21588134765625,0.54315185546875,0.46038818359375,-0.66815185546875,-4261,-6903,-128,0,0,0
217600184,-0.21588134765625,0.54315185546875,0.46038818359375,-0.66815185546875,-4247,-6873,-112,-1,0,0
217610165,-0.2158203125,0.54315185546875,0.46038818359375,-0.66815185546875,-4292,-6939,-128,-1,0,0
217620144,-0.2158203125,0.54315185546875,0.46038818359375,-0.6680908203125,-4237,-6913,-94,-1,0,-1
217630133,-0.2158203125,0.5433349609375,0.4605712890625,-0.66790771484375,-4350,-6983,100,0,-1,-1
217640112,-0.216064453125,0.54302978515625,0.4605712890625,-0.6680908203125,-4664,-7503,-94,-1,0,-4
217650095,-0.2164306640625,0.54278564453125,0.46087646484375,-0.66796875,-4422,-7356,-49,0,-1,-4
217660083,-0.21661376953125,0.54266357421875,0.46099853515625,-0.66790771484375,-4063,-6890,-71,0,-1,0
217670061,-0.21649169921875,0.542724609375,0.46087646484375,-0.66796875,-4197,-6993,-90,-1,0,2
217680048,-0.2161865234375,0.54296875,0.46063232421875,-0.66802978515625,-4468,-7226,-95,0,-1,2
217690026,-0.216064453125,0.54296875,0.46044921875,-0.66815185546875,-4400,-7128,-118,0,-1,0
217700008,-0.216064453125,0.54296875,0.46044921875,-0.668212890625,-4150,-6748,-74,0,-1,0
217709994,-0.21600341796875,0.54302978515625,0.46038818359375,-0.668212890625,-4256,-6829,-106,-1,0,0
217719976,-0.2159423828125,0.5430908203125,0.4603271484375,-0.668212890625,-4414,-7047,-108,-1,0,-1
217729966,-0.2159423828125,0.54302978515625,0.4603271484375,-0.668212890625,-4297,-6930,-115,0,-1,-1
217739941,-0.2159423828125,0.54302978515625,0.4603271484375,-0.66827392578125,-4155,-6738,-94,0,-1,1
217749927,-0.2158203125,0.5430908203125,0.46026611328125,-0.66827392578125,-4248,-6814,-103,-1,0,0
217759912,-0.2158203125,0.54315185546875,0.46026611328125,-0.66827392578125,-4379,-7022,-118,0,0,-1
217769896,-0.21588134765625,0.5430908203125,0.46026611328125,-0.66827392578125,-4304,-6976,-104,0,0,-1
217779877,-0.21588134765625,0.54302978515625,0.46026611328125,-0.66827392578125,-4182,-6785,-108,0,-1,0
217789861,-0.21588134765625,0.5430908203125,0.46026611328125,-0.66827392578125,-4266,-6855,-124,0,0,0
217799848,-0.21588134765625,0.54315185546875,0.46026611328125,-0.66827392578125,-4361,-7005,-132,-1,0,-1
217809838,-0.2159423828125,0.5430908203125,0.46026611328125,-0.66827392578125,-4276,-6932,-121,0,0,0
217819813,-0.21588134765625,0.54315185546875,0.46026611328125,-0.66827392578125,-4186,-6789,-114,-1,-1,0
217829796,-0.2158203125,0.54315185546875,0.460205078125,-0.66827392578125,-4291,-6882,-130,0,-1,0
217839782,-0.2158203125,0.54315185546875,0.460205078125,-0.66827392578125,-4369,-7014,-133,0,-1,-1
217849753,-0.21588134765625,0.5430908203125,0.46026611328125,-0.66827392578125,-4271,-6925,-124,0,-1,-1
217859743,-0.2159423828125,0.54315185546875,0.460205078125,-0.66827392578125,-4206,-6842,-127,0,0,0
217869726,-0.21588134765625,0.543212890625,0.46014404296875,-0.66827392578125,-4297,-6928,-126,0,0,0
217879717,-0.2158203125,0.543212890625,0.460205078125,-0.66827392578125,-4333,-6998,-130,0,-1,-1
217889691,-0.21588134765625,0.54315185546875,0.46026611328125,-0.66827392578125,-4247,-6897,-131,0,-1,-1
217899681,-0.21588134765625,0.54315185546875,0.460205078125,-0.66827392578125,-4216,-6846,-136,0,0,0
217909660,-0.2158203125,0.543212890625,0.460205078125,-0.66827392578125,-4302,-6934,-132,-1,0,0
217919648,-0.2158203125,0.54315185546875,0.460205078125,-0.66827392578125,-4307,-6973,-133,0,-1,-1
217929630,-0.21588134765625,0.5430908203125,0.46026611328125,-0.66827392578125,-4245,-6900,-137,0,-1,-1
217939613,-0.2158203125,0.54315185546875,0.46026611328125,-0.66827392578125,-4252,-6867,-129,-1,0,0
217949598,-0.2158203125,0.54315185546875,0.46026611328125,-0.66827392578125,-4303,-6926,-124,-1,0,0
217959588,-0.2158203125,0.54315185546875,0.46026611328125,-0.66827392578125,-4302,-6934,-128,0,-1,-1
217969566,-0.21588134765625,0.54315185546875,0.46026611328125,-0.66827392578125,-4254,-6878,-125,0,-1,-1
217979536,-0.2158203125,0.54315185546875,0.46026611328125,-0.66827392578125,-4263,-6865,-127,0,-1,0
217989528,-0.2158203125,0.54315185546875,0.46026611328125,-0.668212890625,-4305,-6930,-130,0,0,-1
217999506,-0.21588134765625,0.54315185546875,0.46026611328125,-0.668212890625,-4303,-6932,-122,0,0,-1
218009485,-0.21588134765625,0.54315185546875,0.46026611328125,-0.668212890625,-4268,-6886,-120,0,0,-1
218019475,-0.21588134765625,0.54315185546875,0.4603271484375,-0.668212890625,-4268,-6880,-120,-1,-1,0
218029448,-0.2159423828125,0.5430908203125,0.4603271484375,-0.668212890625,-4291,-6939,-119,-1,-1,-1
218039441,-0.2159423828125,0.5430908203125,0.4603271484375,-0.668212890625,-4284,-6936,-112,0,-1,0
218049422,-0.2159423828125,0.5430908203125,0.4603271484375,-0.668212890625,-4258,-6905,-121,-1,0,0
218059414,-0.2159423828125,0.5430908203125,0.4603271484375,-0.668212890625,-4268,-6902,-102,0,-1,-1
218069388,-0.2159423828125,0.5430908203125,0.4603271484375,-0.668212890625,-4298,-6934,-103,0,0,-1
218079370,-0.2159423828125,0.5430908203125,0.4603271484375,-0.66827392578125,-4297,-6903,-108,0,-1,-1
218089355,-0.2159423828125,0.5430908203125,0.4603271484375,-0.66827392578125,-4266,-6876,-109,0,0,0
218099335,-0.21588134765625,0.5430908203125,0.4603271484375,-0.66827392578125,-4277,-6894,-103,-1,-1,0
218109324,-0.21588134765625,0.5430908203125,0.4603271484375,-0.668212890625,-4291,-6924,-111,0,-1,-1
218119307,-0.2159423828125,0.5430908203125,0.4603271484375,-0.668212890625,-4275,-6908,-113,0,0,0
218129287,-0.2159423828125,0.5430908203125,0.4603271484375,-0.668212890625,-4258,-6884,-116,0,-1,0
218139269,-0.2159423828125,0.5430908203125,0.46026611328125,-0.668212890625,-4282,-6916,-111,0,0,0
218149252,-0.21588134765625,0.5430908203125,0.46026611328125,-0.66827392578125,-4292,-6923,-116,-1,-1,0
218159245,-0.2159423828125,0.5430908203125,0.46026611328125,-0.66827392578125,-4281,-6909,-107,0,-1,0
218169223,-0.2159423828125,0.5430908203125,0.46026611328125,-0.66827392578125,-4264,-6894,-113,0,-1,-1
218182419,-0.2159423828125,0.5430908203125,0.46026611328125,-0.66827392578125,-4273,-6917,-98,0,-1,-1
218189185,-0.2159423828125,0.54302978515625,0.46026611328125,-0.66827392578125,-4281,-6924,-98,-1,-1,-1
218199170,-0.21588134765625,0.54302978515625,0.46026611328125,-0.6683349609375,-3806,-6094,47,-1,-1,0
218209146,-0.21575927734375,0.54315185546875,0.460205078125,-0.6683349609375,-4467,-6867,-425,-4,3,0
218219131,-0.21575927734375,0.54339599609375,0.46044921875,-0.66796875,-5405,-8449,-195,2,-2,-7
218229105,-0.216796875,0.54248046875,0.46099853515625,-0.66796875,-4463,-7413,-197,2,-1,-8
218239091,-0.21734619140625,0.5421142578125,0.4613037109375,-0.66790771484375,-3347,-5606,-63,0,-1,-4
218249085,-0.21734619140625,0.5421142578125,0.46124267578125,-0.66790771484375,-3715,-6454,-59,-2,1,3
218259060,-0.21673583984375,0.54266357421875,0.46087646484375,-0.66796875,-4877,-8102,-196,-1,0,9
218269045,-0.216064453125,0.54315185546875,0.46026611328125,-0.66815185546875,-4497,-7385,-126,2,-2,7
218279025,-0.2156982421875,0.54327392578125,0.4598388671875,-0.66851806640625,-3756,-6135,-97,0,-1,4
218289014,-0.21539306640625,0.54351806640625,0.45965576171875,-0.66851806640625,-4135,-6325,-45,-1,0,0
218298991,-0.2154541015625,0.5435791015625,0.45977783203125,-0.66839599609375,-4950,-7492,-160,-1,0,-6
218308976,-0.216064453125,0.5430908203125,0.460205078125,-0.668212890625,-4579,-7293,-128,1,-1,-7
218318955,-0.216552734375,0.542724609375,0.46051025390625,-0.668212890625,-3830,-6361,-87,0,-1,-3
218328952,-0.21661376953125,0.542724609375,0.46063232421875,-0.6680908203125,-3924,-6643,-102,-1,0,1
218338924,-0.2164306640625,0.54290771484375,0.46051025390625,-0.6680908203125,-4522,-7434,-136,-1,0,2
218348915,-0.2161865234375,0.5430908203125,0.46026611328125,-0.66815185546875,-4497,-7346,-158,0,-1,3
218358890,-0.21588134765625,0.543212890625,0.46002197265625,-0.6683349609375,-4004,-6448,-93,0,-1,2
218368878,-0.2156982421875,0.54339599609375,0.4598388671875,-0.66839599609375,-4149,-6480,-97,-1,0,0
218378854,-0.21575927734375,0.54339599609375,0.4599609375,-0.66827392578125,-4638,-7220,-147,-1,0,-4
218388850,-0.21612548828125,0.54315185546875,0.460205078125,-0.66815185546875,-4465,-7202,-141,0,-1,-4
218398835,-0.21636962890625,0.54296875,0.46038818359375,-0.66815185546875,-3983,-6605,-104,0,-1,0
218408817,-0.21624755859375,0.54302978515625,0.4603271484375,-0.66815185546875,-4040,-6659,-95,-1,0,1
218418790,-0.216064453125,0.543212890625,0.460205078125,-0.66815185546875,-4500,-7232,-142,-1,0,0
218428780,-0.216064453125,0.543212890625,0.460205078125,-0.66815185546875,-4435,-7161,-133,0,-1,-1
218438759,-0.216064453125,0.543212890625,0.46014404296875,-0.668212890625,-4063,-6604,-85,0,-1,0
218448743,-0.21600341796875,0.54327392578125,0.4600830078125,-0.668212890625,-4157,-6634,-106,-1,0,0
218458723,-0.21600341796875,0.5433349609375,0.4600830078125,-0.66815185546875,-4510,-7139,-142,-1,0,-2
218468717,-0.21612548828125,0.54327392578125,0.460205078125,-0.6680908203125,-4397,-7126,-149,0,-1,-2
218478694,-0.21624755859375,0.54315185546875,0.4603271484375,-0.6680908203125,-4074,-6699,-123,0,-1,0
218488680,-0.21612548828125,0.543212890625,0.46026611328125,-0.66815185546875,-4150,-6746,-102,-1,0,1
218498662,-0.21600341796875,0.5433349609375,0.46014404296875,-0.66815185546875,-4448,-7118,-125,-1,0,0
218508650,-0.21600341796875,0.5433349609375,0.46014404296875,-0.6680908203125,-4366,-7044,-129,0,-1,-1
218518632,-0.216064453125,0.543212890625,0.460205078125,-0.66815185546875,-4134,-6705,-107,0,-1,0
218528611,-0.216064453125,0.54327392578125,0.460205078125,-0.66815185546875,-4227,-6801,-112,-1,0,0
218538601,-0.21600341796875,0.54327392578125,0.460205078125,-0.6680908203125,-4416,-7092,-123,-1,0,-1
218548587,-0.21612548828125,0.543212890625,0.46026611328125,-0.6680908203125,-4317,-7011,-135,0,-1,-1
218558554,-0.21612548828125,0.543212890625,0.46026611328125,-0.6680908203125,-4144,-6761,-111,0,-1,0
218568545,-0.21600341796875,0.54327392578125,0.460205078125,-0.6680908203125,-4253,-6843,-126,0,0,0
218578528,-0.21600341796875,0.5433349609375,0.460205078125,-0.6680908203125,-4403,-7036,-140,0,0,-1
218588510,-0.216064453125,0.54327392578125,0.460205078125,-0.6680908203125,-4309,-6953,-122,0,-1,-1
218598488,-0.216064453125,0.54327392578125,0.460205078125,-0.6680908203125,-4187,-6781,-107,0,-1,0
218608475,-0.21600341796875,0.5433349609375,0.460205078125,-0.6680908203125,-4267,-6877,-122,-1,-1,0
218618461,-0.21600341796875,0.5433349609375,0.460205078125,-0.6680908203125,-4351,-7008,-129,0,-1,-1
218628441,-0.21600341796875,0.54327392578125,0.460205078125,-0.6680908203125,-4280,-6932,-134,0,-1,0
218638420,-0.21600341796875,0.54327392578125,0.460205078125,-0.66815185546875,-4197,-6821,-123,-1,-1,0
218648413,-0.2159423828125,0.5433349609375,0.460205078125,-0.6680908203125,-4269,-6892,-131,0,0,0
218658388,-0.21600341796875,0.5433349609375,0.460205078125,-0.6680908203125,-4327,-6992,-123,-1,0,-1
218668379,-0.21600341796875,0.5433349609375,0.460205078125,-0.6680908203125,-4268,-6923,-117,0,-1,0
218678355,-0.2159423828125,0.5433349609375,0.46014404296875,-0.66815185546875,-4222,-6821,-114,0,-1,0
218688342,-0.2159423828125,0.5433349609375,0.46014404296875,-0.66815185546875,-4287,-6904,-121,0,0,0
218698321,-0.21588134765625,0.54339599609375,0.46014404296875,-0.6680908203125,-4325,-6976,-136,-1,0,-1
218708310,-0.2159423828125,0.5433349609375,0.46014404296875,-0.6680908203125,-4261,-6906,-123,0,-1,0
218718289,-0.21588134765625,0.5433349609375,0.46014404296875,-0.66815185546875,-4230,-6845,-118,0,-1,0
218728278,-0.21588134765625,0.54339599609375,0.46014404296875,-0.66815185546875,-4287,-6908,-125,0,0,-1
218738254,-0.2159423828125,0.5433349609375,0.46014404296875,-0.6680908203125,-4303,-6939,-129,0,0,-1
218748234,-0.2159423828125,0.5433349609375,0.46014404296875,-0.6680908203125,-4255,-6879,-122,0,0,-1
218758223,-0.2159423828125,0.5433349609375,0.46014404296875,-0.66815185546875,-4238,-6854,-119,0,-1,0
218768196,-0.21588134765625,0.5433349609375,0.46014404296875,-0.66815185546875,-4299,-6926,-112,-1,-1,0
218778192,-0.21588134765625,0.5433349609375,0.46014404296875,-0.66815185546875,-4306,-6958,-121,0,-1,-1
218788180,-0.2159423828125,0.5433349609375,0.460205078125,-0.66815185546875,-4262,-6903,-115,0,0,-1
218798157,-0.21588134765625,0.5433349609375,0.46014404296875,-0.66815185546875,-4262,-6882,-118,-1,0,0
218808135,-0.21588134765625,0.54339599609375,0.46014404296875,-0.66815185546875,-4294,-6926,-130,0,0,0
218818130,-0.21588134765625,0.54339599609375,0.46014404296875,-0.66815185546875,-4285,-6939,-126,0,-1,0
218828099,-0.2158203125,0.5433349609375,0.46014404296875,-0.66815185546875,-4248,-6885,-128,0,-1,0
218838085,-0.2158203125,0.5433349609375,0.46014404296875,-0.66815185546875,-4255,-6880,-131,0,-1,0
218848073,-0.21588134765625,0.5433349609375,0.46014404296875,-0.66815185546875,-4287,-6934,-129,0,0,-1
218858053,-0.21588134765625,0.5433349609375,0.46014404296875,-0.66815185546875,-4289,-6937,-127,0,0,-1
218868036,-0.21588134765625,0.54339599609375,0.46014404296875,-0.66815185546875,-4271,-6897,-113,0,-1,0
218878018,-0.2159423828125,0.5433349609375,0.46014404296875,-0.66815185546875,-4273,-6913,-114,0,0,-1
218887996,-0.2159423828125,0.5433349609375,0.46014404296875,-0.66815185546875,-4289,-6946,-118,-1,0,-1
218897991,-0.2159423828125,0.54339599609375,0.46014404296875,-0.6680908203125,-4279,-6943,-129,0,-1,0
218907972,-0.2159423828125,0.54339599609375,0.46014404296875,-0.6680908203125,-4264,-6912,-120,0,0,0
218917951,-0.21588134765625,0.54339599609375,0.46014404296875,-0.66815185546875,-4289,-6912,-107,-1,-1,-1
218927933,-0.2159423828125,0.5433349609375,0.46014404296875,-0.6680908203125,-4306,-6934,-117,0,0,-1
218937922,-0.2159423828125,0.5433349609375,0.460205078125,-0.6680908203125,-4291,-6919,-113,0,0,0
218947902,-0.2159423828125,0.5433349609375,0.460205078125,-0.6680908203125,-4276,-6907,-117,0,-1,0
218957884,-0.2159423828125,0.5433349609375,0.46014404296875,-0.6680908203125,-4289,-6912,-105,-1,0,-1
218967873,-0.2159423828125,0.5433349609375,0.46014404296875,-0.66815185546875,-4293,-6928,-116,0,0,0
218977852,-0.2159423828125,0.5433349609375,0.46014404296875,-0.6680908203125,-4271,-6919,-125,0,0,0
218987836,-0.2159423828125,0.54339599609375,0.46014404296875,-0.6680908203125,-4263,-6911,-126,-1,-1,0
218997827,-0.2159423828125,0.54339599609375,0.46014404296875,-0.6680908203125,-4281,-6909,-121,0,-1,-1
219007801,-0.2159423828125,0.54339599609375,0.46014404296875,-0.6680908203125,-4293,-6925,-121,0,0,-1
219017790,-0.21600341796875,0.54339599609375,0.460205078125,-0.6680908203125,-4282,-6923,-111,0,-1,0
219027774,-0.2159423828125,0.54339599609375,0.46014404296875,-0.6680908203125,-4286,-6910,-110,0,-1,0
219037747,-0.2159423828125,0.54339599609375,0.46014404296875,-0.6680908203125,-4281,-6916,-106,-1,0,0
219047727,-0.2159423828125,0.54339599609375,0.46014404296875,-0.6680908203125,-4300,-6933,-107,-1,0,-1
219057717,-0.2159423828125,0.54339599609375,0.4600830078125,-0.6680908203125,-4299,-6925,-113,0,-1,0
219067700,-0.21588134765625,0.54339599609375,0.4600830078125,-0.66815185546875,-4302,-6919,-112,0,0,0
219077683,-0.2159423828125,0.54345703125,0.4600830078125,-0.6680908203125,-4304,-6939,-122,0,0,-1
219087668,-0.2159423828125,0.54345703125,0.4600830078125,-0.6680908203125,-4297,-6947,-118,-1,0,0
219097653,-0.21588134765625,0.54345703125,0.4600830078125,-0.6680908203125,-4294,-6925,-112,0,-1,0
219107634,-0.21588134765625,0.54345703125,0.4600830078125,-0.66815185546875,-4297,-6910,-111,0,-1,0
219117616,-0.21588134765625,0.54339599609375,0.4600830078125,-0.66815185546875,-4294,-6927,-113,0,-1,-1
219127616,-0.21588134765625,0.54345703125,0.4600830078125,-0.6680908203125,-4285,-6926,-119,0,0,0
219137598,-0.2159423828125,0.54339599609375,0.4600830078125,-0.6680908203125,-4271,-6920,-108,0,-1,0
219147567,-0.2159423828125,0.54345703125,0.4600830078125,-0.6680908203125,-4271,-6915,-111,-1,0,0
219157543,-0.21588134765625,0.54345703125,0.4600830078125,-0.6680908203125,-4275,-6919,-120,0,-1,0
219167527,-0.2159423828125,0.54345703125,0.4600830078125,-0.6680908203125,-4266,-6918,-121,0,0,-1
219177515,-0.2159423828125,0.54345703125,0.4600830078125,-0.6680908203125,-4259,-6906,-118,0,-1,0
219187489,-0.21588134765625,0.54345703125,0.4600830078125,-0.6680908203125,-4265,-6931,-112,-1,-1,0
219197477,-0.21588134765625,0.54339599609375,0.4600830078125,-0.66815185546875,-4275,-6925,-113,0,-1,-1
219207465,-0.21588134765625,0.54339599609375,0.46014404296875,-0.66815185546875,-4270,-6924,-120,0,-1,0
219217442,-0.21588134765625,0.54339599609375,0.46014404296875,-0.66815185546875,-4257,-6927,-120,0,-1,0
219227422,-0.2158203125,0.54339599609375,0.46014404296875,-0.66815185546875,-4272,-6938,-115,-1,-1,0
219237418,-0.2158203125,0.54339599609375,0.46014404296875,-0.66815185546875,-4270,-6937,-129,0,0,0
219247390,-0.2158203125,0.54339599609375,0.46014404296875,-0.66815185546875,-4283,-6925,-119,-1,0,-1
219257377,-0.21588134765625,0.54339599609375,0.4600830078125,-0.66815185546875,-4275,-6923,-118,0,0,0
219267352,-0.21588134765625,0.54339599609375,0.4600830078125,-0.66815185546875,-4276,-6923,-117,0,0,0
219277340,-0.21588134765625,0.54339599609375,0.4600830078125,-0.6680908203125,-4273,-6921,-113,0,0,-1
219287324,-0.2159423828125,0.54339599609375,0.4600830078125,-0.6680908203125,-4258,-6923,-107,0,0,-1
219297311,-0.21600341796875,0.54339599609375,0.4600830078125,-0.6680908203125,-4258,-6928,-108,0,-1,0
219307291,-0.2159423828125,0.54339599609375,0.46014404296875,-0.6680908203125,-4258,-6937,-116,0,-1,-1
219317278,-0.21600341796875,0.5433349609375,0.46014404296875,-0.6680908203125,-4266,-6933,-115,0,0,-1
219327263,-0.21600341796875,0.5433349609375,0.46014404296875,-0.6680908203125,-4263,-6916,-122,0,-1,0
219337234,-0.2159423828125,0.54339599609375,0.46014404296875,-0.6680908203125,-4272,-6913,-127,-1,-1,0
219347223,-0.2159423828125,0.54339599609375,0.46014404296875,-0.6680908203125,-4273,-6915,-128,0,-1,-1
219357208,-0.2159423828125,0.54339599609375,0.46014404296875,-0.6680908203125,-4276,-6922,-132,0,-1,0
219367190,-0.2159423828125,0.54339599609375,0.46014404296875,-0.6680908203125,-4275,-6914,-133,0,0,0
219377177,-0.21588134765625,0.54339599609375,0.460205078125,-0.6680908203125,-4274,-6916,-129,-1,-1,0
219387164,-0.21588134765625,0.54339599609375,0.460205078125,-0.6680908203125,-4267,-6921,-142,0,-1,0
219397138,-0.2159423828125,0.54339599609375,0.460205078125,-0.66802978515625,-4263,-6909,-143,-1,0,-1
219407119,-0.21588134765625,0.54345703125,0.46026611328125,-0.66802978515625,-4256,-6915,-150,-1,0,0
219417103,-0.21588134765625,0.54345703125,0.460205078125,-0.66796875,-4274,-6923,-150,0,0,0
219427085,-0.21588134765625,0.54345703125,0.46026611328125,-0.66796875,-4267,-6914,-145,-1,0,0
219437065,-0.21588134765625,0.54351806640625,0.46026611328125,-0.66796875,-4280,-6907,-145,-1,0,0
219447060,-0.21588134765625,0.54351806640625,0.460205078125,-0.66796875,-4286,-6921,-133,0,-1,0
219457040,-0.21588134765625,0.54345703125,0.460205078125,-0.66796875,-4282,-6921,-121,0,-1,-1
219467022,-0.21588134765625,0.54351806640625,0.460205078125,-0.66796875,-4282,-6917,-124,0,0,-1
219477008,-0.21588134765625,0.54351806640625,0.460205078125,-0.66796875,-4275,-6900,-120,0,-1,0
219486980,-0.2158203125,0.54351806640625,0.460205078125,-0.66802978515625,-4279,-6892,-110,-1,-1,0
219496966,-0.2158203125,0.54351806640625,0.460205078125,-0.66802978515625,-4271,-6909,-119,0,-1,0
219506957,-0.2158203125,0.54351806640625,0.460205078125,-0.66802978515625,-4278,-6911,-120,0,-1,0
219516949,-0.2158203125,0.54351806640625,0.460205078125,-0.66802978515625,-4276,-6911,-119,0,-1,0
219526923,-0.2158203125,0.54351806640625,0.46014404296875,-0.66802978515625,-4286,-6897,-110,0,-1,0
219536907,-0.2158203125,0.54351806640625,0.46014404296875,-0.66802978515625,-4281,-6901,-121,-1,0,0
219546885,-0.2158203125,0.54351806640625,0.46014404296875,-0.66802978515625,-4290,-6903,-130,0,0,0
219556861,-0.2158203125,0.54351806640625,0.46014404296875,-0.66802978515625,-4277,-6918,-122,0,0,0
219566854,-0.2158203125,0.5435791015625,0.46014404296875,-0.66802978515625,-4278,-6911,-112,-1,0,0
219576839,-0.2158203125,0.5435791015625,0.4600830078125,-0.66802978515625,-4273,-6898,-114,0,0,0
219586826,-0.2158203125,0.5435791015625,0.4600830078125,-0.66796875,-4274,-6891,-125,0,0,-1
219596798,-0.2158203125,0.5435791015625,0.4600830078125,-0.66796875,-4278,-6896,-128,0,0,-1
219606787,-0.2158203125,0.54364013671875,0.4600830078125,-0.66796875,-4290,-6893,-139,0,0,0
219616767,-0.21588134765625,0.54364013671875,0.4600830078125,-0.66796875,-4285,-6904,-135,0,0,0
219626745,-0.2158203125,0.54364013671875,0.4600830078125,-0.66796875,-4287,-6901,-127,-1,0,0
219636731,-0.2158203125,0.54364013671875,0.4600830078125,-0.66796875,-4276,-6895,-131,0,-1,0
219646717,-0.2158203125,0.54364013671875,0.46014404296875,-0.66796875,-4278,-6899,-121,-1,-1,-1
219656706,-0.2158203125,0.54364013671875,0.4600830078125,-0.66796875,-4282,-6906,-127,0,0,0
219666680,-0.2158203125,0.54364013671875,0.4600830078125,-0.66796875,-4271,-6896,-127,-1,0,0
219676663,-0.2158203125,0.54364013671875,0.46014404296875,-0.66796875,-4263,-6901,-135,0,0,-1
219686660,-0.21588134765625,0.54364013671875,0.46014404296875,-0.66796875,-4261,-6898,-117,0,0,-1
219696641,-0.21588134765625,0.5435791015625,0.46014404296875,-0.66796875,-4264,-6905,-102,0,-1,0
219706612,-0.21588134765625,0.5435791015625,0.4600830078125,-0.66796875,-4268,-6904,-97,-1,-1,0
219716615,-0.21588134765625,0.54364013671875,0.4600830078125,-0.66796875,-4277,-6913,-112,0,0,-1
219726598,-0.21588134765625,0.5435791015625,0.4600830078125,-0.66796875,-4266,-6924,-94,0,0,-1
219736583,-0.21588134765625,0.5435791015625,0.4600830078125,-0.66796875,-4270,-6915,-106,0,0,0
219746552,-0.2159423828125,0.5435791015625,0.46014404296875,-0.66796875,-4274,-6929,-110,0,0,-1
219756538,-0.2159423828125,0.5435791015625,0.46014404296875,-0.66796875,-4283,-6934,-107,0,-1,0
219766507,-0.2159423828125,0.5435791015625,0.4600830078125,-0.66796875,-4272,-6932,-111,0,-1,0
219776501,-0.2159423828125,0.5435791015625,0.46014404296875,-0.66796875,-4269,-6926,-119,0,0,0
219786479,-0.2159423828125,0.5435791015625,0.46014404296875,-0.66796875,-4280,-6932,-104,-1,0,-1
219796468,-0.2159423828125,0.5435791015625,0.46014404296875,-0.66796875,-4287,-6916,-122,0,-1,0
219806450,-0.21588134765625,0.5435791015625,0.46014404296875,-0.66796875,-4293,-6919,-120,0,0,0
219816432,-0.2159423828125,0.5435791015625,0.46014404296875,-0.66796875,-4274,-6920,-119,0,0,-1
219826418,-0.2159423828125,0.54364013671875,0.46014404296875,-0.66790771484375,-4280,-6925,-119,-1,0,0
219836400,-0.2159423828125,0.54364013671875,0.46014404296875,-0.66790771484375,-4281,-6920,-121,0,0,-1
219846383,-0.2159423828125,0.54364013671875,0.46014404296875,-0.66790771484375,-4274,-6911,-124,0,-1,0
219856356,-0.2159423828125,0.54364013671875,0.46014404296875,-0.66790771484375,-4280,-6911,-124,-1,-1,0
219866347,-0.2159423828125,0.54364013671875,0.46014404296875,-0.66790771484375,-4285,-6913,-124,0,0,0
219876325,-0.21588134765625,0.54364013671875,0.46014404296875,-0.66790771484375,-4293,-6899,-120,-1,-1,0
219886316,-0.21588134765625,0.54364013671875,0.46014404296875,-0.66790771484375,-4279,-6901,-123,0,-1,-1
219896295,-0.21588134765625,0.54364013671875,0.46014404296875,-0.66790771484375,-4268,-6903,-133,0,-1,0
219906278,-0.21588134765625,0.54364013671875,0.46014404296875,-0.66790771484375,-4267,-6914,-128,0,0,-1
219916264,-0.21588134765625,0.54364013671875,0.46014404296875,-0.66790771484375,-4254,-6901,-127,0,-1,0
219926242,-0.21588134765625,0.54364013671875,0.46014404296875,-0.66790771484375,-4266,-6911,-124,-1,0,0
219936228,-0.21588134765625,0.54364013671875,0.460205078125,-0.6678466796875,-4260,-6911,-134,0,0,-1
219946209,-0.21588134765625,0.54364013671875,0.460205078125,-0.6678466796875,-4260,-6915,-124,0,-1,-1
219956190,-0.21588134765625,0.54364013671875,0.460205078125,-0.66790771484375,-4273,-6909,-116,0,0,-1
219966187,-0.21588134765625,0.54364013671875,0.460205078125,-0.66790771484375,-4278,-6906,-108,0,-1,0
219976170,-0.2159423828125,0.54364013671875,0.460205078125,-0.66790771484375,-4268,-6904,-110,0,-1,-1
219986145,-0.2159423828125,0.5435791015625,0.460205078125,-0.66790771484375,-4264,-6912,-113,0,-1,-1
219996115,-0.2159423828125,0.5435791015625,0.460205078125,-0.66790771484375,-4268,-6901,-119,0,-1,-1
220006115,-0.2159423828125,0.5435791015625,0.460205078125,-0.66790771484375,-4277,-6931,-121,0,0,0
220016086,-0.2159423828125,0.5435791015625,0.460205078125,-0.66790771484375,-4304,-6951,-139,-1,0,0
220026077,-0.2159423828125,0.5435791015625,0.460205078125,-0.66790771484375,-4290,-6940,-108,0,-1,-1
220036060,-0.2159423828125,0.5435791015625,0.460205078125,-0.66790771484375,-4286,-6963,-132,0,0,0
220046041,-0.2159423828125,0.5435791015625,0.460205078125,-0.66790771484375,-4267,-6927,-103,0,-1,0
