subject,Still with noise
arm,neither
label,0
hz,100.16945332520848
time,5.271068

timestamp_us,q0,q1,q2,q3,ax,ay,az,gx,gy,gz
208096280,-0.2137451171875,0.5423583984375,0.4613037109375,-0.6688232421875,-4290,-6947,-108,0,-1,-1
208106274,-0.21380615234375,0.54229736328125,0.46136474609375,-0.6688232421875,-4288,-6963,-130,0,-1,0
208116243,-0.2137451171875,0.54229736328125,0.4613037109375,-0.66888427734375,-4289,-6912,-111,0,-1,0
208126235,-0.2137451171875,0.54229736328125,0.46136474609375,-0.6688232421875,-4298,-6924,-128,0,-1,-1
208136223,-0.2137451171875,0.5423583984375,0.46136474609375,-0.6688232421875,-4302,-6912,-119,0,-1,0
208146192,-0.2137451171875,0.5423583984375,0.46136474609375,-0.6688232421875,-4291,-6908,-127,-1,0,-1
208156188,-0.2137451171875,0.5423583984375,0.4613037109375,-0.6688232421875,-4289,-6908,-124,0,0,0
208166178,-0.2137451171875,0.5423583984375,0.4613037109375,-0.6688232421875,-4298,-6910,-127,0,-1,0
208176156,-0.2137451171875,0.5423583984375,0.46136474609375,-0.6688232421875,-4284,-6899,-118,0,-1,-1
208186131,-0.2137451171875,0.5423583984375,0.4613037109375,-0.6688232421875,-4286,-6913,-119,0,-1,0
208196114,-0.2137451171875,0.5423583984375,0.4613037109375,-0.6688232421875,-4285,-6907,-113,0,0,0
208206104,-0.2137451171875,0.5423583984375,0.4613037109375,-0.6688232421875,-4280,-6912,-112,0,-1,0
208216077,-0.2137451171875,0.54229736328125,0.4613037109375,-0.66888427734375,-4286,-6917,-113,0,-1,-1
208226063,-0.21368408203125,0.5423583984375,0.4613037109375,-0.66888427734375,-4282,-6886,-110,0,-1,0
208236051,-0.21368408203125,0.5423583984375,0.4613037109375,-0.66888427734375,-4275,-6884,-123,0,-1,-1
208246031,-0.2137451171875,0.5423583984375,0.4613037109375,-0.66888427734375,-4276,-6901,-108,0,0,-1
208256007,-0.2137451171875,0.54229736328125,0.4613037109375,-0.66888427734375,-4265,-6906,-115,0,-1,-1
208265998,-0.21380615234375,0.54229736328125,0.4613037109375,-0.66888427734375,-4263,-6889,-110,0,0,0
208275973,-0.21380615234375,0.54229736328125,0.4613037109375,-0.66888427734375,-4269,-6901,-106,-1,0,0
208285958,-0.21380615234375,0.54229736328125,0.4613037109375,-0.66888427734375,-4270,-6915,-103,0,0,0
208295943,-0.21380615234375,0.54229736328125,0.4613037109375,-0.66888427734375,-4278,-6911,-108,0,-1,-1
208305924,-0.21380615234375,0.54229736328125,0.46124267578125,-0.66888427734375,-4291,-6909,-110,0,-1,0
208315912,-0.21380615234375,0.54229736328125,0.46124267578125,-0.66888427734375,-4292,-6924,-111,0,0,0
208325888,-0.2137451171875,0.54229736328125,0.46124267578125,-0.6689453125,-4289,-6916,-107,-1,0,0
208335876,-0.2137451171875,0.54229736328125,0.46124267578125,-0.6689453125,-4292,-6917,-100,0,-1,0
208345855,-0.2137451171875,0.54229736328125,0.46124267578125,-0.6689453125,-4296,-6920,-99,0,-1,0
208355854,-0.2137451171875,0.54229736328125,0.461181640625,-0.6689453125,-4305,-6939,-108,0,0,-1
208365838,-0.2137451171875,0.54229736328125,0.461181640625,-0.6689453125,-4314,-6937,-103,0,-1,0
208375819,-0.2137451171875,0.54229736328125,0.461181640625,-0.6689453125,-4304,-6920,-113,0,0,0
208385790,-0.2137451171875,0.54229736328125,0.461181640625,-0.6689453125,-4303,-6929,-120,-1,-1,0
208395774,-0.2137451171875,0.54229736328125,0.46124267578125,-0.6689453125,-4290,-6915,-122,0,-1,-1
208405758,-0.21380615234375,0.54229736328125,0.461181640625,-0.6689453125,-4283,-6913,-121,0,0,-1
208415734,-0.21380615234375,0.54229736328125,0.461181640625,-0.6689453125,-4292,-6914,-124,0,0,-1
208425727,-0.21380615234375,0.5423583984375,0.461181640625,-0.6689453125,-4291,-6908,-132,0,0,0
208435703,-0.21380615234375,0.5423583984375,0.461181640625,-0.66888427734375,-4282,-6905,-120,-1,0,-1
208445694,-0.21380615234375,0.5423583984375,0.461181640625,-0.66888427734375,-4284,-6902,-120,0,-1,0
208455664,-0.21380615234375,0.54229736328125,0.461181640625,-0.6689453125,-4285,-6904,-121,-1,-1,0
208465664,-0.21380615234375,0.5423583984375,0.461181640625,-0.66888427734375,-4288,-6907,-125,0,0,0
208475641,-0.2137451171875,0.5423583984375,0.461181640625,-0.6689453125,-4300,-6908,-119,-1,-1,0
208485630,-0.2137451171875,0.5423583984375,0.461181640625,-0.6689453125,-4288,-6910,-121,0,-1,-1
208495616,-0.2137451171875,0.54229736328125,0.461181640625,-0.6689453125,-4287,-6910,-119,0,-1,-1
208505600,-0.21380615234375,0.54229736328125,0.461181640625,-0.6689453125,-4286,-6923,-118,0,-1,-1
208515590,-0.21380615234375,0.54229736328125,0.461181640625,-0.6689453125,-4290,-6913,-124,0,0,0
208525551,-0.21380615234375,0.54229736328125,0.461181640625,-0.6689453125,-4292,-6913,-120,0,0,-1
208535541,-0.21380615234375,0.54229736328125,0.461181640625,-0.6689453125,-4284,-6906,-118,0,-1,0
208545529,-0.21380615234375,0.54229736328125,0.461181640625,-0.6689453125,-4277,-6895,-120,0,0,-1
208555498,-0.21380615234375,0.54229736328125,0.46124267578125,-0.6689453125,-4285,-6896,-120,-1,-1,-1
208565485,-0.21380615234375,0.54229736328125,0.461181640625,-0.6689453125,-4281,-6901,-124,0,-1,0
208575475,-0.21380615234375,0.54229736328125,0.46124267578125,-0.6689453125,-4285,-6909,-119,-1,0,-1
208585455,-0.2138671875,0.54229736328125,0.461181640625,-0.6689453125,-4289,-6910,-127,0,0,0
208595434,-0.21380615234375,0.54229736328125,0.46124267578125,-0.6689453125,-4286,-6906,-116,-1,-1,-1
208605420,-0.2138671875,0.54229736328125,0.46124267578125,-0.6689453125,-4290,-6902,-124,0,0,-1
208615411,-0.2138671875,0.54229736328125,0.461181640625,-0.66888427734375,-4298,-6904,-125,-1,-1,0
208625387,-0.2138671875,0.5423583984375,0.461181640625,-0.66888427734375,-4296,-6908,-125,0,0,-1
208635369,-0.2138671875,0.54229736328125,0.461181640625,-0.66888427734375,-4282,-6911,-115,0,0,0
208645358,-0.2138671875,0.54229736328125,0.461181640625,-0.6689453125,-4287,-6895,-113,0,-1,0
208655336,-0.2138671875,0.54229736328125,0.461181640625,-0.6689453125,-4283,-6896,-110,0,-1,0
208665316,-0.2138671875,0.54229736328125,0.461181640625,-0.6689453125,-4280,-6900,-105,-1,0,0
208675306,-0.2138671875,0.54229736328125,0.461181640625,-0.6689453125,-4297,-6896,-100,0,0,0
208685281,-0.2138671875,0.54229736328125,0.461181640625,-0.6689453125,-4303,-6906,-105,-1,0,-1
208695268,-0.21392822265625,0.54229736328125,0.46112060546875,-0.6689453125,-4301,-6912,-109,0,0,0
208705249,-0.21392822265625,0.54229736328125,0.46112060546875,-0.6689453125,-4298,-6905,-105,0,0,0
208715230,-0.2138671875,0.5423583984375,0.46112060546875,-0.6689453125,-4284,-6914,-107,-1,-1,0
208725213,-0.2138671875,0.54229736328125,0.46112060546875,-0.6689453125,-4285,-6912,-113,0,-1,0
208735193,-0.2138671875,0.5423583984375,0.46112060546875,-0.6689453125,-4299,-6920,-124,-1,-1,0
208745191,-0.2138671875,0.5423583984375,0.46112060546875,-0.6689453125,-4291,-6921,-115,0,0,-1
208755172,-0.21392822265625,0.54229736328125,0.46112060546875,-0.6689453125,-4291,-6925,-120,0,-1,-1
208765144,-0.21392822265625,0.54229736328125,0.46112060546875,-0.6689453125,-4288,-6928,-123,0,0,-1
208775130,-0.2139892578125,0.54229736328125,0.46112060546875,-0.66888427734375,-4284,-6925,-123,0,0,0
208785117,-0.2139892578125,0.54229736328125,0.46112060546875,-0.6689453125,-4283,-6925,-117,0,-1,0
208795092,-0.2139892578125,0.54229736328125,0.46112060546875,-0.6689453125,-4289,-6914,-112,0,-1,0
208805081,-0.21392822265625,0.5423583984375,0.46112060546875,-0.6689453125,-4293,-6898,-126,-1,0,0
208815063,-0.21392822265625,0.5423583984375,0.46112060546875,-0.6689453125,-4284,-6903,-120,-1,0,0
208825044,-0.21392822265625,0.5423583984375,0.461181640625,-0.66888427734375,-4273,-6910,-137,-1,-1,0
208835025,-0.21392822265625,0.5423583984375,0.461181640625,-0.66888427734375,-4268,-6912,-136,0,-1,-1
208845020,-0.21392822265625,0.5423583984375,0.461181640625,-0.66888427734375,-4268,-6893,-135,0,0,0
208854999,-0.21392822265625,0.5423583984375,0.461181640625,-0.66888427734375,-4260,-6894,-140,0,-1,0
208864984,-0.21392822265625,0.5423583984375,0.461181640625,-0.66888427734375,-4273,-6899,-129,0,0,0
208874968,-0.21392822265625,0.5423583984375,0.461181640625,-0.66888427734375,-4277,-6900,-133,0,-1,-1
208884942,-0.21392822265625,0.5423583984375,0.461181640625,-0.66888427734375,-4279,-6923,-144,0,0,-1
208894926,-0.2139892578125,0.5423583984375,0.461181640625,-0.6688232421875,-4274,-6919,-141,0,0,-1
208904916,-0.2139892578125,0.54241943359375,0.461181640625,-0.6688232421875,-4285,-6920,-130,0,0,0
208914890,-0.2139892578125,0.54241943359375,0.461181640625,-0.6688232421875,-4273,-6920,-109,-1,0,0
208924876,-0.2139892578125,0.54241943359375,0.461181640625,-0.6688232421875,-4264,-6919,-107,0,0,0
208934862,-0.2139892578125,0.5423583984375,0.461181640625,-0.6688232421875,-4273,-6926,-113,0,-1,-1
208944853,-0.2139892578125,0.5423583984375,0.461181640625,-0.6688232421875,-4280,-6921,-116,0,-1,0
208954832,-0.21392822265625,0.5423583984375,0.461181640625,-0.66888427734375,-4294,-6915,-122,-1,-1,0
208964813,-0.21392822265625,0.5423583984375,0.461181640625,-0.66888427734375,-4298,-6923,-120,0,-1,0
208974797,-0.21392822265625,0.5423583984375,0.46112060546875,-0.66888427734375,-4301,-6914,-123,0,-1,0
208984775,-0.21392822265625,0.5423583984375,0.46112060546875,-0.66888427734375,-4297,-6918,-109,0,0,0
208994763,-0.21392822265625,0.54241943359375,0.46112060546875,-0.66888427734375,-4291,-6920,-112,0,0,-1
209004740,-0.2139892578125,0.54241943359375,0.46112060546875,-0.66888427734375,-4300,-6908,-110,0,0,-1
209014723,-0.2139892578125,0.54241943359375,0.46112060546875,-0.66888427734375,-4286,-6916,-112,-1,0,0
209024708,-0.21392822265625,0.54241943359375,0.4610595703125,-0.66888427734375,-4302,-6908,-114,0,0,0
209034693,-0.21392822265625,0.54241943359375,0.4610595703125,-0.66888427734375,-4297,-6911,-116,0,-1,0
209044667,-0.21392822265625,0.54241943359375,0.4610595703125,-0.66888427734375,-4296,-6912,-109,0,-1,0
209054665,-0.21392822265625,0.54241943359375,0.4610595703125,-0.66888427734375,-4299,-6910,-120,-1,0,0
209064641,-0.2138671875,0.54248046875,0.4610595703125,-0.66888427734375,-4297,-6904,-122,-1,-1,0
209074619,-0.2138671875,0.54248046875,0.4610595703125,-0.66888427734375,-4291,-6904,-117,-1,-1,-1
209084618,-0.2138671875,0.54248046875,0.4610595703125,-0.66888427734375,-4292,-6906,-115,0,-1,-1
209094613,-0.2138671875,0.54241943359375,0.4610595703125,-0.66888427734375,-4296,-6919,-126,0,-1,0
209104589,-0.2138671875,0.54241943359375,0.46112060546875,-0.66888427734375,-4295,-6920,-123,0,-1,-1
209114569,-0.2138671875,0.54241943359375,0.4610595703125,-0.66888427734375,-4293,-6917,-115,0,0,0
209124536,-0.2138671875,0.54241943359375,0.46112060546875,-0.66888427734375,-4281,-6921,-116,-1,0,0
209134520,-0.2138671875,0.54241943359375,0.4610595703125,-0.66888427734375,-4279,-6912,-111,0,0,0
209144508,-0.21392822265625,0.54248046875,0.4610595703125,-0.66888427734375,-4276,-6905,-115,0,0,-1
209154489,-0.21392822265625,0.54248046875,0.4610595703125,-0.66888427734375,-4287,-6900,-119,0,0,0
209164468,-0.21392822265625,0.54248046875,0.4610595703125,-0.66888427734375,-4286,-6894,-130,-1,-1,0
209174460,-0.21392822265625,0.54248046875,0.4610595703125,-0.6688232421875,-4278,-6901,-118,0,0,-1
209184443,-0.21392822265625,0.54248046875,0.4610595703125,-0.66888427734375,-4288,-6902,-113,0,-1,0
209194420,-0.21392822265625,0.54248046875,0.4610595703125,-0.66888427734375,-4274,-6911,-122,0,-1,0
209204411,-0.2138671875,0.54248046875,0.4610595703125,-0.6688232421875,-4287,-6917,-125,-1,0,0
209214386,-0.2138671875,0.54248046875,0.4610595703125,-0.6688232421875,-4279,-6909,-130,0,-1,0
209224371,-0.2138671875,0.54254150390625,0.4610595703125,-0.6688232421875,-4288,-6906,-128,-1,0,0
209234354,-0.21380615234375,0.54254150390625,0.4610595703125,-0.6688232421875,-4291,-6901,-127,-1,-1,0
209244337,-0.2138671875,0.54254150390625,0.4610595703125,-0.6688232421875,-4286,-6905,-131,0,0,0
209254319,-0.2138671875,0.54254150390625,0.4610595703125,-0.6688232421875,-4266,-6897,-120,-1,-1,-1
209264302,-0.2138671875,0.54254150390625,0.4610595703125,-0.6688232421875,-4270,-6897,-117,0,0,-1
209274293,-0.2138671875,0.54254150390625,0.4610595703125,-0.6688232421875,-4266,-6899,-117,0,0,-1
209284273,-0.21392822265625,0.54254150390625,0.46112060546875,-0.6688232421875,-4261,-6906,-117,0,0,0
209294251,-0.21392822265625,0.54248046875,0.4610595703125,-0.6688232421875,-4265,-6909,-111,0,0,0
209304234,-0.21392822265625,0.54248046875,0.4610595703125,-0.6688232421875,-4265,-6910,-118,-1,-1,0
209314218,-0.21392822265625,0.54254150390625,0.4610595703125,-0.6688232421875,-4273,-6904,-127,0,0,0
209324196,-0.2138671875,0.54254150390625,0.4610595703125,-0.6688232421875,-4281,-6902,-125,-1,-1,0
209334192,-0.2138671875,0.54254150390625,0.4610595703125,-0.6688232421875,-4276,-6907,-124,0,0,0
209344172,-0.21392822265625,0.54254150390625,0.4610595703125,-0.6688232421875,-4267,-6915,-119,-1,-1,-1
209354148,-0.21392822265625,0.54254150390625,0.46112060546875,-0.66876220703125,-4268,-6915,-134,0,0,-1
209364128,-0.21392822265625,0.54254150390625,0.46112060546875,-0.66876220703125,-4266,-6910,-122,-1,0,-1
209374115,-0.2139892578125,0.54248046875,0.46112060546875,-0.66876220703125,-4270,-6912,-120,0,-1,-1
209384098,-0.2139892578125,0.54248046875,0.46112060546875,-0.66876220703125,-4280,-6900,-113,0,-1,0
209394084,-0.2139892578125,0.54248046875,0.46112060546875,-0.66876220703125,-4274,-6899,-110,0,0,-1
209404071,-0.2139892578125,0.54254150390625,0.461181640625,-0.66876220703125,-4283,-6916,-126,-1,-1,0
209414051,-0.2139892578125,0.54254150390625,0.461181640625,-0.66876220703125,-4271,-6906,-140,0,0,0
209424027,-0.2139892578125,0.54254150390625,0.461181640625,-0.668701171875,-4277,-6897,-130,-1,0,0
209434013,-0.2139892578125,0.54254150390625,0.46112060546875,-0.668701171875,-4273,-6901,-125,0,0,0
209443993,-0.2139892578125,0.54254150390625,0.46112060546875,-0.668701171875,-4268,-6912,-122,0,0,0
209453989,-0.21405029296875,0.54254150390625,0.46112060546875,-0.668701171875,-4275,-6901,-116,0,0,0
209463967,-0.2139892578125,0.54254150390625,0.46112060546875,-0.668701171875,-4271,-6913,-109,-1,0,0
209473947,-0.2139892578125,0.5426025390625,0.46112060546875,-0.668701171875,-4270,-6921,-107,0,0,0
209483932,-0.2139892578125,0.5426025390625,0.46112060546875,-0.668701171875,-4277,-6905,-109,0,0,0
209493914,-0.2139892578125,0.5426025390625,0.46112060546875,-0.668701171875,-4273,-6908,-104,0,0,0
209503894,-0.2139892578125,0.5426025390625,0.4610595703125,-0.668701171875,-4278,-6909,-103,-1,0,0
209513880,-0.21405029296875,0.5426025390625,0.4610595703125,-0.668701171875,-4289,-6916,-99,0,0,-1
209523860,-0.2139892578125,0.5426025390625,0.4610595703125,-0.668701171875,-4293,-6908,-108,0,-1,0
209533855,-0.2139892578125,0.5426025390625,0.4610595703125,-0.668701171875,-4282,-6917,-119,0,0,0
209543833,-0.2139892578125,0.54266357421875,0.4610595703125,-0.668701171875,-4292,-6922,-118,-1,0,0
209553819,-0.2139892578125,0.54266357421875,0.4610595703125,-0.668701171875,-4297,-6920,-117,0,-1,0
209563799,-0.2139892578125,0.54266357421875,0.4610595703125,-0.668701171875,-4291,-6913,-125,0,0,-1
209573778,-0.2139892578125,0.542724609375,0.4610595703125,-0.668701171875,-4291,-6909,-121,0,0,-1
209583767,-0.21405029296875,0.54266357421875,0.4610595703125,-0.668701171875,-4290,-6902,-111,0,0,-1
209593742,-0.21405029296875,0.542724609375,0.46099853515625,-0.668701171875,-4289,-6909,-119,0,0,0
209603723,-0.21405029296875,0.542724609375,0.46099853515625,-0.66864013671875,-4274,-6913,-121,-1,0,-1
209613707,-0.214111328125,0.54266357421875,0.4610595703125,-0.66864013671875,-4271,-6912,-122,0,0,-1
209623694,-0.214111328125,0.54266357421875,0.4610595703125,-0.66864013671875,-4273,-6908,-118,0,-1,-1
209633680,-0.21405029296875,0.54266357421875,0.4610595703125,-0.66864013671875,-4271,-6899,-120,0,-1,0
209643663,-0.214111328125,0.54266357421875,0.46099853515625,-0.66864013671875,-4279,-6901,-106,0,0,-1
209653654,-0.214111328125,0.54266357421875,0.46099853515625,-0.668701171875,-4275,-6901,-100,0,0,0
209663630,-0.214111328125,0.54266357421875,0.46099853515625,-0.668701171875,-4267,-6906,-102,0,0,0
209673621,-0.214111328125,0.54266357421875,0.46099853515625,-0.668701171875,-4267,-6905,-105,0,-1,0
209683603,-0.214111328125,0.54266357421875,0.4610595703125,-0.668701171875,-4282,-6903,-116,0,-1,0
209693590,-0.214111328125,0.54266357421875,0.46099853515625,-0.668701171875,-4280,-6898,-117,0,0,0
209703555,-0.21405029296875,0.54266357421875,0.46099853515625,-0.668701171875,-4277,-6891,-123,-1,-1,0
209713543,-0.21405029296875,0.54266357421875,0.46099853515625,-0.668701171875,-4274,-6899,-119,0,-1,0
209723527,-0.21405029296875,0.54266357421875,0.4610595703125,-0.668701171875,-4267,-6897,-120,0,-1,-1
209733508,-0.21405029296875,0.5426025390625,0.4610595703125,-0.668701171875,-4264,-6896,-114,0,-1,0
209743490,-0.21405029296875,0.5426025390625,0.4610595703125,-0.668701171875,-4263,-6901,-110,-1,-1,-1
209753475,-0.21405029296875,0.5426025390625,0.4610595703125,-0.668701171875,-4273,-6896,-119,0,0,-1
209763461,-0.21405029296875,0.5426025390625,0.4610595703125,-0.668701171875,-4274,-6900,-122,0,-1,0
209773448,-0.21405029296875,0.54266357421875,0.4610595703125,-0.668701171875,-4276,-6897,-131,0,-1,-1
209783419,-0.21405029296875,0.5426025390625,0.4610595703125,-0.668701171875,-4279,-6903,-135,0,-1,-1
209793413,-0.2139892578125,0.5426025390625,0.4610595703125,-0.668701171875,-4284,-6894,-140,0,-1,0
209803400,-0.2139892578125,0.54266357421875,0.4610595703125,-0.668701171875,-4297,-6908,-135,0,0,0
209813368,-0.21392822265625,0.54266357421875,0.4610595703125,-0.668701171875,-4287,-6896,-146,-1,-1,0
209823357,-0.21392822265625,0.54266357421875,0.4610595703125,-0.668701171875,-4280,-6901,-148,0,0,0
209833341,-0.2139892578125,0.54266357421875,0.4610595703125,-0.66864013671875,-4274,-6897,-144,0,0,-1
209843316,-0.2139892578125,0.54266357421875,0.4610595703125,-0.66864013671875,-4274,-6902,-138,0,0,-1
209853307,-0.21405029296875,0.54266357421875,0.4610595703125,-0.66864013671875,-4275,-6914,-125,0,0,0
209863286,-0.21405029296875,0.54266357421875,0.4610595703125,-0.66864013671875,-4274,-6911,-103,-1,0,-1
209873272,-0.21405029296875,0.54266357421875,0.4610595703125,-0.668701171875,-4277,-6910,-116,0,-1,0
209883259,-0.21405029296875,0.54266357421875,0.4610595703125,-0.668701171875,-4276,-6921,-122,0,-1,0
209893240,-0.214111328125,0.54266357421875,0.46099853515625,-0.66864013671875,-4276,-6914,-130,0,0,-1
209903221,-0.214111328125,0.54266357421875,0.4610595703125,-0.66864013671875,-4271,-6918,-123,-1,-1,0
209913208,-0.214111328125,0.542724609375,0.46099853515625,-0.66864013671875,-4273,-6916,-132,0,0,0
209923193,-0.214111328125,0.542724609375,0.4610595703125,-0.66864013671875,-4266,-6900,-125,0,-1,0
209933171,-0.214111328125,0.54266357421875,0.4610595703125,-0.66864013671875,-4273,-6909,-122,-1,-1,0
209943161,-0.21405029296875,0.54266357421875,0.46099853515625,-0.66864013671875,-4284,-6912,-127,0,0,0
209953134,-0.21405029296875,0.542724609375,0.4610595703125,-0.66864013671875,-4285,-6925,-131,-1,-1,0
209963117,-0.21405029296875,0.54266357421875,0.4610595703125,-0.66864013671875,-4280,-6922,-127,0,-1,-1
209973105,-0.21405029296875,0.54266357421875,0.4610595703125,-0.66864013671875,-4274,-6929,-122,0,-1,0
209983089,-0.21405029296875,0.54266357421875,0.4610595703125,-0.66864013671875,-4276,-6921,-122,0,-1,0
209993074,-0.214111328125,0.54266357421875,0.4610595703125,-0.66864013671875,-4268,-6923,-115,0,0,-1
210003060,-0.214111328125,0.54266357421875,0.4610595703125,-0.66864013671875,-4274,-6928,-123,0,0,0
210013031,-0.214111328125,0.54266357421875,0.4610595703125,-0.66864013671875,-4273,-6903,-118,-1,0,-1
210023014,-0.21417236328125,0.54266357421875,0.4610595703125,-0.66864013671875,-4272,-6912,-115,0,0,-1
210033007,-0.21417236328125,0.54266357421875,0.4610595703125,-0.66864013671875,-4267,-6910,-121,0,0,0
210042984,-0.21417236328125,0.54266357421875,0.4610595703125,-0.66864013671875,-4257,-6917,-110,0,0,-1
210052959,-0.2142333984375,0.54266357421875,0.4610595703125,-0.66864013671875,-4268,-6924,-104,0,0,-1
210062946,-0.2142333984375,0.5426025390625,0.4610595703125,-0.66864013671875,-4264,-6922,-99,0,0,0
210072930,-0.2142333984375,0.5426025390625,0.46099853515625,-0.66864013671875,-4268,-6914,-95,0,0,0
210082915,-0.2142333984375,0.5426025390625,0.4610595703125,-0.66864013671875,-4282,-6914,-107,0,0,-1
210092905,-0.2142333984375,0.54266357421875,0.46099853515625,-0.66864013671875,-4279,-6923,-104,-1,0,0
210102875,-0.2142333984375,0.54266357421875,0.4610595703125,-0.66864013671875,-4274,-6925,-116,-1,0,0
210112863,-0.2142333984375,0.54266357421875,0.4610595703125,-0.66864013671875,-4278,-6927,-123,0,-1,0
210122847,-0.2142333984375,0.54266357421875,0.46099853515625,-0.66864013671875,-4272,-6918,-124,0,-1,0
210132840,-0.2142333984375,0.54266357421875,0.46099853515625,-0.66864013671875,-4267,-6926,-123,-1,0,-1
210142824,-0.2142333984375,0.54266357421875,0.4610595703125,-0.66864013671875,-4262,-6922,-127,0,0,-1
210152801,-0.21429443359375,0.54266357421875,0.4610595703125,-0.66864013671875,-4265,-6929,-128,0,0,0
210162781,-0.21429443359375,0.54266357421875,0.4610595703125,-0.6685791015625,-4262,-6914,-123,0,0,0
210176419,-0.21429443359375,0.54266357421875,0.46099853515625,-0.66864013671875,-4266,-6911,-118,0,-1,0
210182750,-0.21429443359375,0.54266357421875,0.46099853515625,-0.66864013671875,-4263,-6909,-116,-1,-1,0
210192725,-0.2142333984375,0.54266357421875,0.46099853515625,-0.66864013671875,-4267,-6916,-111,0,-1,0
210202717,-0.2142333984375,0.54266357421875,0.46099853515625,-0.66864013671875,-4269,-6917,-122,0,0,0
210212696,-0.2142333984375,0.54266357421875,0.46099853515625,-0.66864013671875,-4273,-6910,-121,0,-1,0
210222680,-0.2142333984375,0.54266357421875,0.4609375,-0.66864013671875,-4283,-6906,-126,0,0,0
210232668,-0.2142333984375,0.542724609375,0.4609375,-0.66864013671875,-4301,-6908,-114,0,0,-1
210242653,-0.2142333984375,0.542724609375,0.4609375,-0.66864013671875,-4305,-6916,-122,-1,-1,0
210252636,-0.2142333984375,0.542724609375,0.4609375,-0.66864013671875,-4306,-6910,-122,0,0,-1
210262615,-0.2142333984375,0.542724609375,0.4609375,-0.66864013671875,-4299,-6909,-105,0,-1,-1
210272610,-0.21429443359375,0.54266357421875,0.4609375,-0.66864013671875,-4289,-6909,-115,0,0,-1
210282598,-0.21429443359375,0.54266357421875,0.4609375,-0.66864013671875,-4292,-6905,-118,0,0,0
210292562,-0.2142333984375,0.542724609375,0.4609375,-0.66864013671875,-4295,-6901,-115,-1,-1,0
210302547,-0.2142333984375,0.542724609375,0.4609375,-0.66864013671875,-4305,-6898,-116,0,0,-1
210312529,-0.2142333984375,0.542724609375,0.4609375,-0.66864013671875,-4302,-6922,-111,-1,0,-1
210322511,-0.21429443359375,0.542724609375,0.4609375,-0.66864013671875,-4300,-6920,-110,0,0,0
210332493,-0.21429443359375,0.542724609375,0.46087646484375,-0.66864013671875,-4310,-6914,-110,0,0,-1
210342475,-0.21429443359375,0.542724609375,0.4609375,-0.66864013671875,-4299,-6910,-116,0,-1,-1
210352459,-0.21429443359375,0.542724609375,0.4609375,-0.66864013671875,-4288,-6911,-114,0,0,-1
210362436,-0.21429443359375,0.542724609375,0.4609375,-0.66864013671875,-4283,-6905,-120,-1,-1,-1
210372430,-0.21429443359375,0.542724609375,0.4609375,-0.66864013671875,-4279,-6916,-123,0,0,0
210382418,-0.21429443359375,0.542724609375,0.4609375,-0.66864013671875,-4281,-6910,-117,0,0,-1
210392391,-0.21435546875,0.542724609375,0.4609375,-0.66864013671875,-4276,-6908,-115,0,0,-1
210402374,-0.21435546875,0.542724609375,0.4609375,-0.6685791015625,-4277,-6917,-113,-1,0,0
210412358,-0.21435546875,0.542724609375,0.4609375,-0.6685791015625,-4268,-6915,-110,0,-1,-1
210422345,-0.21441650390625,0.542724609375,0.4609375,-0.6685791015625,-4269,-6928,-112,0,0,0
210432327,-0.21441650390625,0.54266357421875,0.4609375,-0.6685791015625,-4263,-6924,-113,0,0,-1
210442311,-0.214599609375,0.5426025390625,0.4610595703125,-0.66851806640625,-4156,-7103,-89,0,0,1
210452286,-0.2144775390625,0.54266357421875,0.4609375,-0.6685791015625,-4220,-7009,-99,-1,0,1
210462271,-0.21435546875,0.54278564453125,0.4608154296875,-0.66864013671875,-4276,-6964,-104,0,0,0
210472251,-0.21435546875,0.54278564453125,0.4608154296875,-0.66864013671875,-4292,-6957,-103,0,0,-1
210482231,-0.21441650390625,0.542724609375,0.4608154296875,-0.66864013671875,-4303,-6934,-104,-1,0,-1
210492218,-0.2144775390625,0.542724609375,0.46087646484375,-0.66864013671875,-4286,-6930,-110,0,-1,-1
210502199,-0.2144775390625,0.54266357421875,0.4609375,-0.66864013671875,-4289,-6932,-121,0,-1,-1
210512197,-0.21453857421875,0.54266357421875,0.4609375,-0.6685791015625,-4290,-6948,-132,0,0,-1
210522179,-0.21453857421875,0.5426025390625,0.46099853515625,-0.6685791015625,-4272,-6940,-123,0,-1,-1
210532167,-0.214599609375,0.5426025390625,0.46099853515625,-0.6685791015625,-4263,-6924,-129,0,0,0
210542135,-0.214599609375,0.5426025390625,0.46099853515625,-0.6685791015625,-4279,-6925,-117,-1,0,-1
210552117,-0.214599609375,0.5426025390625,0.46099853515625,-0.6685791015625,-4282,-6920,-113,0,0,-1
210562103,-0.214599609375,0.5426025390625,0.4609375,-0.6685791015625,-4295,-6911,-126,0,0,0
210572084,-0.214599609375,0.5426025390625,0.4609375,-0.6685791015625,-4297,-6910,-117,0,0,0
210582072,-0.214599609375,0.54266357421875,0.4609375,-0.6685791015625,-4292,-6918,-117,0,-1,0
210592060,-0.214599609375,0.5426025390625,0.4609375,-0.6685791015625,-4294,-6925,-104,-1,-1,0
210602037,-0.214599609375,0.5426025390625,0.4609375,-0.66864013671875,-4293,-6918,-95,0,0,-1
210612027,-0.214599609375,0.5426025390625,0.4609375,-0.66864013671875,-4294,-6912,-91,0,-1,0
210622001,-0.21453857421875,0.5426025390625,0.4609375,-0.66864013671875,-4304,-6921,-99,0,-1,0
210631989,-0.21453857421875,0.5426025390625,0.46087646484375,-0.668701171875,-4302,-6916,-100,0,0,0
210641971,-0.21453857421875,0.5426025390625,0.46087646484375,-0.668701171875,-4296,-6904,-103,0,-1,0
210651948,-0.21453857421875,0.5426025390625,0.46087646484375,-0.668701171875,-4289,-6900,-94,0,0,0
210661936,-0.21453857421875,0.5426025390625,0.4608154296875,-0.668701171875,-4300,-6919,-105,0,0,0
210671922,-0.21453857421875,0.5426025390625,0.4608154296875,-0.668701171875,-4295,-6916,-105,0,0,0
210681899,-0.21453857421875,0.5426025390625,0.4608154296875,-0.668701171875,-4295,-6911,-101,0,-1,-1
210691885,-0.21453857421875,0.5426025390625,0.4608154296875,-0.668701171875,-4292,-6900,-102,0,0,-1
210701874,-0.21453857421875,0.54266357421875,0.4608154296875,-0.668701171875,-4303,-6896,-108,0,0,-1
210711859,-0.21453857421875,0.54266357421875,0.4608154296875,-0.668701171875,-4208,-6978,-84,-1,-1,-1
210721839,-0.21478271484375,0.54248046875,0.46099853515625,-0.66864013671875,-4239,-6981,-101,0,-1,-2
210731825,-0.21490478515625,0.54241943359375,0.4610595703125,-0.6685791015625,-4241,-7007,-104,0,0,-1
210741799,-0.21484375,0.54241943359375,0.4610595703125,-0.6685791015625,-4233,-6977,-115,-1,-1,1
210751779,-0.21478271484375,0.54248046875,0.46099853515625,-0.66864013671875,-4260,-6930,-117,0,-1,0
210761762,-0.2147216796875,0.54254150390625,0.4609375,-0.66864013671875,-4287,-6938,-123,0,0,0
210771746,-0.2147216796875,0.5426025390625,0.4609375,-0.66864013671875,-4297,-6929,-126,-1,0,0
210781730,-0.2147216796875,0.5426025390625,0.4609375,-0.66864013671875,-4272,-6909,-109,-1,0,-1
210791717,-0.2147216796875,0.5426025390625,0.4609375,-0.66864013671875,-4270,-6907,-111,0,0,0
210801695,-0.21466064453125,0.5426025390625,0.4609375,-0.66864013671875,-4289,-6909,-114,-1,-1,0
210811680,-0.21466064453125,0.5426025390625,0.46087646484375,-0.66864013671875,-4281,-6900,-116,0,-1,0
210821668,-0.21466064453125,0.5426025390625,0.4609375,-0.66864013671875,-4271,-6898,-123,0,0,-1
210831659,-0.21466064453125,0.5426025390625,0.4609375,-0.66864013671875,-4280,-6908,-119,0,0,0
210841634,-0.2147216796875,0.5426025390625,0.4609375,-0.66864013671875,-4280,-6927,-111,-1,0,-1
210851630,-0.21466064453125,0.54254150390625,0.4609375,-0.66864013671875,-4296,-6926,-108,0,-1,0
210861608,-0.21466064453125,0.5426025390625,0.4609375,-0.66864013671875,-4296,-6904,-103,0,-1,0
210871601,-0.21466064453125,0.5426025390625,0.4609375,-0.66864013671875,-4296,-6907,-111,0,-1,-1
210881577,-0.21466064453125,0.5426025390625,0.46087646484375,-0.66864013671875,-4265,-6930,-108,0,0,-1
210891545,-0.21453857421875,0.54266357421875,0.4608154296875,-0.66864013671875,-4345,-6917,-114,-1,-1,2
210901525,-0.21429443359375,0.54278564453125,0.46063232421875,-0.66876220703125,-4361,-6891,-123,0,-1,1
210911517,-0.21417236328125,0.54290771484375,0.46051025390625,-0.66876220703125,-4367,-6860,-122,0,0,0
210921497,-0.21417236328125,0.54290771484375,0.46051025390625,-0.66876220703125,-4381,-6855,-126,0,0,-1
210931475,-0.2142333984375,0.5428466796875,0.4605712890625,-0.66876220703125,-4356,-6903,-108,-1,0,-1
210941459,-0.21435546875,0.5428466796875,0.46063232421875,-0.66876220703125,-4327,-6903,-118,0,-1,-1
210951442,-0.21435546875,0.54278564453125,0.460693359375,-0.668701171875,-4304,-6860,-111,0,-1,-1
210961431,-0.2144775390625,0.54266357421875,0.4608154296875,-0.668701171875,-4260,-6930,-107,0,0,-2
210971415,-0.21466064453125,0.5426025390625,0.46087646484375,-0.66864013671875,-4269,-6965,-111,0,0,-2
210981391,-0.2147216796875,0.54254150390625,0.46099853515625,-0.66864013671875,-4239,-6955,-109,0,-1,-1
210991381,-0.2147216796875,0.54254150390625,0.46099853515625,-0.6685791015625,-4236,-6931,-119,0,0,0
211001360,-0.2147216796875,0.54254150390625,0.4609375,-0.66864013671875,-4250,-6919,-109,0,0,0
211011339,-0.21466064453125,0.5426025390625,0.46087646484375,-0.66864013671875,-4276,-6931,-100,0,0,0
211021328,-0.21466064453125,0.5426025390625,0.46087646484375,-0.66864013671875,-4261,-6914,-111,0,-1,0
211031308,-0.214599609375,0.54266357421875,0.46087646484375,-0.66864013671875,-4265,-6898,-113,-1,-1,0
211041292,-0.214599609375,0.54266357421875,0.4608154296875,-0.66864013671875,-4275,-6901,-104,0,0,0
211051273,-0.21453857421875,0.54266357421875,0.4608154296875,-0.66864013671875,-4286,-6891,-113,-1,-1,-1
211061258,-0.214599609375,0.54266357421875,0.4608154296875,-0.668701171875,-4294,-6888,-115,0,0,-1
211071246,-0.214599609375,0.54266357421875,0.46075439453125,-0.668701171875,-4293,-6894,-107,0,0,0
211081221,-0.21453857421875,0.542724609375,0.46075439453125,-0.66864013671875,-4308,-6891,-117,-1,0,0
211091209,-0.21453857421875,0.542724609375,0.4608154296875,-0.66864013671875,-4300,-6906,-115,0,-1,0
211101192,-0.21453857421875,0.542724609375,0.4608154296875,-0.66864013671875,-4117,-6911,-101,-1,-1,0
211111184,-0.214599609375,0.54266357421875,0.46087646484375,-0.66864013671875,-4193,-6926,-113,0,-1,2
211121165,-0.21441650390625,0.54278564453125,0.460693359375,-0.668701171875,-4257,-6921,-119,0,0,1
211131143,-0.21435546875,0.5428466796875,0.46063232421875,-0.668701171875,-4271,-6873,-99,0,-1,0
211141121,-0.21441650390625,0.5428466796875,0.460693359375,-0.668701171875,-4262,-6862,-100,-1,0,-1
211151103,-0.21441650390625,0.54278564453125,0.460693359375,-0.668701171875,-4279,-6892,-109,0,-1,-1
211161092,-0.2144775390625,0.54278564453125,0.46075439453125,-0.66864013671875,-4293,-6932,-118,0,0,-1
211171072,-0.21453857421875,0.542724609375,0.4608154296875,-0.66864013671875,-4271,-6912,-122,0,-1,-1
211181050,-0.21466064453125,0.542724609375,0.46087646484375,-0.6685791015625,-4262,-6905,-132,0,0,-1
211191035,-0.214599609375,0.54266357421875,0.46087646484375,-0.6685791015625,-4265,-6914,-135,-1,-1,-1
211201022,-0.214599609375,0.542724609375,0.46087646484375,-0.6685791015625,-4280,-6918,-141,0,-1,0
211211009,-0.21466064453125,0.542724609375,0.46087646484375,-0.6685791015625,-4268,-6903,-140,0,0,-1
211220987,-0.21466064453125,0.542724609375,0.46087646484375,-0.6685791015625,-4269,-6891,-126,0,0,0
211230975,-0.21466064453125,0.542724609375,0.46087646484375,-0.6685791015625,-4287,-6901,-123,-1,0,0
211240955,-0.2147216796875,0.542724609375,0.46087646484375,-0.6685791015625,-4413,-6672,-86,0,-1,-1
211250934,-0.2144775390625,0.5428466796875,0.460693359375,-0.66864013671875,-4418,-6734,-125,0,-1,-3
211260919,-0.21478271484375,0.54266357421875,0.4609375,-0.66851806640625,-4356,-6834,-126,0,0,-3
211270900,-0.21484375,0.5426025390625,0.4610595703125,-0.66845703125,-4313,-6885,-121,-1,-1,-1
211280888,-0.21484375,0.5426025390625,0.4610595703125,-0.66845703125,-4284,-6893,-127,0,0,0
211290864,-0.21478271484375,0.54266357421875,0.46099853515625,-0.66845703125,-4273,-6892,-132,-1,-1,1
211300857,-0.21490478515625,0.5426025390625,0.46099853515625,-0.66851806640625,-4019,-6949,-101,0,0,2
211310841,-0.2147216796875,0.54278564453125,0.4608154296875,-0.66851806640625,-4153,-6929,-96,0,0,2
211320826,-0.21453857421875,0.5428466796875,0.460693359375,-0.6685791015625,-4171,-6866,-88,0,0,1
211330800,-0.2144775390625,0.5428466796875,0.460693359375,-0.66864013671875,-4200,-6847,-96,-1,-1,0
211340782,-0.21453857421875,0.5428466796875,0.460693359375,-0.66864013671875,-4241,-6878,-97,0,-1,-1
211350774,-0.214599609375,0.5428466796875,0.460693359375,-0.6685791015625,-4269,-6923,-105,0,0,-1
211360750,-0.21466064453125,0.54278564453125,0.46075439453125,-0.6685791015625,-4235,-6915,-101,0,0,-1
211370740,-0.21466064453125,0.54278564453125,0.46075439453125,-0.6685791015625,-4247,-6896,-113,0,-1,0
211380717,-0.21466064453125,0.5428466796875,0.46075439453125,-0.6685791015625,-4292,-6924,-118,-1,0,0
211390696,-0.214599609375,0.5428466796875,0.46075439453125,-0.66851806640625,-4300,-6924,-119,-1,-1,-1
211400681,-0.21466064453125,0.5428466796875,0.46075439453125,-0.66851806640625,-4279,-6897,-136,0,0,-1
211410661,-0.2147216796875,0.54278564453125,0.4608154296875,-0.66851806640625,-4266,-6907,-129,0,0,-1
211420656,-0.21478271484375,0.54278564453125,0.46087646484375,-0.66845703125,-4278,-6933,-137,0,0,-1
211430644,-0.21484375,0.54278564453125,0.46087646484375,-0.66845703125,-4272,-6939,-128,0,0,0
211440620,-0.21484375,0.54278564453125,0.4608154296875,-0.66845703125,-4256,-6917,-121,0,0,0
211450607,-0.21484375,0.5428466796875,0.4608154296875,-0.66845703125,-4261,-6907,-112,0,0,0
211460598,-0.21484375,0.54278564453125,0.4608154296875,-0.66845703125,-4269,-6926,-97,-1,-1,-1
211470577,-0.21484375,0.54278564453125,0.4608154296875,-0.66845703125,-4270,-6939,-106,0,0,-1
211480547,-0.21490478515625,0.54278564453125,0.46087646484375,-0.66845703125,-4253,-6937,-110,0,0,-1
211490537,-0.21490478515625,0.54278564453125,0.46087646484375,-0.66845703125,-4266,-6920,-124,0,-1,-1
211500510,-0.21490478515625,0.54278564453125,0.46087646484375,-0.66845703125,-4276,-6921,-118,0,-1,-1
211510504,-0.21490478515625,0.54278564453125,0.46087646484375,-0.66845703125,-4272,-6917,-124,0,0,0
211520485,-0.21490478515625,0.54278564453125,0.46087646484375,-0.66845703125,-4271,-6912,-125,0,0,-1
211530456,-0.21490478515625,0.54278564453125,0.46087646484375,-0.66839599609375,-4264,-6910,-123,-1,0,-1
211540449,-0.2149658203125,0.54278564453125,0.4609375,-0.66839599609375,-4273,-6924,-125,0,0,0
211550428,-0.21490478515625,0.54278564453125,0.4609375,-0.66839599609375,-4268,-6922,-114,-1,-1,0
211560416,-0.21490478515625,0.54278564453125,0.46087646484375,-0.66839599609375,-4265,-6905,-114,0,-1,0
211570390,-0.21484375,0.54278564453125,0.46087646484375,-0.66839599609375,-4269,-6908,-122,-1,-1,0
211580375,-0.21484375,0.54278564453125,0.4609375,-0.66839599609375,-4279,-6924,-128,0,-1,0
211590360,-0.21484375,0.54278564453125,0.4609375,-0.66839599609375,-4273,-6924,-122,0,-1,0
211600349,-0.21484375,0.5428466796875,0.46087646484375,-0.66839599609375,-4279,-6900,-121,0,0,0
211610324,-0.21484375,0.54278564453125,0.46087646484375,-0.66839599609375,-4282,-6914,-109,0,0,-1
211620311,-0.21490478515625,0.54278564453125,0.46087646484375,-0.66839599609375,-4288,-6910,-101,0,0,-1
211630293,-0.21490478515625,0.54278564453125,0.46087646484375,-0.66839599609375,-4285,-6917,-105,0,0,-1
211640278,-0.21490478515625,0.54278564453125,0.46087646484375,-0.66839599609375,-4281,-6920,-106,0,-1,-1
211650266,-0.21490478515625,0.5428466796875,0.46087646484375,-0.66839599609375,-4296,-6905,-112,0,0,0
211660248,-0.21490478515625,0.54278564453125,0.4608154296875,-0.66845703125,-4295,-6907,-94,0,-1,-1
211670228,-0.21490478515625,0.54278564453125,0.4608154296875,-0.66845703125,-4292,-6909,-100,0,-1,0
211680213,-0.21490478515625,0.54278564453125,0.4608154296875,-0.66845703125,-4283,-6918,-102,0,0,-1
211690198,-0.21490478515625,0.54278564453125,0.4608154296875,-0.66845703125,-4273,-6909,-103,-1,-1,0
211700182,-0.21490478515625,0.54278564453125,0.4608154296875,-0.66845703125,-4278,-6894,-104,0,0,0
211710162,-0.21490478515625,0.54278564453125,0.4608154296875,-0.66845703125,-4284,-6897,-109,-1,0,-1
211720148,-0.21490478515625,0.54278564453125,0.4608154296875,-0.66845703125,-4275,-6911,-113,0,-1,0
211730127,-0.2149658203125,0.54278564453125,0.46087646484375,-0.66839599609375,-4275,-6914,-109,-1,-1,-1
211740103,-0.2149658203125,0.54278564453125,0.46087646484375,-0.66839599609375,-4268,-6913,-115,0,-1,-1
211750093,-0.2149658203125,0.542724609375,0.46087646484375,-0.66845703125,-4274,-6905,-109,0,0,-1
211760079,-0.2149658203125,0.54278564453125,0.46087646484375,-0.66839599609375,-4270,-6904,-112,0,0,0
211770060,-0.21490478515625,0.54278564453125,0.46087646484375,-0.66839599609375,-4287,-6908,-121,-1,-1,0
211780047,-0.21490478515625,0.54278564453125,0.46087646484375,-0.66839599609375,-4285,-6893,-119,0,-1,-1
211790030,-0.21490478515625,0.5428466796875,0.4608154296875,-0.66839599609375,-4289,-6898,-112,0,0,0
211800009,-0.21490478515625,0.5428466796875,0.4608154296875,-0.66845703125,-4293,-6894,-115,0,-1,0
211809990,-0.21490478515625,0.5428466796875,0.4608154296875,-0.66845703125,-4291,-6900,-106,0,0,0
211819969,-0.21490478515625,0.5428466796875,0.4608154296875,-0.66839599609375,-4343,-7003,-116,-1,0,-1
211829952,-0.21502685546875,0.54278564453125,0.46087646484375,-0.66839599609375,-4263,-6854,-153,0,0,-1
211839939,-0.21502685546875,0.54278564453125,0.4609375,-0.6683349609375,-4306,-6947,-127,0,0,-1
211849918,-0.215087890625,0.54278564453125,0.4609375,-0.6683349609375,-4245,-6880,-133,0,0,-1
211859905,-0.21502685546875,0.54278564453125,0.46087646484375,-0.6683349609375,-4236,-6838,-126,-1,-1,0
211869893,-0.2149658203125,0.5428466796875,0.46087646484375,-0.6683349609375,-4307,-6899,-135,0,0,-1
211879873,-0.21502685546875,0.5428466796875,0.46087646484375,-0.66827392578125,-4306,-6936,-135,0,0,-1
211889858,-0.215087890625,0.5428466796875,0.4609375,-0.66827392578125,-4240,-6894,-133,0,-1,-1
211899845,-0.215087890625,0.5428466796875,0.46087646484375,-0.6683349609375,-4238,-6874,-130,0,0,0
211909824,-0.21502685546875,0.54290771484375,0.4608154296875,-0.6683349609375,-4297,-6911,-136,-1,-1,0
211919813,-0.2149658203125,0.54290771484375,0.4608154296875,-0.6683349609375,-4313,-6917,-128,0,0,-1
211929793,-0.21502685546875,0.54290771484375,0.4608154296875,-0.6683349609375,-4272,-6882,-117,0,0,-1
211939765,-0.21502685546875,0.54290771484375,0.46087646484375,-0.6683349609375,-4266,-6887,-125,-1,-1,-1
211949749,-0.21490478515625,0.54296875,0.4608154296875,-0.6683349609375,-4183,-6659,-211,0,-1,-1
211959743,-0.21490478515625,0.54302978515625,0.46087646484375,-0.668212890625,-4348,-6906,-217,0,0,0
211969721,-0.21484375,0.54302978515625,0.46087646484375,-0.668212890625,-4290,-6830,-156,0,-1,0
211979703,-0.21484375,0.54302978515625,0.46087646484375,-0.668212890625,-4221,-6743,-151,-1,0,-1
211989681,-0.21490478515625,0.54302978515625,0.46087646484375,-0.668212890625,-4281,-6861,-137,0,0,-1
211999680,-0.21490478515625,0.54302978515625,0.46087646484375,-0.668212890625,-4308,-6949,-124,0,-1,0
212009661,-0.21490478515625,0.54296875,0.46087646484375,-0.66827392578125,-4251,-6869,-83,0,0,0
212019637,-0.2149658203125,0.54296875,0.46087646484375,-0.66827392578125,-4288,-6916,-88,-1,0,-1
212029620,-0.21502685546875,0.54296875,0.4609375,-0.668212890625,-4318,-6988,-99,0,-1,-1
212039612,-0.215087890625,0.54290771484375,0.4609375,-0.668212890625,-4267,-6964,-112,0,0,-1
212049598,-0.215087890625,0.54290771484375,0.4609375,-0.668212890625,-4233,-6899,-111,0,0,0
212059579,-0.21502685546875,0.54296875,0.46087646484375,-0.668212890625,-4283,-6945,-106,0,0,0
212069562,-0.21502685546875,0.54290771484375,0.46087646484375,-0.66827392578125,-4297,-6970,-89,0,-1,-1
212079539,-0.215087890625,0.54290771484375,0.46087646484375,-0.66827392578125,-4257,-6920,-104,0,0,0
212089513,-0.2149658203125,0.54296875,0.4608154296875,-0.66827392578125,-4275,-6893,-98,-1,-1,0
212099495,-0.21490478515625,0.54296875,0.46075439453125,-0.6683349609375,-4304,-6916,-110,0,-1,0
212109486,-0.2149658203125,0.54296875,0.4608154296875,-0.6683349609375,-4306,-6940,-110,0,0,-1
212119466,-0.2149658203125,0.54296875,0.4608154296875,-0.66827392578125,-4237,-6754,-174,0,-1,-1
212129455,-0.21484375,0.54302978515625,0.4608154296875,-0.66827392578125,-4300,-6855,-172,0,0,0
212139430,-0.21478271484375,0.5430908203125,0.4608154296875,-0.66827392578125,-4355,-6910,-160,-1,-1,0
212149418,-0.21478271484375,0.54302978515625,0.4608154296875,-0.66827392578125,-4302,-6856,-143,0,-1,-1
212159408,-0.21484375,0.54302978515625,0.4608154296875,-0.66827392578125,-4265,-6841,-131,0,-1,0
212169375,-0.21478271484375,0.54302978515625,0.4608154296875,-0.66827392578125,-4289,-6895,-124,-1,-1,0
212179368,-0.21478271484375,0.54302978515625,0.4608154296875,-0.66827392578125,-4301,-6952,-121,0,-1,0
212189342,-0.21478271484375,0.54302978515625,0.4608154296875,-0.66827392578125,-4263,-6901,-124,0,-1,0
212199324,-0.2147216796875,0.5430908203125,0.4608154296875,-0.6683349609375,-4252,-6860,-126,-1,-1,0
212209315,-0.2147216796875,0.5430908203125,0.46075439453125,-0.66827392578125,-4289,-6897,-139,0,0,0
212219302,-0.2147216796875,0.54315185546875,0.46075439453125,-0.6683349609375,-4247,-6803,-112,-1,0,0
212229279,-0.21466064453125,0.54315185546875,0.460693359375,-0.6683349609375,-4288,-6919,-103,0,-1,0
212239267,-0.21466064453125,0.543212890625,0.460693359375,-0.6683349609375,-4244,-6882,-102,0,0,0
212249246,-0.214599609375,0.543212890625,0.46063232421875,-0.6683349609375,-4234,-6836,-116,0,0,0
212259225,-0.21453857421875,0.54327392578125,0.4605712890625,-0.6683349609375,-4305,-6882,-113,-1,0,0
212269211,-0.214599609375,0.54327392578125,0.46063232421875,-0.6683349609375,-4332,-6938,-127,0,0,-1
212279195,-0.21466064453125,0.543212890625,0.460693359375,-0.6683349609375,-4256,-6906,-125,0,-1,-1
212289185,-0.21466064453125,0.54315185546875,0.460693359375,-0.6683349609375,-4238,-6892,-117,0,0,0
212299163,-0.21466064453125,0.543212890625,0.46063232421875,-0.6683349609375,-4278,-6927,-110,-1,0,0
212309143,-0.2147216796875,0.543212890625,0.46063232421875,-0.6683349609375,-4282,-6922,-111,0,0,-1
212319127,-0.2147216796875,0.54315185546875,0.46063232421875,-0.6683349609375,-4249,-6888,-116,0,0,0
212329113,-0.2147216796875,0.54315185546875,0.46063232421875,-0.6683349609375,-4269,-6884,-116,0,-1,-1
212339099,-0.2147216796875,0.54315185546875,0.46063232421875,-0.6683349609375,-4280,-6924,-110,0,0,0
212349074,-0.21478271484375,0.54315185546875,0.46063232421875,-0.6683349609375,-4276,-6925,-114,-1,0,-1
212359064,-0.21478271484375,0.54315185546875,0.46063232421875,-0.6683349609375,-3863,-6694,-85,0,-1,0
212369041,-0.214599609375,0.5433349609375,0.46044921875,-0.66839599609375,-4301,-7028,-150,-1,0,4
212379026,-0.2142333984375,0.5435791015625,0.460205078125,-0.66845703125,-4420,-6995,-134,0,-1,2
212389012,-0.2142333984375,0.5435791015625,0.4600830078125,-0.66851806640625,-4316,-6790,-132,0,0,-2
212398985,-0.21441650390625,0.54345703125,0.46026611328125,-0.66845703125,-4290,-6797,-118,-1,0,-3
212408971,-0.214599609375,0.54339599609375,0.46038818359375,-0.66839599609375,-4321,-6951,-117,0,0,-2
212418958,-0.21466064453125,0.54327392578125,0.46051025390625,-0.6683349609375,-4312,-7030,-134,0,-1,-1
212428937,-0.21466064453125,0.54327392578125,0.46051025390625,-0.6683349609375,-4218,-6883,-122,0,-1,0
212438926,-0.214599609375,0.54327392578125,0.46044921875,-0.66839599609375,-4253,-6835,-117,0,0,0
212448908,-0.214599609375,0.54339599609375,0.46044921875,-0.66839599609375,-4345,-6901,-120,-1,0,-1
212458889,-0.21466064453125,0.5433349609375,0.46051025390625,-0.6683349609375,-4324,-6931,-134,0,0,-2
212468874,-0.21478271484375,0.543212890625,0.4605712890625,-0.66827392578125,-4263,-6890,-124,0,-1,-1
212478860,-0.21484375,0.543212890625,0.46063232421875,-0.66827392578125,-4269,-6883,-122,0,-1,-1
212488847,-0.21484375,0.543212890625,0.46063232421875,-0.66827392578125,-4304,-6947,-133,0,0,-1
212498828,-0.21484375,0.54315185546875,0.46063232421875,-0.66827392578125,-4295,-6958,-125,0,-1,-1
212508819,-0.21490478515625,0.54315185546875,0.46063232421875,-0.66827392578125,-4249,-6900,-116,0,-1,0
212518787,-0.21490478515625,0.54315185546875,0.46063232421875,-0.66827392578125,-4257,-6890,-111,-1,0,0
212528774,-0.21484375,0.543212890625,0.46063232421875,-0.66827392578125,-4309,-6953,-117,0,-1,-1
212538758,-0.21490478515625,0.54315185546875,0.46063232421875,-0.66827392578125,-4298,-6956,-124,0,0,-1
212548746,-0.21490478515625,0.543212890625,0.46063232421875,-0.66827392578125,-4265,-6887,-123,0,0,0
212558718,-0.21484375,0.543212890625,0.46063232421875,-0.66827392578125,-4273,-6907,-127,-1,-1,0
212568703,-0.21490478515625,0.54315185546875,0.460693359375,-0.668212890625,-4281,-6968,-133,0,-1,-1
212578690,-0.21490478515625,0.543212890625,0.46063232421875,-0.66827392578125,-4246,-6940,-125,0,0,1
212588663,-0.21478271484375,0.54327392578125,0.46051025390625,-0.6683349609375,-4238,-6874,-112,0,0,1
212598655,-0.2147216796875,0.5433349609375,0.46044921875,-0.6683349609375,-4274,-6887,-113,-1,0,0
212608645,-0.2147216796875,0.5433349609375,0.46044921875,-0.6683349609375,-4311,-6907,-117,0,-1,-1
212618630,-0.21478271484375,0.54327392578125,0.46051025390625,-0.66827392578125,-4278,-6898,-129,0,0,-1
212628609,-0.21484375,0.543212890625,0.4605712890625,-0.66827392578125,-4251,-6867,-112,-1,-1,-1
212638604,-0.21484375,0.543212890625,0.4605712890625,-0.66827392578125,-4271,-6902,-109,0,0,-1
212648578,-0.21490478515625,0.543212890625,0.4605712890625,-0.66827392578125,-4286,-6916,-110,-1,-1,-1
212658566,-0.21490478515625,0.543212890625,0.4605712890625,-0.66827392578125,-4274,-6898,-111,0,0,0
212668535,-0.21490478515625,0.543212890625,0.4605712890625,-0.66827392578125,-4282,-6908,-97,-1,-1,0
212678521,-0.21490478515625,0.543212890625,0.4605712890625,-0.66827392578125,-4293,-6916,-105,0,-1,0
212688502,-0.21490478515625,0.543212890625,0.4605712890625,-0.66827392578125,-4296,-6932,-107,0,0,-1
212698485,-0.2149658203125,0.543212890625,0.4605712890625,-0.66827392578125,-4268,-6908,-119,0,-1,-1
212708475,-0.21490478515625,0.543212890625,0.4605712890625,-0.66827392578125,-4270,-6895,-118,0,0,0
212718450,-0.21490478515625,0.543212890625,0.4605712890625,-0.66827392578125,-4283,-6916,-124,-1,0,-1
212728432,-0.2149658203125,0.543212890625,0.4605712890625,-0.66827392578125,-4294,-6929,-134,0,0,-1
212738421,-0.2149658203125,0.543212890625,0.4605712890625,-0.66827392578125,-4285,-6913,-137,0,-1,0
212748405,-0.21490478515625,0.543212890625,0.4605712890625,-0.66827392578125,-4281,-6902,-120,0,-1,0
212758385,-0.21490478515625,0.54327392578125,0.4605712890625,-0.66827392578125,-4285,-6907,-120,0,0,0
212768367,-0.21490478515625,0.54327392578125,0.4605712890625,-0.668212890625,-4279,-6913,-126,-1,-1,-1
212778354,-0.21490478515625,0.54327392578125,0.4605712890625,-0.668212890625,-4264,-6911,-128,0,0,0
212788336,-0.21490478515625,0.54327392578125,0.4605712890625,-0.668212890625,-4273,-6900,-117,0,0,-1
212798315,-0.21490478515625,0.54327392578125,0.4605712890625,-0.66827392578125,-4269,-6911,-106,-1,-1,0
212808302,-0.21490478515625,0.54327392578125,0.4605712890625,-0.66827392578125,-4266,-6901,-107,-1,-1,0
212818285,-0.21490478515625,0.54327392578125,0.4605712890625,-0.66827392578125,-4265,-6902,-111,0,0,-1
212828273,-0.2149658203125,0.543212890625,0.4605712890625,-0.66827392578125,-4274,-6906,-107,0,-1,0
212838252,-0.2149658203125,0.543212890625,0.4605712890625,-0.66827392578125,-4265,-6912,-117,0,-1,0
212848229,-0.21490478515625,0.543212890625,0.4605712890625,-0.66827392578125,-4266,-6911,-114,-1,0,0
212858212,-0.21490478515625,0.54327392578125,0.46051025390625,-0.66827392578125,-4267,-6903,-107,0,0,0
212868194,-0.21490478515625,0.543212890625,0.46051025390625,-0.66827392578125,-4274,-6906,-97,0,0,0
212878184,-0.21490478515625,0.543212890625,0.46051025390625,-0.66827392578125,-4287,-6911,-98,-1,0,-1
212888166,-0.2149658203125,0.543212890625,0.46051025390625,-0.6683349609375,-4274,-6909,-92,0,0,-1
212898148,-0.2149658203125,0.543212890625,0.46051025390625,-0.6683349609375,-4280,-6897,-85,-1,-1,0
212908132,-0.21490478515625,0.543212890625,0.46051025390625,-0.6683349609375,-4293,-6908,-91,0,0,0
212918110,-0.21490478515625,0.54327392578125,0.46051025390625,-0.6683349609375,-4306,-6912,-102,-1,-1,0
212928097,-0.21490478515625,0.543212890625,0.46051025390625,-0.6683349609375,-4285,-6912,-104,0,0,-1
212938081,-0.21490478515625,0.543212890625,0.46051025390625,-0.6683349609375,-4285,-6913,-105,0,0,0
212948060,-0.21490478515625,0.54327392578125,0.46044921875,-0.6683349609375,-4290,-6907,-97,-1,0,0
212958045,-0.21490478515625,0.543212890625,0.46044921875,-0.6683349609375,-4284,-6914,-106,0,-1,0
212968027,-0.21490478515625,0.543212890625,0.46051025390625,-0.6683349609375,-4269,-6909,-99,0,-1,-1
212978012,-0.2149658203125,0.543212890625,0.46051025390625,-0.6683349609375,-4267,-6903,-105,0,0,-1
212988002,-0.2149658203125,0.543212890625,0.46051025390625,-0.6683349609375,-4272,-6909,-110,0,-1,0
212997976,-0.21490478515625,0.543212890625,0.46051025390625,-0.6683349609375,-4270,-6904,-121,-1,0,0
213007966,-0.21490478515625,0.543212890625,0.46051025390625,-0.6683349609375,-4267,-6901,-123,0,0,0
213017944,-0.21490478515625,0.543212890625,0.46044921875,-0.6683349609375,-4277,-6905,-119,0,-1,0
213027927,-0.21490478515625,0.543212890625,0.46044921875,-0.6683349609375,-4272,-6917,-123,0,0,0
213037907,-0.21490478515625,0.543212890625,0.46044921875,-0.6683349609375,-4288,-6914,-121,-1,-1,0
213047893,-0.21490478515625,0.543212890625,0.46044921875,-0.6683349609375,-4286,-6917,-117,0,-1,-1
213057878,-0.21490478515625,0.543212890625,0.46044921875,-0.6683349609375,-4273,-6920,-115,0,-1,0
213067856,-0.21490478515625,0.54315185546875,0.46051025390625,-0.6683349609375,-4281,-6923,-121,0,-1,-1
213077847,-0.21490478515625,0.54315185546875,0.46051025390625,-0.6683349609375,-4283,-6920,-128,0,0,-1
213087834,-0.21490478515625,0.543212890625,0.46051025390625,-0.6683349609375,-4286,-6925,-121,0,0,0
213097804,-0.21490478515625,0.543212890625,0.46051025390625,-0.6683349609375,-4286,-6920,-115,-1,0,0
213107794,-0.21490478515625,0.54315185546875,0.46051025390625,-0.6683349609375,-4281,-6919,-116,0,-1,-1
213117777,-0.21490478515625,0.54315185546875,0.46051025390625,-0.6683349609375,-4275,-6909,-117,0,-1,0
213127761,-0.21490478515625,0.54315185546875,0.46051025390625,-0.6683349609375,-4285,-6916,-109,0,0,0
213137738,-0.21490478515625,0.54315185546875,0.46051025390625,-0.6683349609375,-4278,-6907,-109,-1,-1,0
213147722,-0.21490478515625,0.54315185546875,0.46051025390625,-0.6683349609375,-4278,-6909,-96,-1,-1,-1
213157707,-0.21490478515625,0.54315185546875,0.46051025390625,-0.66839599609375,-4282,-6913,-105,0,-1,0
213167684,-0.21490478515625,0.5430908203125,0.46051025390625,-0.66839599609375,-4277,-6914,-111,0,-1,0
213177666,-0.21490478515625,0.54315185546875,0.46051025390625,-0.66839599609375,-4278,-6919,-111,-1,-1,0
213187664,-0.21490478515625,0.5430908203125,0.46051025390625,-0.66839599609375,-4276,-6916,-115,0,0,0
213197645,-0.21490478515625,0.54315185546875,0.46051025390625,-0.66839599609375,-4278,-6903,-116,0,0,-1
213207630,-0.21490478515625,0.54315185546875,0.46051025390625,-0.66839599609375,-4283,-6898,-119,-1,-1,0
213217618,-0.21490478515625,0.54315185546875,0.46051025390625,-0.66839599609375,-4270,-6900,-119,0,-1,0
213227598,-0.21490478515625,0.54315185546875,0.46051025390625,-0.66839599609375,-4267,-6901,-118,0,-1,0
213237586,-0.21490478515625,0.54315185546875,0.46051025390625,-0.66839599609375,-4266,-6901,-126,0,0,0
213247552,-0.21490478515625,0.54315185546875,0.46051025390625,-0.6683349609375,-4275,-6909,-126,-1,0,0
213257537,-0.21490478515625,0.54315185546875,0.46051025390625,-0.6683349609375,-4281,-6905,-131,0,-1,-1
213267518,-0.21484375,0.54315185546875,0.46051025390625,-0.6683349609375,-4293,-6902,-138,0,-1,0
213277514,-0.21484375,0.54315185546875,0.4605712890625,-0.6683349609375,-4283,-6912,-139,0,0,0
213287482,-0.21490478515625,0.54315185546875,0.46051025390625,-0.6683349609375,-4267,-6889,-126,0,0,-1
213297475,-0.21490478515625,0.543212890625,0.4605712890625,-0.6683349609375,-4272,-6914,-130,0,0,0
213307452,-0.21490478515625,0.54315185546875,0.4605712890625,-0.6683349609375,-4265,-6923,-135,-1,0,-1
213317438,-0.2149658203125,0.54315185546875,0.4605712890625,-0.6683349609375,-4255,-6918,-122,0,0,0
213327420,-0.2149658203125,0.54315185546875,0.4605712890625,-0.66827392578125,-4251,-6921,-113,-1,0,-1
213337409,-0.2149658203125,0.543212890625,0.46051025390625,-0.6683349609375,-4266,-6920,-117,0,-1,0
213347391,-0.2149658203125,0.543212890625,0.46051025390625,-0.6683349609375,-4272,-6913,-115,-1,-1,-1
213357372,-0.2149658203125,0.543212890625,0.46051025390625,-0.6683349609375,-4275,-6910,-120,0,0,0
213367348,-0.21490478515625,0.543212890625,0.46051025390625,-0.66827392578125,-4275,-6905,-130,-1,-1,0
