subject,Still with noise
arm,neither
label,0
hz,100.16963701621938
time,5.680364

timestamp_us,q0,q1,q2,q3,ax,ay,az,gx,gy,gz
150773513,0.3802490234375,0.6151123046875,-0.343017578125,-0.5994873046875,-3977,7314,83,-1,0,0
150783491,0.3802490234375,0.6151123046875,-0.343017578125,-0.59954833984375,-3983,7304,78,0,-1,0
150793481,0.3802490234375,0.6151123046875,-0.343017578125,-0.5994873046875,-3964,7285,75,0,0,0
150803455,0.3802490234375,0.6151123046875,-0.343017578125,-0.59954833984375,-3982,7300,67,-1,-1,-1
150813440,0.38018798828125,0.6151123046875,-0.343017578125,-0.5994873046875,-3974,7288,67,0,-1,0
150823424,0.38018798828125,0.6151123046875,-0.343017578125,-0.59954833984375,-3971,7300,50,0,-1,-1
150833420,0.38018798828125,0.6151123046875,-0.343017578125,-0.59954833984375,-3968,7282,62,0,0,0
150843388,0.38018798828125,0.6151123046875,-0.343017578125,-0.59954833984375,-3974,7294,61,0,-1,0
150853377,0.38018798828125,0.6151123046875,-0.343017578125,-0.59954833984375,-3966,7289,67,-1,-1,-1
150863364,0.38018798828125,0.6151123046875,-0.343017578125,-0.59954833984375,-3967,7297,49,0,-1,0
150873343,0.38018798828125,0.6151123046875,-0.343017578125,-0.59954833984375,-3977,7295,81,0,0,0
150883324,0.3802490234375,0.61505126953125,-0.343017578125,-0.59954833984375,-3974,7295,84,0,-1,0
150893310,0.38018798828125,0.6151123046875,-0.343017578125,-0.59954833984375,-3971,7294,83,0,0,-1
150903288,0.3802490234375,0.61505126953125,-0.343017578125,-0.59954833984375,-3973,7306,71,-1,-1,0
150913274,0.3802490234375,0.61505126953125,-0.34307861328125,-0.5994873046875,-3956,7315,83,0,0,0
150923253,0.3802490234375,0.61505126953125,-0.34307861328125,-0.5994873046875,-3947,7316,76,-1,-1,-1
150933238,0.3802490234375,0.61505126953125,-0.34307861328125,-0.5994873046875,-3960,7311,66,0,0,-1
150943228,0.3802490234375,0.61505126953125,-0.34307861328125,-0.59954833984375,-3967,7305,60,0,-1,0
150953208,0.3802490234375,0.61505126953125,-0.34307861328125,-0.59954833984375,-3973,7306,77,0,-1,0
150963198,0.3802490234375,0.61505126953125,-0.34307861328125,-0.59954833984375,-3977,7318,69,0,0,-1
150973182,0.3802490234375,0.61505126953125,-0.343017578125,-0.59954833984375,-3978,7320,75,0,0,0
150983158,0.3802490234375,0.61505126953125,-0.343017578125,-0.59954833984375,-3976,7320,79,-1,-1,-1
150993136,0.3802490234375,0.61505126953125,-0.343017578125,-0.5994873046875,-3984,7315,66,0,0,-1
151003121,0.38018798828125,0.6151123046875,-0.343017578125,-0.59954833984375,-3982,7310,59,0,-1,-1
151013105,0.38018798828125,0.6151123046875,-0.343017578125,-0.5994873046875,-3985,7308,59,0,0,-1
151023086,0.38018798828125,0.6151123046875,-0.343017578125,-0.59954833984375,-3995,7302,61,-1,-1,0
151033072,0.38018798828125,0.6151123046875,-0.343017578125,-0.59954833984375,-3982,7292,65,0,0,-1
151043060,0.38018798828125,0.6151123046875,-0.343017578125,-0.5994873046875,-3975,7297,63,0,0,0
151053033,0.38018798828125,0.6151123046875,-0.34295654296875,-0.59954833984375,-3990,7301,80,-1,-1,0
151063019,0.38018798828125,0.6151123046875,-0.34295654296875,-0.59954833984375,-3998,7296,73,0,-1,-1
151073003,0.38018798828125,0.6151123046875,-0.343017578125,-0.59954833984375,-4003,7296,83,0,-1,0
151082986,0.38018798828125,0.61505126953125,-0.34295654296875,-0.599609375,-3992,7297,78,-1,0,-1
151092972,0.38018798828125,0.61505126953125,-0.34295654296875,-0.599609375,-3985,7304,85,0,-1,0
151102944,0.3802490234375,0.61505126953125,-0.34295654296875,-0.599609375,-3984,7304,81,-1,-1,0
151112937,0.38018798828125,0.61505126953125,-0.343017578125,-0.599609375,-3986,7311,79,0,-1,0
151122919,0.38018798828125,0.614990234375,-0.343017578125,-0.59967041015625,-3989,7303,69,0,-1,-1
151132898,0.380126953125,0.61505126953125,-0.343017578125,-0.599609375,-3985,7302,61,0,0,-1
151142883,0.380126953125,0.61505126953125,-0.343017578125,-0.599609375,-3979,7308,59,-1,-1,0
151152860,0.380126953125,0.61505126953125,-0.343017578125,-0.59967041015625,-3975,7308,62,0,-1,-1
151162861,0.380126953125,0.614990234375,-0.343017578125,-0.59967041015625,-3983,7307,70,0,-1,0
151172845,0.380126953125,0.614990234375,-0.343017578125,-0.59967041015625,-3985,7302,64,0,0,-1
151182820,0.38006591796875,0.614990234375,-0.343017578125,-0.59967041015625,-3993,7304,60,0,-1,0
151192799,0.380126953125,0.614990234375,-0.343017578125,-0.59967041015625,-3990,7308,65,-1,0,-1
151202778,0.38006591796875,0.61505126953125,-0.343017578125,-0.59967041015625,-3989,7305,59,0,0,-1
151212757,0.38006591796875,0.61505126953125,-0.343017578125,-0.59967041015625,-3984,7306,60,0,-1,-1
151222746,0.38006591796875,0.61505126953125,-0.343017578125,-0.59967041015625,-3982,7297,66,0,0,-1
151232729,0.38006591796875,0.61505126953125,-0.34295654296875,-0.59967041015625,-3979,7303,67,0,-1,-1
151242709,0.38006591796875,0.61505126953125,-0.343017578125,-0.59967041015625,-3984,7312,53,-1,-1,0
151252697,0.38006591796875,0.61505126953125,-0.343017578125,-0.59967041015625,-3980,7306,61,0,0,0
151262680,0.38006591796875,0.61505126953125,-0.343017578125,-0.59967041015625,-3976,7304,59,0,0,0
151272668,0.38006591796875,0.6151123046875,-0.343017578125,-0.599609375,-3982,7295,59,-1,0,-1
151282646,0.38006591796875,0.6151123046875,-0.343017578125,-0.599609375,-3973,7299,53,0,0,-1
151292634,0.38006591796875,0.6151123046875,-0.34295654296875,-0.599609375,-3978,7301,65,0,0,-1
151302615,0.38006591796875,0.6151123046875,-0.3428955078125,-0.599609375,-3976,7305,71,-1,0,0
151312604,0.38006591796875,0.6151123046875,-0.34295654296875,-0.59967041015625,-3980,7306,67,0,-1,0
151322598,0.38006591796875,0.6151123046875,-0.34295654296875,-0.599609375,-3982,7302,53,-1,-1,0
151332570,0.38006591796875,0.6151123046875,-0.34295654296875,-0.599609375,-3984,7306,52,0,-1,0
151342538,0.38006591796875,0.6151123046875,-0.34295654296875,-0.59967041015625,-3990,7304,65,-1,-1,0
151352527,0.38006591796875,0.6151123046875,-0.34295654296875,-0.599609375,-3991,7310,61,0,-1,-1
151362511,0.38006591796875,0.6151123046875,-0.34295654296875,-0.59967041015625,-3988,7300,57,-1,-1,-1
151372491,0.38006591796875,0.6151123046875,-0.34295654296875,-0.599609375,-3976,7305,60,0,-1,0
151382475,0.38006591796875,0.61505126953125,-0.34295654296875,-0.59967041015625,-3976,7309,68,-1,-1,0
151392463,0.38006591796875,0.61505126953125,-0.34295654296875,-0.59967041015625,-3974,7307,64,-1,-1,-1
151402442,0.38006591796875,0.6151123046875,-0.34295654296875,-0.59967041015625,-3977,7312,71,0,0,-1
151412432,0.38006591796875,0.61505126953125,-0.34295654296875,-0.59967041015625,-3978,7302,68,0,-1,-1
151422411,0.38006591796875,0.61505126953125,-0.34295654296875,-0.5997314453125,-3968,7295,72,0,-1,-1
151432399,0.38006591796875,0.61505126953125,-0.34295654296875,-0.5997314453125,-3969,7302,78,0,0,-1
151442380,0.38006591796875,0.61505126953125,-0.34295654296875,-0.5997314453125,-3970,7307,79,0,0,0
151452357,0.38006591796875,0.61505126953125,-0.34295654296875,-0.5997314453125,-3969,7305,88,-1,-1,-1
151462335,0.3800048828125,0.61505126953125,-0.34295654296875,-0.5997314453125,-3980,7303,86,0,-1,-1
151472326,0.3800048828125,0.61505126953125,-0.3428955078125,-0.59979248046875,-3979,7309,85,0,0,-1
151482302,0.3800048828125,0.61505126953125,-0.3428955078125,-0.59979248046875,-3976,7310,82,-1,0,-1
151492286,0.38006591796875,0.61505126953125,-0.3428955078125,-0.5997314453125,-3963,7314,78,0,0,-1
151502281,0.38006591796875,0.61505126953125,-0.3428955078125,-0.5997314453125,-3960,7313,72,0,-1,-1
151512263,0.38006591796875,0.61505126953125,-0.3428955078125,-0.5997314453125,-3962,7309,75,0,0,0
151522248,0.38006591796875,0.61505126953125,-0.3428955078125,-0.5997314453125,-3975,7308,66,0,-1,0
151532221,0.38006591796875,0.61505126953125,-0.3428955078125,-0.5997314453125,-3977,7321,60,0,-1,0
151542212,0.38006591796875,0.61505126953125,-0.3428955078125,-0.5997314453125,-3968,7324,57,0,-1,-1
151552191,0.3800048828125,0.61505126953125,-0.34295654296875,-0.5997314453125,-3973,7320,54,0,-1,-1
151562174,0.3800048828125,0.61505126953125,-0.34295654296875,-0.5997314453125,-3966,7322,52,0,-1,-1
151572161,0.38006591796875,0.61505126953125,-0.343017578125,-0.5997314453125,-3952,7311,51,0,-1,0
151582142,0.38006591796875,0.61505126953125,-0.34295654296875,-0.5997314453125,-3950,7304,56,0,0,-1
151592119,0.38006591796875,0.614990234375,-0.343017578125,-0.5997314453125,-3962,7321,62,-1,-1,0
151602100,0.38006591796875,0.614990234375,-0.343017578125,-0.59967041015625,-3955,7316,66,0,-1,0
151612092,0.38006591796875,0.614990234375,-0.34307861328125,-0.59967041015625,-3957,7318,64,0,0,0
151622068,0.380126953125,0.614990234375,-0.34307861328125,-0.59967041015625,-3963,7329,79,-1,-1,0
151632050,0.380126953125,0.61492919921875,-0.34307861328125,-0.59967041015625,-3964,7324,62,0,-1,0
151642037,0.38018798828125,0.61492919921875,-0.34307861328125,-0.59967041015625,-3960,7317,66,-1,0,-1
151652016,0.380126953125,0.61492919921875,-0.34307861328125,-0.59967041015625,-3965,7315,69,0,-1,-1
151662001,0.38018798828125,0.61492919921875,-0.34307861328125,-0.59967041015625,-3960,7312,78,0,0,0
151671984,0.38018798828125,0.61492919921875,-0.3431396484375,-0.59967041015625,-3954,7311,77,-1,0,-1
151681971,0.38018798828125,0.61492919921875,-0.3431396484375,-0.59967041015625,-3953,7312,72,0,-1,0
151691950,0.38018798828125,0.61492919921875,-0.3431396484375,-0.59967041015625,-3965,7309,76,-1,-1,-1
151701929,0.38018798828125,0.61492919921875,-0.3431396484375,-0.59967041015625,-3962,7308,59,0,-1,-1
151711922,0.38018798828125,0.61492919921875,-0.3431396484375,-0.59967041015625,-3962,7301,65,0,0,0
151721898,0.38018798828125,0.61492919921875,-0.3431396484375,-0.59967041015625,-3969,7305,67,-1,-1,0
151731875,0.38018798828125,0.6148681640625,-0.3431396484375,-0.59967041015625,-3969,7302,62,-1,-1,0
151741873,0.38018798828125,0.61492919921875,-0.3431396484375,-0.59967041015625,-3980,7304,58,0,0,-1
151751854,0.38018798828125,0.61492919921875,-0.3431396484375,-0.599609375,-3968,7312,67,0,0,-1
151761845,0.38018798828125,0.61492919921875,-0.3431396484375,-0.599609375,-3976,7306,70,0,-1,0
151771816,0.38018798828125,0.6148681640625,-0.3431396484375,-0.59967041015625,-3980,7307,76,-1,-1,0
151781799,0.38018798828125,0.61492919921875,-0.3431396484375,-0.59967041015625,-3973,7305,69,-1,-1,0
151791789,0.38018798828125,0.61492919921875,-0.34320068359375,-0.599609375,-3967,7307,62,0,0,0
151801766,0.38018798828125,0.61492919921875,-0.34320068359375,-0.599609375,-3968,7300,75,0,0,-1
151811746,0.38018798828125,0.61492919921875,-0.34320068359375,-0.599609375,-3975,7299,77,0,-1,0
151821731,0.38018798828125,0.61492919921875,-0.34320068359375,-0.599609375,-3971,7306,75,-1,0,0
151831708,0.3802490234375,0.6148681640625,-0.34320068359375,-0.599609375,-3965,7302,81,-1,-1,0
151841693,0.3802490234375,0.6148681640625,-0.34320068359375,-0.599609375,-3970,7296,62,0,-1,0
151851680,0.3802490234375,0.6148681640625,-0.34320068359375,-0.59967041015625,-3985,7314,68,-1,-1,0
151861664,0.3802490234375,0.6148681640625,-0.34320068359375,-0.599609375,-3981,7305,68,0,0,-1
151871651,0.3802490234375,0.6148681640625,-0.34320068359375,-0.599609375,-3968,7305,67,0,0,-1
151881639,0.3802490234375,0.6148681640625,-0.34320068359375,-0.599609375,-3984,7299,56,-1,-1,0
151891618,0.3802490234375,0.6148681640625,-0.3431396484375,-0.599609375,-3976,7299,63,0,-1,-1
151901608,0.3802490234375,0.6148681640625,-0.3431396484375,-0.59967041015625,-3973,7296,63,-1,-1,-1
151911591,0.3802490234375,0.6148681640625,-0.34320068359375,-0.599609375,-3966,7308,63,0,-1,-1
151921581,0.3802490234375,0.6148681640625,-0.34320068359375,-0.599609375,-3965,7300,76,0,0,0
151931548,0.3802490234375,0.6148681640625,-0.3431396484375,-0.599609375,-3971,7303,82,0,0,-1
151941523,0.3802490234375,0.61492919921875,-0.3431396484375,-0.599609375,-3971,7307,67,0,0,-1
151951517,0.3802490234375,0.6148681640625,-0.34320068359375,-0.599609375,-3963,7315,74,0,-1,0
151961493,0.3802490234375,0.6148681640625,-0.34320068359375,-0.59967041015625,-3968,7320,81,0,-1,0
151971480,0.3802490234375,0.6148681640625,-0.34320068359375,-0.59967041015625,-3964,7321,76,0,0,-1
151981458,0.3802490234375,0.61480712890625,-0.34320068359375,-0.59967041015625,-3970,7323,73,-1,-1,0
151991446,0.3802490234375,0.6148681640625,-0.34320068359375,-0.59967041015625,-3980,7311,75,0,0,0
152001424,0.38031005859375,0.61480712890625,-0.34320068359375,-0.59967041015625,-3977,7303,82,-1,-1,0
152011419,0.3802490234375,0.6148681640625,-0.34320068359375,-0.599609375,-3979,7308,71,0,0,-1
152021403,0.38031005859375,0.6148681640625,-0.34320068359375,-0.599609375,-3971,7299,63,0,-1,0
152031381,0.38031005859375,0.6148681640625,-0.34320068359375,-0.599609375,-3964,7293,71,0,0,-1
152041359,0.38031005859375,0.6148681640625,-0.3431396484375,-0.599609375,-3970,7305,73,0,-1,-1
152051339,0.3802490234375,0.6148681640625,-0.3431396484375,-0.59967041015625,-3974,7296,86,0,-1,-1
152061332,0.3802490234375,0.6148681640625,-0.3431396484375,-0.59967041015625,-3967,7304,77,0,0,-1
152071311,0.38031005859375,0.6148681640625,-0.3431396484375,-0.599609375,-3975,7304,67,0,0,0
152081287,0.38031005859375,0.6148681640625,-0.3431396484375,-0.599609375,-3966,7310,69,-1,-1,0
152091275,0.38031005859375,0.6148681640625,-0.3431396484375,-0.59967041015625,-3973,7304,76,-1,0,-1
152101258,0.38031005859375,0.61480712890625,-0.3431396484375,-0.59967041015625,-3973,7304,78,-1,-1,0
152111240,0.38031005859375,0.61480712890625,-0.3431396484375,-0.59967041015625,-3971,7306,75,0,0,0
152121221,0.38037109375,0.61480712890625,-0.3431396484375,-0.59967041015625,-3971,7307,74,-1,-1,0
152131209,0.38031005859375,0.61480712890625,-0.3431396484375,-0.59967041015625,-3966,7304,74,0,-1,-1
152141197,0.38031005859375,0.61480712890625,-0.3431396484375,-0.59967041015625,-3967,7313,71,0,0,0
152151178,0.38037109375,0.61480712890625,-0.34320068359375,-0.599609375,-3967,7314,77,0,0,0
152161160,0.38037109375,0.61480712890625,-0.34320068359375,-0.599609375,-3965,7309,68,0,-1,0
152171140,0.38037109375,0.6148681640625,-0.34320068359375,-0.599609375,-3970,7313,62,0,0,-1
152181122,0.38031005859375,0.6148681640625,-0.34320068359375,-0.599609375,-3976,7304,56,0,-1,-1
152191115,0.38031005859375,0.6148681640625,-0.3431396484375,-0.599609375,-3968,7303,67,0,0,0
152201094,0.38037109375,0.6148681640625,-0.3431396484375,-0.599609375,-3973,7307,75,0,0,0
152211076,0.38037109375,0.6148681640625,-0.3431396484375,-0.599609375,-3969,7306,86,-1,-1,0
152221060,0.38037109375,0.6148681640625,-0.3431396484375,-0.599609375,-3982,7307,71,0,0,-1
152231036,0.38037109375,0.61480712890625,-0.3431396484375,-0.599609375,-3982,7309,59,-1,-1,0
152241021,0.38037109375,0.61480712890625,-0.3431396484375,-0.599609375,-3981,7312,68,0,0,0
152251000,0.38037109375,0.61480712890625,-0.3431396484375,-0.599609375,-3972,7309,66,-1,-1,-1
152260986,0.38037109375,0.61480712890625,-0.3431396484375,-0.599609375,-3972,7305,63,0,0,-1
152270968,0.38037109375,0.61480712890625,-0.3431396484375,-0.59967041015625,-3976,7297,60,-1,-1,0
152280956,0.38037109375,0.61480712890625,-0.3431396484375,-0.59967041015625,-3977,7290,58,0,-1,-1
152290936,0.38037109375,0.6148681640625,-0.3431396484375,-0.599609375,-3971,7292,57,0,0,-1
152300925,0.38031005859375,0.61480712890625,-0.3431396484375,-0.59967041015625,-3972,7292,61,0,-1,0
152310894,0.38037109375,0.61480712890625,-0.3431396484375,-0.59967041015625,-3970,7299,55,-1,-1,0
152320889,0.38031005859375,0.61480712890625,-0.3431396484375,-0.59967041015625,-3970,7299,56,0,-1,-1
152330873,0.38031005859375,0.61480712890625,-0.3431396484375,-0.59967041015625,-3969,7302,61,-1,-1,0
152340858,0.38031005859375,0.61480712890625,-0.3431396484375,-0.59967041015625,-3975,7299,68,0,0,0
152350842,0.38031005859375,0.61480712890625,-0.3431396484375,-0.59967041015625,-3972,7293,65,-1,-1,-1
152360822,0.38031005859375,0.61480712890625,-0.3431396484375,-0.59967041015625,-3976,7299,50,0,-1,0
152370803,0.38031005859375,0.61480712890625,-0.3431396484375,-0.59967041015625,-3980,7314,55,-1,0,-1
152380780,0.38031005859375,0.61480712890625,-0.3431396484375,-0.59967041015625,-3972,7320,71,0,-1,-1
152390774,0.38031005859375,0.61480712890625,-0.3431396484375,-0.59967041015625,-3971,7318,64,0,-1,-1
152400752,0.38031005859375,0.61480712890625,-0.34320068359375,-0.59967041015625,-3969,7321,66,0,-1,0
152410735,0.38031005859375,0.61474609375,-0.34320068359375,-0.5997314453125,-3978,7322,66,0,0,0
152420717,0.38031005859375,0.61474609375,-0.34320068359375,-0.59967041015625,-3969,7316,75,-1,-1,0
152430701,0.38031005859375,0.61474609375,-0.3431396484375,-0.5997314453125,-3966,7307,81,0,-1,-1
152440684,0.38031005859375,0.61474609375,-0.3431396484375,-0.5997314453125,-3969,7303,87,0,0,-1
152450666,0.38031005859375,0.61474609375,-0.3431396484375,-0.5997314453125,-3970,7305,80,0,-1,0
152460651,0.38031005859375,0.61474609375,-0.34320068359375,-0.5997314453125,-3972,7315,79,0,0,0
152470637,0.38031005859375,0.61474609375,-0.3431396484375,-0.5997314453125,-3974,7310,70,-1,-1,-1
152480630,0.38031005859375,0.61480712890625,-0.34320068359375,-0.59967041015625,-3967,7305,66,0,-1,0
152490615,0.3802490234375,0.61480712890625,-0.3431396484375,-0.5997314453125,-3973,7307,72,0,-1,-1
152500599,0.3802490234375,0.61480712890625,-0.34320068359375,-0.59967041015625,-3965,7312,68,0,0,0
152510566,0.3802490234375,0.61480712890625,-0.34320068359375,-0.59967041015625,-3971,7302,70,0,-1,0
152520539,0.3802490234375,0.61480712890625,-0.34320068359375,-0.5997314453125,-3969,7303,74,-1,-1,0
152530529,0.3802490234375,0.61480712890625,-0.34320068359375,-0.5997314453125,-3968,7297,68,0,-1,-1
152540517,0.3802490234375,0.61480712890625,-0.34320068359375,-0.5997314453125,-3961,7298,71,0,-1,-1
152550490,0.38018798828125,0.61474609375,-0.34320068359375,-0.5997314453125,-3965,7288,57,0,-1,-1
152560476,0.38018798828125,0.61474609375,-0.34320068359375,-0.5997314453125,-3971,7291,51,-1,-1,0
152570458,0.38018798828125,0.61474609375,-0.34320068359375,-0.59979248046875,-3966,7283,52,-1,-1,-1
152580448,0.38018798828125,0.61474609375,-0.34320068359375,-0.59979248046875,-3975,7286,61,0,0,0
152590426,0.38018798828125,0.61474609375,-0.34320068359375,-0.5997314453125,-3967,7298,51,-1,0,-1
152600418,0.38018798828125,0.61480712890625,-0.34326171875,-0.5997314453125,-3978,7300,54,0,0,0
152610389,0.3802490234375,0.61480712890625,-0.34326171875,-0.59967041015625,-3981,7300,61,-1,0,0
152620376,0.3802490234375,0.61480712890625,-0.34320068359375,-0.59967041015625,-3969,7301,64,0,-1,-1
152630357,0.3802490234375,0.61480712890625,-0.34320068359375,-0.59967041015625,-3967,7299,65,-1,0,-1
152640342,0.3802490234375,0.61480712890625,-0.34320068359375,-0.59967041015625,-3979,7307,65,0,-1,0
152650328,0.3802490234375,0.61480712890625,-0.34320068359375,-0.59967041015625,-3975,7310,64,0,0,0
152660305,0.3802490234375,0.61480712890625,-0.34320068359375,-0.59967041015625,-3965,7309,61,-1,0,-1
152670288,0.3802490234375,0.6148681640625,-0.34320068359375,-0.59967041015625,-3964,7308,69,0,0,-1
152680281,0.3802490234375,0.6148681640625,-0.34320068359375,-0.59967041015625,-3958,7302,66,0,-1,-1
152690257,0.3802490234375,0.6148681640625,-0.34320068359375,-0.599609375,-3957,7300,65,0,0,0
152700237,0.3802490234375,0.6148681640625,-0.34320068359375,-0.599609375,-3962,7297,72,0,0,0
152710221,0.38031005859375,0.6148681640625,-0.34320068359375,-0.599609375,-3961,7297,73,-1,-1,0
152720208,0.38031005859375,0.6148681640625,-0.34326171875,-0.599609375,-3963,7298,69,0,-1,0
152730191,0.38031005859375,0.6148681640625,-0.34326171875,-0.59954833984375,-3965,7302,58,0,0,0
152740178,0.38031005859375,0.6148681640625,-0.34326171875,-0.59954833984375,-3968,7319,52,-1,-1,-1
152750164,0.3802490234375,0.6148681640625,-0.34326171875,-0.59954833984375,-3975,7302,62,0,-1,0
152760138,0.38031005859375,0.6148681640625,-0.34326171875,-0.59954833984375,-3975,7295,63,-1,0,0
152770126,0.38031005859375,0.6148681640625,-0.34326171875,-0.599609375,-3976,7306,72,-1,-1,0
152780107,0.38031005859375,0.6148681640625,-0.34326171875,-0.59954833984375,-3971,7309,62,0,0,-1
152790084,0.3802490234375,0.6148681640625,-0.34326171875,-0.599609375,-3970,7299,59,-1,-1,-1
152800071,0.3802490234375,0.6148681640625,-0.34326171875,-0.59954833984375,-3971,7304,62,0,0,-1
152810060,0.38031005859375,0.6148681640625,-0.34326171875,-0.59954833984375,-3973,7313,69,-1,-1,0
152820028,0.38031005859375,0.61480712890625,-0.34326171875,-0.599609375,-3974,7314,68,-1,-1,0
152830016,0.38031005859375,0.61480712890625,-0.34326171875,-0.599609375,-3984,7319,69,-1,-1,0
152839999,0.38031005859375,0.61480712890625,-0.34332275390625,-0.59954833984375,-3966,7321,63,0,-1,0
152849986,0.38031005859375,0.61480712890625,-0.34332275390625,-0.59954833984375,-3960,7323,59,0,0,-1
152859969,0.38037109375,0.61480712890625,-0.34332275390625,-0.59954833984375,-3968,7330,60,-1,-1,0
152869955,0.38031005859375,0.61480712890625,-0.34332275390625,-0.59954833984375,-3967,7316,64,0,-1,-1
152879935,0.38031005859375,0.61480712890625,-0.34332275390625,-0.59954833984375,-3968,7317,62,0,0,0
152889917,0.38031005859375,0.61480712890625,-0.34332275390625,-0.59954833984375,-3971,7310,76,0,-1,0
152899904,0.38031005859375,0.6148681640625,-0.34332275390625,-0.59954833984375,-3963,7304,68,0,0,-1
152909886,0.38037109375,0.61480712890625,-0.34332275390625,-0.5994873046875,-3961,7309,77,-1,0,0
152919873,0.38037109375,0.61480712890625,-0.34332275390625,-0.59954833984375,-3965,7305,86,0,-1,-1
152929859,0.38037109375,0.6148681640625,-0.34332275390625,-0.59954833984375,-3966,7303,78,0,0,-1
152939839,0.38037109375,0.6148681640625,-0.34332275390625,-0.59954833984375,-3965,7298,79,0,-1,-1
152949826,0.38031005859375,0.6148681640625,-0.34332275390625,-0.59954833984375,-3972,7302,67,0,0,0
152959802,0.38037109375,0.6148681640625,-0.34326171875,-0.59954833984375,-3967,7298,78,-1,0,-1
152969781,0.38037109375,0.6148681640625,-0.34326171875,-0.59954833984375,-3963,7293,70,0,-1,-1
152979762,0.38031005859375,0.6148681640625,-0.34326171875,-0.59954833984375,-3968,7294,69,0,-1,-1
152989754,0.38031005859375,0.6148681640625,-0.34326171875,-0.59954833984375,-3974,7297,62,0,0,-1
152999733,0.38031005859375,0.6148681640625,-0.34326171875,-0.59954833984375,-3966,7292,69,0,0,0
153009717,0.38037109375,0.6148681640625,-0.34326171875,-0.59954833984375,-3971,7301,72,-1,-1,0
153019704,0.38037109375,0.6148681640625,-0.34326171875,-0.59954833984375,-3964,7305,72,0,-1,-1
153029690,0.38037109375,0.6148681640625,-0.34326171875,-0.5994873046875,-3964,7304,72,0,0,0
153039663,0.38037109375,0.6148681640625,-0.34332275390625,-0.5994873046875,-3953,7303,66,0,-1,0
153049653,0.38037109375,0.6148681640625,-0.34326171875,-0.5994873046875,-3956,7302,77,0,0,-1
153059639,0.38037109375,0.6148681640625,-0.34326171875,-0.5994873046875,-3961,7308,71,-1,-1,0
153069620,0.38037109375,0.6148681640625,-0.34326171875,-0.5994873046875,-3970,7295,65,0,-1,-1
153079616,0.38037109375,0.61492919921875,-0.34326171875,-0.5994873046875,-3968,7311,58,0,0,-1
153089601,0.38037109375,0.61492919921875,-0.34326171875,-0.5994873046875,-3965,7300,66,0,0,0
153099578,0.38037109375,0.61492919921875,-0.34326171875,-0.5994873046875,-3966,7303,55,0,-1,0
153109553,0.38037109375,0.61492919921875,-0.34326171875,-0.5994873046875,-3967,7304,61,0,0,-1
153119533,0.38037109375,0.61492919921875,-0.34326171875,-0.5994873046875,-3975,7300,57,-1,-1,-1
153129516,0.38037109375,0.61492919921875,-0.34326171875,-0.5994873046875,-3975,7292,62,0,0,0
153139503,0.38037109375,0.6148681640625,-0.34326171875,-0.5994873046875,-3964,7303,75,0,-1,0
153149475,0.38043212890625,0.6148681640625,-0.34326171875,-0.5994873046875,-3966,7302,73,-1,-1,0
153159463,0.38043212890625,0.6148681640625,-0.34332275390625,-0.5994873046875,-3969,7300,67,0,-1,0
153169454,0.38043212890625,0.6148681640625,-0.34326171875,-0.5994873046875,-3970,7305,74,0,0,0
153179431,0.38037109375,0.6148681640625,-0.34326171875,-0.5994873046875,-3970,7298,80,0,0,-1
153189417,0.38037109375,0.6148681640625,-0.34326171875,-0.5994873046875,-3967,7296,71,0,-1,0
153199399,0.38043212890625,0.6148681640625,-0.34332275390625,-0.59942626953125,-3956,7289,63,0,0,0
153209383,0.38043212890625,0.6148681640625,-0.34332275390625,-0.59942626953125,-3957,7299,77,-1,-1,0
153219359,0.38043212890625,0.6148681640625,-0.34332275390625,-0.5994873046875,-3964,7308,62,0,-1,-1
153229341,0.38037109375,0.6148681640625,-0.34332275390625,-0.5994873046875,-3967,7310,60,0,-1,-1
153239324,0.38037109375,0.6148681640625,-0.34332275390625,-0.5994873046875,-3976,7315,58,0,0,-1
153249310,0.38037109375,0.6148681640625,-0.34332275390625,-0.5994873046875,-3970,7315,56,0,-1,0
153259293,0.38037109375,0.6148681640625,-0.34332275390625,-0.5994873046875,-3972,7307,66,-1,-1,0
153269283,0.38037109375,0.6148681640625,-0.34332275390625,-0.5994873046875,-3970,7312,73,0,0,0
153279256,0.38037109375,0.6148681640625,-0.34332275390625,-0.59942626953125,-3972,7310,73,0,0,0
153289238,0.38037109375,0.61492919921875,-0.34332275390625,-0.59942626953125,-3983,7311,63,-1,0,0
153299220,0.38037109375,0.61492919921875,-0.34326171875,-0.5994873046875,-3985,7296,79,-1,-1,0
153309211,0.38037109375,0.61492919921875,-0.34326171875,-0.59942626953125,-3978,7286,68,0,0,-1
153319197,0.38037109375,0.61492919921875,-0.34326171875,-0.59942626953125,-3968,7299,73,0,-1,-1
153329182,0.38037109375,0.6148681640625,-0.34326171875,-0.5994873046875,-3966,7304,84,0,0,-1
153339162,0.38037109375,0.6148681640625,-0.34326171875,-0.5994873046875,-3978,7309,79,0,-1,0
153349139,0.38037109375,0.6148681640625,-0.34326171875,-0.5994873046875,-3975,7315,79,0,0,-1
153359123,0.38037109375,0.61492919921875,-0.34326171875,-0.5994873046875,-3976,7303,80,0,0,-1
153369109,0.38037109375,0.61492919921875,-0.34326171875,-0.5994873046875,-3969,7309,76,0,0,0
153379088,0.38037109375,0.6148681640625,-0.34326171875,-0.5994873046875,-3977,7309,70,-1,-1,-1
153389078,0.38031005859375,0.61492919921875,-0.34326171875,-0.5994873046875,-3979,7310,66,0,0,0
153399060,0.38031005859375,0.61492919921875,-0.34326171875,-0.5994873046875,-3984,7305,62,-1,0,-1
153409034,0.38037109375,0.61492919921875,-0.34326171875,-0.5994873046875,-3976,7306,66,-1,-1,0
153419020,0.38031005859375,0.61492919921875,-0.34326171875,-0.5994873046875,-3983,7305,51,0,-1,-1
153429005,0.38031005859375,0.61492919921875,-0.34326171875,-0.5994873046875,-3979,7313,45,0,-1,0
153438990,0.38031005859375,0.61492919921875,-0.34326171875,-0.59942626953125,-3978,7314,50,0,0,0
153448968,0.38031005859375,0.614990234375,-0.34326171875,-0.59942626953125,-3982,7301,52,-1,0,-1
153458952,0.38031005859375,0.614990234375,-0.34326171875,-0.59942626953125,-3983,7301,62,0,-1,-1
153468945,0.38031005859375,0.614990234375,-0.34326171875,-0.59942626953125,-3984,7286,62,0,0,0
153478921,0.38031005859375,0.614990234375,-0.34320068359375,-0.59942626953125,-3986,7292,67,0,0,0
153488903,0.38031005859375,0.614990234375,-0.34320068359375,-0.59942626953125,-3971,7302,82,-1,0,-1
153498884,0.38031005859375,0.614990234375,-0.34326171875,-0.59942626953125,-3972,7304,77,-1,-1,0
153508873,0.38031005859375,0.614990234375,-0.34320068359375,-0.59942626953125,-3967,7297,76,0,0,-1
153518853,0.38031005859375,0.614990234375,-0.34320068359375,-0.59942626953125,-3977,7292,83,0,0,-1
153528843,0.38031005859375,0.614990234375,-0.34320068359375,-0.5994873046875,-3974,7303,85,-1,-1,0
153538827,0.38037109375,0.614990234375,-0.34320068359375,-0.59942626953125,-3968,7307,81,0,-1,0
153548804,0.38037109375,0.614990234375,-0.34326171875,-0.59942626953125,-3965,7311,74,0,0,0
153558791,0.38037109375,0.614990234375,-0.34320068359375,-0.59942626953125,-3965,7304,77,0,-1,-1
153568764,0.38037109375,0.614990234375,-0.34320068359375,-0.5994873046875,-3954,7303,80,0,-1,-1
153578759,0.38037109375,0.614990234375,-0.34320068359375,-0.59942626953125,-3957,7310,74,0,0,0
153588739,0.38037109375,0.614990234375,-0.34320068359375,-0.5994873046875,-3966,7300,69,-1,-1,0
153598720,0.38037109375,0.614990234375,-0.34320068359375,-0.59942626953125,-3965,7305,79,0,0,-1
153608697,0.38037109375,0.61492919921875,-0.34320068359375,-0.5994873046875,-3963,7302,79,-1,-1,-1
153618684,0.38037109375,0.61492919921875,-0.34320068359375,-0.5994873046875,-3955,7296,76,0,-1,0
153628671,0.38031005859375,0.61492919921875,-0.34320068359375,-0.59954833984375,-3968,7293,75,0,-1,0
153638654,0.38037109375,0.61492919921875,-0.34320068359375,-0.59954833984375,-3968,7289,72,0,-1,0
153648637,0.38037109375,0.6148681640625,-0.34326171875,-0.59954833984375,-3964,7284,53,0,-1,0
153658630,0.38037109375,0.61492919921875,-0.34326171875,-0.5994873046875,-3964,7290,59,0,0,0
153668611,0.38037109375,0.61492919921875,-0.34326171875,-0.5994873046875,-3970,7285,53,-1,-1,-1
153678598,0.38031005859375,0.61492919921875,-0.34326171875,-0.5994873046875,-3978,7293,48,0,-1,-1
153688580,0.38031005859375,0.61492919921875,-0.34326171875,-0.5994873046875,-3965,7298,46,0,-1,0
153698550,0.38031005859375,0.61492919921875,-0.34326171875,-0.5994873046875,-3965,7296,45,0,0,-1
153708527,0.38031005859375,0.614990234375,-0.34326171875,-0.5994873046875,-3973,7295,58,0,-1,-1
153718509,0.3802490234375,0.61492919921875,-0.34326171875,-0.5994873046875,-3964,7297,62,0,-1,-1
153728494,0.3802490234375,0.614990234375,-0.34326171875,-0.5994873046875,-3967,7295,46,0,0,-1
153738481,0.3802490234375,0.61492919921875,-0.34326171875,-0.5994873046875,-3969,7306,57,-1,-1,0
153748454,0.38031005859375,0.61492919921875,-0.34326171875,-0.5994873046875,-3963,7308,57,-1,-1,0
153758443,0.38031005859375,0.61492919921875,-0.34326171875,-0.5994873046875,-3972,7303,61,0,-1,0
153768429,0.3802490234375,0.61492919921875,-0.34326171875,-0.59954833984375,-3975,7295,63,0,-1,-1
153778415,0.3802490234375,0.61492919921875,-0.34332275390625,-0.59954833984375,-3990,7302,62,0,-1,0
153788407,0.3802490234375,0.61492919921875,-0.34326171875,-0.59954833984375,-3990,7297,70,0,0,-1
153798379,0.3802490234375,0.61492919921875,-0.34326171875,-0.59954833984375,-3989,7308,70,0,0,0
153808363,0.3802490234375,0.614990234375,-0.34326171875,-0.5994873046875,-3991,7304,62,0,0,0
153818345,0.3802490234375,0.614990234375,-0.34320068359375,-0.5994873046875,-4001,7304,59,0,0,0
153828335,0.3802490234375,0.614990234375,-0.34320068359375,-0.5994873046875,-3988,7298,70,0,0,0
153838311,0.38031005859375,0.614990234375,-0.34326171875,-0.5994873046875,-3971,7302,67,0,0,0
153848289,0.38031005859375,0.61492919921875,-0.34326171875,-0.5994873046875,-3975,7307,71,-1,-1,0
153858272,0.38031005859375,0.61492919921875,-0.34326171875,-0.5994873046875,-3977,7311,68,0,-1,0
153868253,0.38031005859375,0.61492919921875,-0.34326171875,-0.5994873046875,-3976,7317,66,0,-1,0
153878243,0.38031005859375,0.61492919921875,-0.34326171875,-0.5994873046875,-3970,7322,79,-1,0,-1
153888223,0.38031005859375,0.61492919921875,-0.34326171875,-0.5994873046875,-3975,7310,75,0,0,-1
153898208,0.38031005859375,0.61492919921875,-0.34326171875,-0.5994873046875,-3984,7313,79,0,0,-1
153908190,0.38031005859375,0.614990234375,-0.34320068359375,-0.5994873046875,-3987,7312,78,0,0,-1
153918182,0.38031005859375,0.61492919921875,-0.34320068359375,-0.5994873046875,-3977,7304,77,0,-1,0
153928165,0.38031005859375,0.61492919921875,-0.34320068359375,-0.59954833984375,-3967,7304,70,0,-1,-1
153938148,0.3802490234375,0.61492919921875,-0.34326171875,-0.59954833984375,-3960,7295,69,0,0,0
153948123,0.38031005859375,0.61492919921875,-0.34320068359375,-0.5994873046875,-3962,7309,69,-1,0,-1
153958110,0.38031005859375,0.61492919921875,-0.34320068359375,-0.5994873046875,-3968,7311,58,0,0,0
153968092,0.38031005859375,0.614990234375,-0.34320068359375,-0.5994873046875,-3983,7306,60,0,-1,0
153978073,0.38031005859375,0.61492919921875,-0.34320068359375,-0.5994873046875,-3985,7307,62,-1,0,0
153988060,0.38031005859375,0.614990234375,-0.34320068359375,-0.5994873046875,-3996,7303,63,0,0,0
153998039,0.38031005859375,0.614990234375,-0.34320068359375,-0.5994873046875,-4000,7322,65,-1,-1,0
154008023,0.38031005859375,0.614990234375,-0.34320068359375,-0.5994873046875,-3996,7311,66,0,0,0
154018004,0.38031005859375,0.614990234375,-0.34320068359375,-0.5994873046875,-3987,7308,66,-1,-1,-1
154027995,0.38031005859375,0.614990234375,-0.34320068359375,-0.5994873046875,-3985,7306,63,0,0,-1
154037971,0.3802490234375,0.614990234375,-0.34320068359375,-0.59942626953125,-3990,7308,63,0,0,0
154047959,0.38031005859375,0.614990234375,-0.34320068359375,-0.5994873046875,-3985,7301,74,-1,-1,0
154057944,0.38031005859375,0.614990234375,-0.34320068359375,-0.5994873046875,-3988,7288,70,-1,0,0
154067919,0.38031005859375,0.61505126953125,-0.3431396484375,-0.5994873046875,-3990,7291,73,-1,0,-1
154077900,0.38031005859375,0.61505126953125,-0.3431396484375,-0.59942626953125,-3974,7297,63,0,0,-1
154087889,0.38031005859375,0.61505126953125,-0.34320068359375,-0.59942626953125,-3971,7292,68,-1,-1,0
154097864,0.38031005859375,0.614990234375,-0.34320068359375,-0.59942626953125,-3972,7309,48,-1,-1,0
154107858,0.38031005859375,0.614990234375,-0.34320068359375,-0.59942626953125,-3966,7313,60,0,-1,-1
154117853,0.38031005859375,0.614990234375,-0.34320068359375,-0.59942626953125,-3968,7308,59,0,0,-1
154131419,0.38031005859375,0.614990234375,-0.34320068359375,-0.5994873046875,-3973,7300,69,0,-1,0
154137805,0.38031005859375,0.61505126953125,-0.34320068359375,-0.59942626953125,-3992,7302,65,-1,0,-1
154147785,0.38031005859375,0.61505126953125,-0.34320068359375,-0.59942626953125,-3984,7314,65,0,0,0
154157774,0.38031005859375,0.61505126953125,-0.34320068359375,-0.59942626953125,-3976,7314,64,0,0,-1
154167756,0.38031005859375,0.61505126953125,-0.34320068359375,-0.59942626953125,-3970,7323,59,0,-1,-1
154177736,0.38031005859375,0.61505126953125,-0.34320068359375,-0.59942626953125,-3965,7319,59,0,-1,0
154187717,0.38031005859375,0.614990234375,-0.34326171875,-0.59942626953125,-3948,7316,63,-1,-1,0
154197697,0.38031005859375,0.614990234375,-0.34326171875,-0.59942626953125,-3955,7312,57,0,-1,0
154207680,0.38031005859375,0.614990234375,-0.34326171875,-0.59942626953125,-3956,7308,54,-1,-1,0
154217666,0.38031005859375,0.614990234375,-0.34332275390625,-0.59942626953125,-3952,7310,59,0,0,-1
154227656,0.38031005859375,0.614990234375,-0.34326171875,-0.59942626953125,-3968,7306,60,0,0,-1
154237645,0.38031005859375,0.614990234375,-0.34326171875,-0.59942626953125,-3976,7306,62,0,-1,0
154247614,0.38031005859375,0.61492919921875,-0.34326171875,-0.59942626953125,-3967,7304,71,-1,-1,0
154257607,0.38037109375,0.61492919921875,-0.34332275390625,-0.59942626953125,-3962,7312,70,0,-1,0
154267598,0.38037109375,0.6148681640625,-0.34332275390625,-0.59942626953125,-3965,7315,82,-1,-1,0
154277580,0.38037109375,0.6148681640625,-0.34332275390625,-0.59942626953125,-3965,7312,74,0,-1,0
154287562,0.38037109375,0.61492919921875,-0.34332275390625,-0.59942626953125,-3968,7311,62,0,0,-1
154297536,0.38043212890625,0.6148681640625,-0.34332275390625,-0.59942626953125,-3967,7313,75,0,-1,0
154307520,0.38043212890625,0.6148681640625,-0.34332275390625,-0.59942626953125,-3965,7317,81,0,0,-1
154317502,0.38043212890625,0.6148681640625,-0.34332275390625,-0.59942626953125,-3952,7309,77,0,-1,-1
154327487,0.38043212890625,0.6148681640625,-0.3433837890625,-0.59942626953125,-3959,7313,70,0,0,0
154337461,0.38043212890625,0.6148681640625,-0.34332275390625,-0.59942626953125,-3961,7303,65,-1,0,-1
154347451,0.38043212890625,0.61492919921875,-0.34332275390625,-0.59942626953125,-3974,7308,62,0,0,0
154357432,0.38043212890625,0.61492919921875,-0.34332275390625,-0.59942626953125,-3989,7308,60,0,-1,0
154367413,0.38037109375,0.61492919921875,-0.34332275390625,-0.59942626953125,-3985,7308,62,-1,-1,0
154377406,0.38037109375,0.61492919921875,-0.34332275390625,-0.59942626953125,-3975,7297,67,0,0,-1
154387377,0.38037109375,0.61492919921875,-0.34332275390625,-0.59942626953125,-3972,7296,68,0,0,-1
154397368,0.38037109375,0.61492919921875,-0.34326171875,-0.59942626953125,-3988,7294,69,0,0,0
154407346,0.38037109375,0.614990234375,-0.34326171875,-0.59942626953125,-3995,7303,73,0,0,0
154417331,0.38037109375,0.61492919921875,-0.34326171875,-0.59942626953125,-3993,7314,80,0,-1,0
154427314,0.38043212890625,0.61492919921875,-0.34326171875,-0.59942626953125,-3975,7307,82,0,0,0
154437290,0.38043212890625,0.6148681640625,-0.34326171875,-0.59942626953125,-3969,7304,98,-1,-1,0
154447283,0.38043212890625,0.6148681640625,-0.34326171875,-0.59942626953125,-3967,7309,99,0,0,-1
154457264,0.38043212890625,0.6148681640625,-0.34326171875,-0.59942626953125,-3963,7299,94,0,0,0
154467241,0.38043212890625,0.6148681640625,-0.34326171875,-0.5994873046875,-3966,7295,94,0,-1,0
154477228,0.38043212890625,0.6148681640625,-0.34326171875,-0.5994873046875,-3967,7300,80,-1,-1,0
154487208,0.38043212890625,0.6148681640625,-0.34326171875,-0.5994873046875,-3969,7309,77,0,-1,0
154497198,0.3804931640625,0.6148681640625,-0.34326171875,-0.5994873046875,-3973,7310,77,-1,0,0
154507175,0.3804931640625,0.6148681640625,-0.34326171875,-0.59942626953125,-3962,7300,74,-1,0,0
154517162,0.3804931640625,0.6148681640625,-0.34326171875,-0.59942626953125,-3969,7294,81,0,0,0
154527137,0.3804931640625,0.6148681640625,-0.34326171875,-0.59942626953125,-3961,7304,84,-1,0,-1
154537122,0.3804931640625,0.6148681640625,-0.34320068359375,-0.59942626953125,-3971,7300,76,0,0,-1
154547114,0.3804931640625,0.6148681640625,-0.34320068359375,-0.59942626953125,-3971,7304,84,0,0,-1
154557094,0.3804931640625,0.6148681640625,-0.34320068359375,-0.5994873046875,-3973,7293,84,-1,0,0
154567074,0.3804931640625,0.6148681640625,-0.34320068359375,-0.59942626953125,-3973,7289,87,-1,-1,0
154577053,0.3804931640625,0.6148681640625,-0.34320068359375,-0.5994873046875,-3969,7287,82,-1,0,0
154587041,0.3804931640625,0.6148681640625,-0.34320068359375,-0.59942626953125,-3974,7311,75,-1,-1,-1
154597028,0.3804931640625,0.61492919921875,-0.34320068359375,-0.59942626953125,-3975,7312,67,0,0,0
154607003,0.38055419921875,0.61492919921875,-0.34320068359375,-0.599365234375,-3959,7317,69,-1,0,0
154616990,0.38055419921875,0.61492919921875,-0.34320068359375,-0.599365234375,-3948,7319,65,0,0,-1
154626979,0.38055419921875,0.61492919921875,-0.34320068359375,-0.599365234375,-3955,7321,58,0,0,0
154636966,0.380615234375,0.61492919921875,-0.34320068359375,-0.599365234375,-3963,7315,65,-1,-1,0
154646943,0.380615234375,0.61492919921875,-0.34320068359375,-0.599365234375,-3966,7316,58,0,-1,0
154656928,0.380615234375,0.61492919921875,-0.34326171875,-0.599365234375,-3961,7312,68,0,0,-1
154666911,0.380615234375,0.6148681640625,-0.34326171875,-0.599365234375,-3963,7319,61,0,-1,0
154676888,0.380615234375,0.61492919921875,-0.34326171875,-0.599365234375,-3967,7325,63,0,0,-1
154686873,0.38055419921875,0.61492919921875,-0.34326171875,-0.599365234375,-3967,7314,63,0,0,-1
154696860,0.38055419921875,0.61492919921875,-0.34320068359375,-0.599365234375,-3972,7311,73,0,0,0
154706846,0.380615234375,0.61492919921875,-0.34320068359375,-0.599365234375,-3971,7320,68,0,-1,0
154716824,0.380615234375,0.61492919921875,-0.34326171875,-0.599365234375,-3972,7326,70,0,-1,0
154726816,0.380615234375,0.61492919921875,-0.34326171875,-0.599365234375,-3974,7319,74,0,0,-1
154736788,0.380615234375,0.61492919921875,-0.34320068359375,-0.599365234375,-3988,7319,63,-1,0,-1
154746774,0.380615234375,0.61492919921875,-0.34320068359375,-0.59930419921875,-3987,7309,61,0,0,0
154756754,0.380615234375,0.61492919921875,-0.34320068359375,-0.59930419921875,-3993,7310,70,0,-1,0
154766740,0.380615234375,0.61492919921875,-0.34320068359375,-0.599365234375,-3988,7310,68,0,0,0
154776717,0.38055419921875,0.614990234375,-0.34320068359375,-0.59930419921875,-3980,7315,53,0,0,-1
154786701,0.38055419921875,0.614990234375,-0.34320068359375,-0.59930419921875,-3981,7316,65,0,0,-1
154796688,0.38055419921875,0.614990234375,-0.34320068359375,-0.59930419921875,-3977,7307,65,0,0,0
154806663,0.38055419921875,0.614990234375,-0.34320068359375,-0.59930419921875,-3982,7307,75,-1,-1,0
154816662,0.38055419921875,0.614990234375,-0.3431396484375,-0.59930419921875,-3983,7297,68,0,0,-1
154826639,0.38055419921875,0.614990234375,-0.3431396484375,-0.599365234375,-3982,7298,76,0,0,-1
154836618,0.3804931640625,0.614990234375,-0.34307861328125,-0.599365234375,-3981,7295,79,0,0,-1
154846611,0.38055419921875,0.614990234375,-0.34307861328125,-0.599365234375,-3972,7300,84,-1,-1,0
154856598,0.38055419921875,0.614990234375,-0.34307861328125,-0.59942626953125,-3968,7298,78,0,-1,-1
154866586,0.38055419921875,0.614990234375,-0.34307861328125,-0.599365234375,-3952,7303,79,0,-1,0
154876566,0.38055419921875,0.614990234375,-0.3431396484375,-0.599365234375,-3961,7303,76,0,-1,0
154886537,0.38055419921875,0.61492919921875,-0.3431396484375,-0.599365234375,-3957,7306,65,0,0,0
154896518,0.38055419921875,0.614990234375,-0.3431396484375,-0.599365234375,-3972,7309,66,-1,0,0
154906497,0.38055419921875,0.614990234375,-0.3431396484375,-0.599365234375,-3966,7309,73,0,-1,0
154916486,0.38055419921875,0.614990234375,-0.3431396484375,-0.599365234375,-3973,7311,74,0,0,-1
154926458,0.38055419921875,0.614990234375,-0.3431396484375,-0.599365234375,-3979,7317,76,0,0,-1
154936451,0.38055419921875,0.614990234375,-0.3431396484375,-0.599365234375,-3973,7320,69,0,-1,0
154946431,0.38055419921875,0.614990234375,-0.3431396484375,-0.59930419921875,-3974,7321,62,0,0,-1
154956417,0.38055419921875,0.614990234375,-0.3431396484375,-0.59930419921875,-3968,7326,74,-1,-1,0
154966408,0.38055419921875,0.614990234375,-0.3431396484375,-0.59930419921875,-3973,7312,71,0,0,-1
154976382,0.380615234375,0.614990234375,-0.3431396484375,-0.59930419921875,-3962,7320,63,0,0,0
154986360,0.380615234375,0.61505126953125,-0.3431396484375,-0.5992431640625,-3959,7317,60,-1,0,-1
154996349,0.38055419921875,0.61505126953125,-0.3431396484375,-0.59930419921875,-3967,7312,64,0,-1,0
155006327,0.38055419921875,0.614990234375,-0.3431396484375,-0.59930419921875,-3968,7311,64,0,-1,0
155016324,0.38055419921875,0.61505126953125,-0.3431396484375,-0.59930419921875,-3969,7319,54,0,0,0
155026294,0.38055419921875,0.61505126953125,-0.34320068359375,-0.5992431640625,-3974,7315,57,0,0,0
155036274,0.380615234375,0.61505126953125,-0.3431396484375,-0.5992431640625,-3964,7306,61,-1,0,0
155046261,0.380615234375,0.61505126953125,-0.3431396484375,-0.5992431640625,-3967,7304,62,0,-1,0
155056243,0.380615234375,0.61505126953125,-0.34320068359375,-0.5992431640625,-3976,7291,66,0,0,0
155066223,0.380615234375,0.61505126953125,-0.3431396484375,-0.5992431640625,-3981,7296,68,-1,0,0
155076208,0.380615234375,0.61505126953125,-0.3431396484375,-0.5992431640625,-3983,7296,67,-1,-1,-1
155086197,0.380615234375,0.61505126953125,-0.3431396484375,-0.5992431640625,-3976,7297,74,0,0,0
155096186,0.38067626953125,0.61505126953125,-0.3431396484375,-0.5992431640625,-3962,7302,73,0,0,-1
155106174,0.380615234375,0.61505126953125,-0.3431396484375,-0.5992431640625,-3958,7301,72,0,-1,-1
155116135,0.380615234375,0.614990234375,-0.3431396484375,-0.59930419921875,-3952,7307,71,-1,-1,-1
155126131,0.380615234375,0.61505126953125,-0.3431396484375,-0.5992431640625,-3962,7304,62,0,0,0
155136107,0.380615234375,0.61505126953125,-0.3431396484375,-0.5992431640625,-3969,7299,60,-1,-1,-1
155146095,0.380615234375,0.61505126953125,-0.3431396484375,-0.59930419921875,-3974,7288,55,-1,-1,0
155156067,0.380615234375,0.614990234375,-0.3431396484375,-0.59930419921875,-3965,7295,62,-1,-1,0
155166060,0.380615234375,0.614990234375,-0.3431396484375,-0.59930419921875,-3962,7297,57,0,-1,-1
155176038,0.380615234375,0.614990234375,-0.3431396484375,-0.59930419921875,-3966,7295,62,-1,-1,0
155186029,0.380615234375,0.614990234375,-0.3431396484375,-0.59930419921875,-3973,7299,53,0,0,-1
155196007,0.38055419921875,0.61505126953125,-0.3431396484375,-0.59930419921875,-3979,7288,62,0,0,0
155205989,0.380615234375,0.61505126953125,-0.3431396484375,-0.59930419921875,-3957,7285,68,0,0,0
155215969,0.380615234375,0.614990234375,-0.34320068359375,-0.5992431640625,-3958,7297,66,-1,0,0
155225957,0.380615234375,0.614990234375,-0.34320068359375,-0.5992431640625,-3944,7300,69,0,0,-1
155235940,0.380615234375,0.61505126953125,-0.34320068359375,-0.5992431640625,-3950,7310,71,0,0,0
155245924,0.380615234375,0.614990234375,-0.34320068359375,-0.5992431640625,-3953,7307,71,0,-1,0
155255905,0.380615234375,0.614990234375,-0.34326171875,-0.5992431640625,-3956,7316,69,0,-1,0
155265895,0.380615234375,0.614990234375,-0.34326171875,-0.5992431640625,-3964,7313,76,0,0,0
155275873,0.38067626953125,0.614990234375,-0.34326171875,-0.5992431640625,-3976,7308,73,-1,-1,0
155285854,0.38067626953125,0.614990234375,-0.34326171875,-0.5992431640625,-3966,7307,56,0,0,0
155295846,0.38067626953125,0.614990234375,-0.34326171875,-0.59918212890625,-3956,7299,53,0,-1,0
155305831,0.38067626953125,0.614990234375,-0.34326171875,-0.5992431640625,-3965,7295,44,0,-1,0
155315816,0.38067626953125,0.614990234375,-0.34326171875,-0.59918212890625,-3975,7303,34,-1,0,0
155325785,0.38067626953125,0.614990234375,-0.34326171875,-0.59918212890625,-3973,7296,41,-1,0,-1
155335774,0.38067626953125,0.61505126953125,-0.34326171875,-0.59918212890625,-3982,7302,44,0,0,0
155345751,0.38067626953125,0.614990234375,-0.34326171875,-0.59918212890625,-3978,7304,54,-1,-1,0
155355742,0.380615234375,0.61505126953125,-0.34326171875,-0.59918212890625,-3981,7298,51,0,0,-1
155365719,0.380615234375,0.61505126953125,-0.34320068359375,-0.59918212890625,-3975,7295,57,0,0,-1
155375700,0.380615234375,0.61505126953125,-0.34320068359375,-0.59918212890625,-3976,7294,65,0,0,-1
155385694,0.380615234375,0.61505126953125,-0.34320068359375,-0.59918212890625,-3974,7301,58,0,-1,-1
155395665,0.380615234375,0.6151123046875,-0.34320068359375,-0.59918212890625,-3964,7307,61,0,0,0
155405661,0.380615234375,0.6151123046875,-0.3431396484375,-0.59918212890625,-3967,7296,70,0,0,-1
155415643,0.380615234375,0.6151123046875,-0.3431396484375,-0.59918212890625,-3968,7296,63,-1,0,0
155425630,0.380615234375,0.61517333984375,-0.3431396484375,-0.59918212890625,-3980,7294,64,-1,-1,-1
155435613,0.380615234375,0.61517333984375,-0.3431396484375,-0.59918212890625,-3977,7295,61,0,0,-1
155445598,0.380615234375,0.61517333984375,-0.3431396484375,-0.59918212890625,-3976,7302,63,0,-1,0
155455580,0.38055419921875,0.61517333984375,-0.3431396484375,-0.59918212890625,-3980,7286,60,-1,-1,0
155465563,0.38055419921875,0.61517333984375,-0.34307861328125,-0.59918212890625,-3974,7280,59,0,0,-1
155475533,0.380615234375,0.6151123046875,-0.3431396484375,-0.59918212890625,-3976,7292,64,-1,-1,0
155485517,0.380615234375,0.6151123046875,-0.3431396484375,-0.59918212890625,-3974,7290,65,0,-1,-1
155495501,0.380615234375,0.6151123046875,-0.3431396484375,-0.59918212890625,-3976,7289,63,0,-1,0
155505490,0.380615234375,0.6151123046875,-0.3431396484375,-0.5992431640625,-3983,7287,68,0,0,-1
155515461,0.380615234375,0.6151123046875,-0.34307861328125,-0.59918212890625,-3983,7291,60,0,0,-1
155525442,0.380615234375,0.61517333984375,-0.34307861328125,-0.59918212890625,-3985,7300,63,0,0,-1
155535437,0.380615234375,0.61517333984375,-0.34307861328125,-0.59918212890625,-3980,7303,67,0,-1,0
155545419,0.380615234375,0.6151123046875,-0.3431396484375,-0.59918212890625,-3972,7300,63,0,-1,-1
155555405,0.380615234375,0.61517333984375,-0.3431396484375,-0.59918212890625,-3971,7306,68,0,0,0
155565376,0.380615234375,0.6151123046875,-0.34307861328125,-0.59918212890625,-3978,7306,72,-1,0,-1
155575367,0.380615234375,0.61517333984375,-0.34307861328125,-0.59918212890625,-3978,7311,72,0,0,0
155585349,0.380615234375,0.61517333984375,-0.34307861328125,-0.59918212890625,-3976,7301,73,0,0,0
155595336,0.380615234375,0.61517333984375,-0.34307861328125,-0.59918212890625,-3961,7305,66,0,0,0
155605315,0.38067626953125,0.6151123046875,-0.34307861328125,-0.59912109375,-3968,7311,70,-1,0,0
155615290,0.38067626953125,0.6151123046875,-0.3431396484375,-0.59912109375,-3958,7309,55,-1,-1,0
155625284,0.38067626953125,0.6151123046875,-0.3431396484375,-0.59918212890625,-3966,7305,66,0,0,-1
155635261,0.38067626953125,0.6151123046875,-0.3431396484375,-0.59912109375,-3966,7295,67,0,0,0
155645243,0.38067626953125,0.61517333984375,-0.3431396484375,-0.59912109375,-3968,7296,64,0,0,0
155655231,0.3807373046875,0.61517333984375,-0.34307861328125,-0.59912109375,-3977,7305,60,-1,-1,0
155665208,0.3807373046875,0.6151123046875,-0.3431396484375,-0.59912109375,-3983,7304,56,0,-1,0
155675195,0.3807373046875,0.61517333984375,-0.3431396484375,-0.59906005859375,-3967,7296,53,0,0,0
155685187,0.3807373046875,0.6151123046875,-0.3431396484375,-0.59906005859375,-3951,7306,62,0,-1,-1
155695159,0.3807373046875,0.6151123046875,-0.34320068359375,-0.59906005859375,-3949,7311,56,0,-1,-1
155705147,0.3807373046875,0.61517333984375,-0.3431396484375,-0.59906005859375,-3960,7313,55,0,0,-1
155715127,0.3807373046875,0.6151123046875,-0.3431396484375,-0.59906005859375,-3970,7312,70,-1,-1,0
155725111,0.3807373046875,0.6151123046875,-0.34320068359375,-0.59906005859375,-3973,7311,60,0,0,0
155735094,0.3807373046875,0.6151123046875,-0.34320068359375,-0.59906005859375,-3974,7318,68,0,-1,0
155745076,0.3807373046875,0.6151123046875,-0.34320068359375,-0.59906005859375,-3973,7307,70,0,-1,0
155755060,0.3807373046875,0.6151123046875,-0.34320068359375,-0.59906005859375,-3975,7313,71,0,0,-1
155765042,0.3807373046875,0.6151123046875,-0.34320068359375,-0.59906005859375,-3977,7319,73,-1,-1,0
155775027,0.3807373046875,0.6151123046875,-0.34320068359375,-0.59906005859375,-3981,7317,70,0,0,0
155785004,0.3807373046875,0.6151123046875,-0.34320068359375,-0.59906005859375,-3987,7310,71,-1,-1,0
155794991,0.3807373046875,0.61517333984375,-0.34320068359375,-0.59906005859375,-3990,7308,74,0,0,-1
155804981,0.3807373046875,0.61517333984375,-0.3431396484375,-0.59906005859375,-3985,7306,64,0,0,0
155814955,0.3807373046875,0.61517333984375,-0.3431396484375,-0.59906005859375,-3995,7295,65,-1,0,0
155824939,0.3807373046875,0.61517333984375,-0.3431396484375,-0.59906005859375,-3990,7292,73,0,0,0
155834929,0.3807373046875,0.6151123046875,-0.3431396484375,-0.59906005859375,-3987,7292,81,-1,-1,0
155844911,0.3807373046875,0.6151123046875,-0.3431396484375,-0.59912109375,-3977,7294,77,0,-1,0
155854891,0.3807373046875,0.6151123046875,-0.3431396484375,-0.59912109375,-3979,7300,76,0,0,-1
155864873,0.38067626953125,0.61517333984375,-0.3431396484375,-0.59912109375,-3975,7302,62,0,-1,-1
155874861,0.38067626953125,0.61517333984375,-0.3431396484375,-0.59906005859375,-3977,7303,59,0,0,0
155884845,0.38067626953125,0.61517333984375,-0.3431396484375,-0.59906005859375,-3976,7307,66,-1,-1,-1
155894829,0.38067626953125,0.61517333984375,-0.3431396484375,-0.59912109375,-3971,7300,57,0,-1,0
155904816,0.38067626953125,0.61517333984375,-0.3431396484375,-0.59912109375,-3968,7296,50,0,0,0
155914798,0.38067626953125,0.61517333984375,-0.3431396484375,-0.59912109375,-3967,7289,55,0,0,-1
155924767,0.38067626953125,0.61517333984375,-0.34307861328125,-0.59912109375,-3973,7290,55,-1,0,-1
155934755,0.38067626953125,0.61517333984375,-0.34307861328125,-0.59912109375,-3971,7298,67,0,0,0
155944741,0.38067626953125,0.61517333984375,-0.34307861328125,-0.59912109375,-3979,7304,71,0,0,-1
155954721,0.38067626953125,0.61517333984375,-0.34307861328125,-0.59912109375,-3981,7313,63,0,0,0
155964703,0.38067626953125,0.61517333984375,-0.343017578125,-0.59912109375,-3971,7299,65,-1,-1,-1
155974689,0.38067626953125,0.615234375,-0.34307861328125,-0.59912109375,-3969,7297,67,0,0,0
155984668,0.38067626953125,0.61517333984375,-0.343017578125,-0.59912109375,-3966,7297,66,0,-1,-1
155994661,0.380615234375,0.615234375,-0.343017578125,-0.59912109375,-3972,7300,63,0,0,-1
156004636,0.380615234375,0.615234375,-0.343017578125,-0.59912109375,-3969,7307,65,-1,0,-1
156014630,0.380615234375,0.615234375,-0.343017578125,-0.59912109375,-3976,7319,57,0,-1,0
156024617,0.380615234375,0.615234375,-0.343017578125,-0.59912109375,-3975,7316,65,0,0,-1
156034603,0.380615234375,0.615234375,-0.343017578125,-0.59912109375,-3978,7320,85,0,-1,0
156044569,0.380615234375,0.615234375,-0.343017578125,-0.59912109375,-3974,7318,88,0,-1,-1
156054553,0.38055419921875,0.615234375,-0.34295654296875,-0.59918212890625,-3968,7309,86,0,-1,-1
156064531,0.38055419921875,0.615234375,-0.34295654296875,-0.59918212890625,-3970,7306,79,0,-1,-1
156074515,0.38055419921875,0.615234375,-0.34295654296875,-0.5992431640625,-3964,7308,77,0,-1,-1
156084501,0.38055419921875,0.615234375,-0.343017578125,-0.5992431640625,-3955,7312,74,0,-1,0
156094487,0.38055419921875,0.615234375,-0.343017578125,-0.59918212890625,-3957,7313,69,0,0,-1
156104475,0.38055419921875,0.615234375,-0.34295654296875,-0.5992431640625,-3960,7313,68,0,0,-1
156114449,0.38055419921875,0.615234375,-0.34295654296875,-0.5992431640625,-3957,7308,66,-1,-1,0
156124438,0.38055419921875,0.61517333984375,-0.343017578125,-0.5992431640625,-3955,7308,65,0,0,-1
156134420,0.3804931640625,0.61517333984375,-0.343017578125,-0.5992431640625,-3964,7310,66,-1,-1,-1
156144405,0.3804931640625,0.61517333984375,-0.343017578125,-0.5992431640625,-3967,7310,65,0,-1,0
156154384,0.3804931640625,0.615234375,-0.34295654296875,-0.5992431640625,-3963,7307,68,0,0,-1
156164367,0.3804931640625,0.615234375,-0.34295654296875,-0.5992431640625,-3958,7305,65,0,-1,-1
156174351,0.3804931640625,0.615234375,-0.34295654296875,-0.5992431640625,-3967,7295,66,0,0,-1
156184334,0.3804931640625,0.615234375,-0.3428955078125,-0.5992431640625,-3974,7288,68,-1,-1,0
156194316,0.3804931640625,0.615234375,-0.34295654296875,-0.5992431640625,-3967,7284,64,-1,0,0
156204290,0.3804931640625,0.615234375,-0.34295654296875,-0.5992431640625,-3970,7283,62,-1,-1,0
156214285,0.3804931640625,0.615234375,-0.3428955078125,-0.5992431640625,-3963,7286,61,0,0,-1
156224263,0.3804931640625,0.615234375,-0.3428955078125,-0.5992431640625,-3976,7303,72,0,0,0
156234242,0.38055419921875,0.615234375,-0.3428955078125,-0.5992431640625,-3972,7305,86,0,0,0
156244225,0.38055419921875,0.61517333984375,-0.3428955078125,-0.59930419921875,-3965,7302,95,-1,-1,0
156254212,0.3804931640625,0.61517333984375,-0.3428955078125,-0.59930419921875,-3970,7297,81,0,-1,-1
156264195,0.3804931640625,0.615234375,-0.3428955078125,-0.59930419921875,-3977,7299,71,0,0,-1
156274177,0.3804931640625,0.61517333984375,-0.3428955078125,-0.59930419921875,-3974,7302,87,0,-1,-1
156284177,0.3804931640625,0.615234375,-0.34283447265625,-0.59930419921875,-3981,7298,81,0,0,0
156294142,0.3804931640625,0.61517333984375,-0.34283447265625,-0.599365234375,-3974,7312,82,-1,-1,-1
156304123,0.3804931640625,0.61517333984375,-0.34283447265625,-0.599365234375,-3977,7316,81,0,-1,-1
156314106,0.3804931640625,0.61517333984375,-0.34283447265625,-0.599365234375,-3977,7310,72,0,-1,-1
156324092,0.38043212890625,0.61517333984375,-0.34283447265625,-0.599365234375,-3979,7314,66,0,-1,0
156334075,0.38043212890625,0.61517333984375,-0.3428955078125,-0.599365234375,-3967,7307,67,0,-1,0
156344069,0.3804931640625,0.61517333984375,-0.3428955078125,-0.599365234375,-3964,7306,70,0,0,0
156354041,0.3804931640625,0.61517333984375,-0.34283447265625,-0.599365234375,-3965,7297,73,-1,0,-1
156364023,0.38043212890625,0.615234375,-0.34283447265625,-0.599365234375,-3980,7319,48,0,0,-1
156374009,0.38043212890625,0.615234375,-0.34283447265625,-0.599365234375,-3982,7310,67,0,-1,-1
156384000,0.38043212890625,0.615234375,-0.34283447265625,-0.599365234375,-3983,7309,52,0,0,0
156393976,0.38043212890625,0.615234375,-0.34283447265625,-0.59930419921875,-3973,7295,59,0,0,0
156403956,0.38043212890625,0.615234375,-0.34283447265625,-0.599365234375,-3975,7297,59,-1,-1,0
156413943,0.38043212890625,0.615234375,-0.34283447265625,-0.599365234375,-3984,7292,63,0,0,0
156423926,0.38043212890625,0.615234375,-0.34283447265625,-0.599365234375,-3991,7298,53,-1,-1,-1
156433905,0.38043212890625,0.61517333984375,-0.34283447265625,-0.599365234375,-3982,7302,70,0,-1,0
156443885,0.38043212890625,0.61517333984375,-0.34283447265625,-0.599365234375,-3979,7315,64,-1,-1,0
156453877,0.38043212890625,0.61517333984375,-0.34283447265625,-0.599365234375,-3982,7306,64,0,0,0
