subject,Still with noise
arm,neither
label,0
hz,100.16948236916392
time,5.460745

timestamp_us,q0,q1,q2,q3,ax,ay,az,gx,gy,gz
236268584,-0.21978759765625,0.54541015625,0.45751953125,-0.6669921875,-4261,-6932,-111,0,-1,0
236278571,-0.21978759765625,0.54547119140625,0.45751953125,-0.6669921875,-4268,-6932,-114,-1,0,0
236288536,-0.21978759765625,0.54547119140625,0.45751953125,-0.6669921875,-4274,-6941,-108,-1,0,0
236298532,-0.21978759765625,0.54541015625,0.45751953125,-0.6669921875,-4263,-6922,-105,0,-1,0
236308511,-0.21978759765625,0.54541015625,0.45751953125,-0.6669921875,-4267,-6927,-99,0,0,-1
236318498,-0.2198486328125,0.54541015625,0.45751953125,-0.6669921875,-4266,-6936,-109,0,0,-1
236328468,-0.21990966796875,0.54541015625,0.45751953125,-0.6669921875,-4239,-6928,-93,0,0,-1
236338465,-0.21990966796875,0.54534912109375,0.45751953125,-0.6669921875,-4245,-6921,-93,0,-1,0
236348446,-0.21990966796875,0.54534912109375,0.45751953125,-0.6669921875,-4256,-6916,-93,0,0,0
236358433,-0.21990966796875,0.54534912109375,0.45751953125,-0.6669921875,-4263,-6921,-102,0,-1,0
236368406,-0.21990966796875,0.54534912109375,0.45751953125,-0.6669921875,-4268,-6911,-105,-1,-1,0
236378398,-0.2198486328125,0.54534912109375,0.45751953125,-0.6669921875,-4271,-6906,-105,0,0,0
236388370,-0.2198486328125,0.54534912109375,0.45751953125,-0.66705322265625,-4274,-6899,-109,-1,-1,0
236398355,-0.2198486328125,0.54541015625,0.45751953125,-0.6669921875,-4269,-6906,-112,0,0,0
236408334,-0.21978759765625,0.54541015625,0.45751953125,-0.6669921875,-4270,-6907,-113,-1,0,0
236418318,-0.21978759765625,0.54541015625,0.45751953125,-0.6669921875,-4261,-6907,-126,-1,0,0
236428304,-0.21978759765625,0.54541015625,0.45751953125,-0.6669921875,-4271,-6907,-115,0,-1,0
236438289,-0.21978759765625,0.54547119140625,0.45751953125,-0.6669921875,-4274,-6922,-122,-1,0,-1
236448279,-0.2198486328125,0.54547119140625,0.45751953125,-0.66693115234375,-4269,-6929,-130,0,-1,-1
236458258,-0.2198486328125,0.54541015625,0.45751953125,-0.6669921875,-4272,-6934,-128,0,-1,0
236468237,-0.2198486328125,0.54541015625,0.45751953125,-0.6669921875,-4274,-6930,-141,0,0,-1
236478214,-0.2198486328125,0.54541015625,0.45758056640625,-0.66693115234375,-4273,-6920,-133,-1,0,-1
236488208,-0.2198486328125,0.54541015625,0.45758056640625,-0.66693115234375,-4277,-6926,-131,0,-1,0
236498196,-0.2198486328125,0.54541015625,0.45751953125,-0.6669921875,-4279,-6908,-117,0,0,0
236508180,-0.2198486328125,0.54541015625,0.45758056640625,-0.66693115234375,-4271,-6911,-119,-1,-1,0
236518157,-0.2198486328125,0.54541015625,0.45751953125,-0.6669921875,-4283,-6922,-123,0,-1,0
236528135,-0.2198486328125,0.54541015625,0.45751953125,-0.6669921875,-4268,-6925,-126,0,-1,0
236538117,-0.2198486328125,0.54541015625,0.45751953125,-0.6669921875,-4260,-6904,-117,0,0,0
236548100,-0.21978759765625,0.54541015625,0.45751953125,-0.6669921875,-4264,-6898,-120,-1,-1,0
236558091,-0.2198486328125,0.54541015625,0.45751953125,-0.6669921875,-4257,-6903,-121,0,-1,-1
236568066,-0.2198486328125,0.54541015625,0.45751953125,-0.6669921875,-4265,-6909,-121,0,0,-1
236578060,-0.2198486328125,0.54541015625,0.45751953125,-0.6669921875,-4275,-6923,-126,0,-1,0
236588039,-0.21990966796875,0.54541015625,0.45751953125,-0.66693115234375,-4269,-6935,-119,-1,-1,-1
236598022,-0.21990966796875,0.54541015625,0.45751953125,-0.66693115234375,-4270,-6927,-116,0,0,0
236607997,-0.2198486328125,0.54541015625,0.45751953125,-0.6669921875,-4277,-6915,-110,-1,0,0
236617979,-0.21978759765625,0.54547119140625,0.45751953125,-0.6669921875,-4278,-6902,-101,-1,-1,0
236627968,-0.21978759765625,0.54547119140625,0.45745849609375,-0.6669921875,-4284,-6897,-121,0,0,0
236637948,-0.21978759765625,0.5455322265625,0.45751953125,-0.66693115234375,-4278,-6904,-115,-1,0,0
236647934,-0.21978759765625,0.54547119140625,0.45751953125,-0.66693115234375,-4269,-6912,-116,0,-1,0
236657923,-0.21978759765625,0.54547119140625,0.45745849609375,-0.6669921875,-4272,-6920,-110,0,0,0
236667901,-0.21978759765625,0.54547119140625,0.45745849609375,-0.6669921875,-4278,-6919,-103,0,0,0
236677883,-0.21978759765625,0.54547119140625,0.45745849609375,-0.6669921875,-4283,-6914,-101,0,0,0
236687859,-0.21978759765625,0.54547119140625,0.4573974609375,-0.6669921875,-4287,-6922,-97,0,0,0
236697854,-0.21978759765625,0.54547119140625,0.45745849609375,-0.6669921875,-4286,-6935,-96,-1,0,-1
236707841,-0.2198486328125,0.54547119140625,0.4573974609375,-0.6669921875,-4280,-6924,-96,0,0,0
236717825,-0.2198486328125,0.54547119140625,0.4573974609375,-0.6669921875,-4277,-6929,-95,0,-1,0
236727801,-0.2198486328125,0.54547119140625,0.4573974609375,-0.6669921875,-4274,-6924,-109,0,0,0
236737779,-0.2198486328125,0.5455322265625,0.4573974609375,-0.6669921875,-4268,-6925,-104,0,-1,0
236747765,-0.2198486328125,0.54547119140625,0.4573974609375,-0.6669921875,-4274,-6932,-107,0,-1,0
236757747,-0.2198486328125,0.5455322265625,0.45733642578125,-0.6669921875,-4281,-6914,-115,0,0,0
236767727,-0.21978759765625,0.5455322265625,0.45733642578125,-0.66705322265625,-4289,-6914,-107,-1,0,0
236777717,-0.21978759765625,0.5455322265625,0.45733642578125,-0.66705322265625,-4292,-6923,-113,0,-1,-1
236787700,-0.2198486328125,0.5455322265625,0.45733642578125,-0.6669921875,-4275,-6919,-131,0,0,-1
236797680,-0.21978759765625,0.5455322265625,0.45733642578125,-0.6669921875,-4284,-6906,-134,-1,-1,-1
236807664,-0.21978759765625,0.5455322265625,0.45733642578125,-0.6669921875,-4285,-6906,-126,0,0,0
236817649,-0.21978759765625,0.5455322265625,0.45733642578125,-0.6669921875,-4281,-6918,-117,-1,-1,-1
236827634,-0.2198486328125,0.5455322265625,0.45733642578125,-0.6669921875,-4271,-6919,-116,0,0,-1
236837615,-0.2198486328125,0.5455322265625,0.45733642578125,-0.6669921875,-4265,-6911,-108,-1,-1,0
236847603,-0.2198486328125,0.5455322265625,0.45733642578125,-0.6669921875,-4274,-6902,-118,0,-1,0
236857598,-0.21978759765625,0.54559326171875,0.457275390625,-0.6669921875,-4276,-6896,-117,0,-1,0
236867583,-0.21978759765625,0.54559326171875,0.457275390625,-0.6669921875,-4267,-6893,-110,0,0,0
236877554,-0.2198486328125,0.5455322265625,0.457275390625,-0.6669921875,-4265,-6905,-111,0,0,-1
236887523,-0.2198486328125,0.5455322265625,0.457275390625,-0.6669921875,-4268,-6919,-110,0,0,-1
236897519,-0.21990966796875,0.5455322265625,0.457275390625,-0.6669921875,-4278,-6934,-103,0,0,-1
236907498,-0.21990966796875,0.5455322265625,0.457275390625,-0.6669921875,-4277,-6927,-111,0,-1,0
236917476,-0.21990966796875,0.54559326171875,0.457275390625,-0.6669921875,-4281,-6942,-108,-1,0,0
236927459,-0.21990966796875,0.54559326171875,0.457275390625,-0.6669921875,-4270,-6936,-118,0,0,0
236937445,-0.21990966796875,0.5455322265625,0.457275390625,-0.6669921875,-4255,-6933,-112,0,-1,0
236947434,-0.21990966796875,0.5455322265625,0.457275390625,-0.6669921875,-4274,-6935,-105,0,-1,0
236957410,-0.21990966796875,0.5455322265625,0.457275390625,-0.66705322265625,-4270,-6920,-104,0,-1,0
236967388,-0.21990966796875,0.5455322265625,0.457275390625,-0.66705322265625,-4270,-6930,-108,-1,-1,0
236977379,-0.21990966796875,0.5455322265625,0.457275390625,-0.66705322265625,-4266,-6925,-124,0,-1,0
236987361,-0.2198486328125,0.54559326171875,0.457275390625,-0.6669921875,-4276,-6922,-116,0,0,0
236997345,-0.2198486328125,0.54559326171875,0.45721435546875,-0.66705322265625,-4262,-6906,-108,0,-1,0
237007328,-0.2198486328125,0.5455322265625,0.45721435546875,-0.66705322265625,-4275,-6917,-98,0,0,-1
237017307,-0.2198486328125,0.5455322265625,0.45721435546875,-0.66705322265625,-4267,-6910,-106,-1,-1,0
237027291,-0.2198486328125,0.54559326171875,0.45721435546875,-0.66705322265625,-4283,-6900,-111,0,0,0
237037280,-0.2198486328125,0.54559326171875,0.45721435546875,-0.66705322265625,-4288,-6907,-108,0,-1,-1
237047253,-0.2198486328125,0.5455322265625,0.45721435546875,-0.66705322265625,-4282,-6906,-106,0,-1,-1
237057238,-0.21978759765625,0.54559326171875,0.45721435546875,-0.66705322265625,-4279,-6912,-112,-1,-1,0
237067224,-0.21978759765625,0.54559326171875,0.45721435546875,-0.66705322265625,-4279,-6916,-116,0,0,0
237077208,-0.2198486328125,0.5455322265625,0.45721435546875,-0.66705322265625,-4263,-6931,-105,0,0,-1
237087195,-0.2198486328125,0.5455322265625,0.457275390625,-0.66705322265625,-4255,-6923,-104,-1,-1,0
237097175,-0.2198486328125,0.5455322265625,0.45721435546875,-0.66705322265625,-4250,-6912,-118,0,-1,0
237107167,-0.2198486328125,0.5455322265625,0.457275390625,-0.66705322265625,-4256,-6913,-125,0,0,0
237117156,-0.2198486328125,0.5455322265625,0.457275390625,-0.66705322265625,-4261,-6916,-125,0,-1,0
237127125,-0.2198486328125,0.5455322265625,0.45721435546875,-0.66705322265625,-4264,-6902,-125,0,0,-1
237137109,-0.2198486328125,0.5455322265625,0.457275390625,-0.66705322265625,-4259,-6903,-129,0,-1,0
237147088,-0.2198486328125,0.5455322265625,0.457275390625,-0.66705322265625,-4267,-6910,-128,0,-1,0
237157075,-0.2198486328125,0.5455322265625,0.45721435546875,-0.66705322265625,-4271,-6908,-123,0,0,0
237167053,-0.21978759765625,0.54559326171875,0.45721435546875,-0.66705322265625,-4272,-6906,-125,-1,-1,0
237177039,-0.21978759765625,0.54559326171875,0.45721435546875,-0.66705322265625,-4268,-6905,-117,0,0,0
237187023,-0.21978759765625,0.54559326171875,0.457275390625,-0.66705322265625,-4260,-6911,-124,-1,-1,-1
237197012,-0.21978759765625,0.54559326171875,0.45721435546875,-0.66705322265625,-4273,-6916,-117,0,0,0
237206988,-0.2198486328125,0.54559326171875,0.45721435546875,-0.66705322265625,-4269,-6917,-116,0,0,0
237216971,-0.2198486328125,0.54559326171875,0.45721435546875,-0.66705322265625,-4248,-6895,-118,0,0,0
237226949,-0.2198486328125,0.54559326171875,0.45721435546875,-0.66705322265625,-4255,-6909,-113,-1,0,0
237236933,-0.2198486328125,0.54559326171875,0.45721435546875,-0.6669921875,-4255,-6913,-115,-1,-1,0
237246921,-0.2198486328125,0.54559326171875,0.457275390625,-0.6669921875,-4254,-6921,-121,0,0,-1
237256910,-0.2198486328125,0.54559326171875,0.457275390625,-0.6669921875,-4260,-6919,-112,0,-1,0
237266884,-0.2198486328125,0.54559326171875,0.457275390625,-0.6669921875,-4256,-6923,-120,-1,0,0
237276873,-0.2198486328125,0.54559326171875,0.457275390625,-0.6669921875,-4254,-6924,-113,0,0,0
237286859,-0.2198486328125,0.54559326171875,0.457275390625,-0.66705322265625,-4249,-6933,-104,0,-1,0
237296848,-0.2198486328125,0.54559326171875,0.457275390625,-0.6669921875,-4258,-6926,-117,0,-1,0
237306829,-0.2198486328125,0.54559326171875,0.457275390625,-0.6669921875,-4260,-6924,-122,0,-1,0
237316806,-0.2198486328125,0.54559326171875,0.457275390625,-0.6669921875,-4256,-6921,-124,0,0,0
237326781,-0.2198486328125,0.54559326171875,0.457275390625,-0.6669921875,-4256,-6911,-127,-1,-1,-1
237336774,-0.2198486328125,0.54559326171875,0.457275390625,-0.6669921875,-4256,-6916,-134,0,0,0
237346752,-0.21990966796875,0.54559326171875,0.457275390625,-0.6669921875,-4259,-6915,-126,0,0,-1
237356733,-0.2198486328125,0.54559326171875,0.457275390625,-0.6669921875,-4262,-6911,-118,-1,-1,0
237366719,-0.21990966796875,0.54559326171875,0.457275390625,-0.6669921875,-4256,-6912,-120,0,-1,-1
237376700,-0.21990966796875,0.54559326171875,0.457275390625,-0.6669921875,-4259,-6909,-114,0,0,0
237386680,-0.21990966796875,0.54559326171875,0.457275390625,-0.6669921875,-4256,-6904,-108,-1,-1,0
237396666,-0.21990966796875,0.54559326171875,0.45721435546875,-0.6669921875,-4253,-6911,-105,0,0,0
237406652,-0.21990966796875,0.54559326171875,0.457275390625,-0.6669921875,-4263,-6925,-105,-1,0,-1
237416639,-0.21990966796875,0.54559326171875,0.457275390625,-0.6669921875,-4251,-6920,-112,0,0,0
237426616,-0.21990966796875,0.54559326171875,0.457275390625,-0.6669921875,-4253,-6931,-111,-1,-1,0
237436606,-0.21990966796875,0.54559326171875,0.457275390625,-0.6669921875,-4258,-6928,-122,0,-1,0
237446599,-0.21990966796875,0.5455322265625,0.457275390625,-0.6669921875,-4264,-6929,-117,0,0,-1
237456570,-0.219970703125,0.54559326171875,0.457275390625,-0.6669921875,-4263,-6930,-121,0,0,-1
237466553,-0.219970703125,0.54559326171875,0.457275390625,-0.6669921875,-4253,-6923,-129,0,0,0
237476526,-0.219970703125,0.54559326171875,0.457275390625,-0.6669921875,-4248,-6919,-113,0,0,-1
237486521,-0.22003173828125,0.54559326171875,0.457275390625,-0.66693115234375,-4246,-6924,-116,0,0,-1
237496503,-0.22003173828125,0.54559326171875,0.457275390625,-0.66693115234375,-4257,-6924,-119,0,0,0
237506482,-0.22003173828125,0.54559326171875,0.457275390625,-0.66693115234375,-4270,-6930,-109,-1,0,0
237516460,-0.22003173828125,0.54559326171875,0.457275390625,-0.66693115234375,-4277,-6927,-115,0,0,-1
237526446,-0.2200927734375,0.5455322265625,0.457275390625,-0.66693115234375,-4279,-6921,-108,0,-1,-1
237536430,-0.22003173828125,0.5455322265625,0.457275390625,-0.6669921875,-4283,-6915,-109,0,-1,0
237546420,-0.2200927734375,0.54559326171875,0.457275390625,-0.66693115234375,-4278,-6916,-129,-1,0,-1
237556391,-0.2200927734375,0.54559326171875,0.457275390625,-0.66693115234375,-4273,-6912,-127,0,0,-1
237566385,-0.2200927734375,0.54559326171875,0.457275390625,-0.66693115234375,-4277,-6917,-126,0,-1,0
237576360,-0.2200927734375,0.54559326171875,0.457275390625,-0.66693115234375,-4282,-6924,-130,0,0,0
237586340,-0.2200927734375,0.54559326171875,0.457275390625,-0.6668701171875,-4273,-6918,-123,-1,0,0
237596324,-0.2200927734375,0.54559326171875,0.457275390625,-0.6668701171875,-4258,-6906,-110,-1,-1,0
237606315,-0.2200927734375,0.54559326171875,0.457275390625,-0.66693115234375,-4263,-6897,-105,0,-1,-1
237616291,-0.22015380859375,0.54559326171875,0.457275390625,-0.66693115234375,-4251,-6893,-105,0,-1,-1
237626283,-0.22015380859375,0.5455322265625,0.457275390625,-0.66693115234375,-4262,-6912,-106,0,-1,0
237636255,-0.22015380859375,0.5455322265625,0.457275390625,-0.66693115234375,-4266,-6908,-108,0,-1,-1
237646241,-0.2200927734375,0.5455322265625,0.457275390625,-0.6669921875,-4279,-6912,-106,-1,-1,0
237656226,-0.2200927734375,0.5455322265625,0.457275390625,-0.6669921875,-4276,-6909,-111,0,0,0
237666208,-0.2200927734375,0.5455322265625,0.457275390625,-0.6669921875,-4287,-6920,-108,-1,0,0
237676190,-0.22003173828125,0.5455322265625,0.457275390625,-0.6669921875,-4284,-6917,-121,0,-1,-1
237686191,-0.2200927734375,0.5455322265625,0.457275390625,-0.6669921875,-4283,-6914,-117,0,0,0
237696163,-0.22003173828125,0.5455322265625,0.45721435546875,-0.6669921875,-4289,-6909,-104,-1,-1,0
237706145,-0.22003173828125,0.5455322265625,0.45721435546875,-0.6669921875,-4287,-6913,-109,0,0,0
237716129,-0.22003173828125,0.5455322265625,0.45721435546875,-0.6669921875,-4296,-6903,-117,0,0,-1
237726113,-0.22003173828125,0.54559326171875,0.45721435546875,-0.6669921875,-4284,-6900,-114,0,-1,0
237736098,-0.22003173828125,0.5455322265625,0.45721435546875,-0.6669921875,-4274,-6913,-116,0,-1,0
237746078,-0.22003173828125,0.54559326171875,0.45721435546875,-0.6669921875,-4282,-6919,-116,0,0,0
237756060,-0.22003173828125,0.54559326171875,0.45721435546875,-0.6669921875,-4283,-6914,-109,-1,0,0
237766040,-0.22003173828125,0.54559326171875,0.45721435546875,-0.6669921875,-4273,-6916,-121,0,0,0
237776029,-0.22003173828125,0.54559326171875,0.45721435546875,-0.6669921875,-4263,-6922,-120,-1,-1,0
237786011,-0.22003173828125,0.5455322265625,0.45721435546875,-0.66705322265625,-4275,-6930,-110,0,-1,0
237795989,-0.22003173828125,0.5455322265625,0.45721435546875,-0.6669921875,-4276,-6933,-111,0,0,-1
237805969,-0.22003173828125,0.5455322265625,0.45721435546875,-0.6669921875,-4275,-6929,-127,0,0,-1
237815954,-0.22003173828125,0.5455322265625,0.45721435546875,-0.6669921875,-4274,-6924,-116,-1,-1,0
237825938,-0.22003173828125,0.5455322265625,0.45721435546875,-0.6669921875,-4274,-6928,-124,0,-1,-1
237835927,-0.22003173828125,0.5455322265625,0.45721435546875,-0.6669921875,-4281,-6924,-123,0,0,-1
237845904,-0.2200927734375,0.54559326171875,0.45721435546875,-0.6669921875,-4280,-6925,-126,0,0,-1
237855889,-0.2200927734375,0.54559326171875,0.45721435546875,-0.66693115234375,-4273,-6922,-133,0,0,-1
237865877,-0.2200927734375,0.54559326171875,0.45721435546875,-0.66693115234375,-4267,-6917,-133,0,0,0
237875854,-0.2200927734375,0.54559326171875,0.45721435546875,-0.66693115234375,-4273,-6919,-131,0,-1,0
237885847,-0.2200927734375,0.545654296875,0.45721435546875,-0.66693115234375,-4281,-6926,-134,-1,0,-1
237895830,-0.22015380859375,0.545654296875,0.45721435546875,-0.66693115234375,-4277,-6933,-136,0,0,0
237905801,-0.2200927734375,0.545654296875,0.45721435546875,-0.6668701171875,-4286,-6928,-130,-1,0,0
237915787,-0.2200927734375,0.545654296875,0.45721435546875,-0.6668701171875,-4287,-6920,-127,0,0,0
237925778,-0.2200927734375,0.545654296875,0.45721435546875,-0.66693115234375,-4287,-6914,-108,0,-1,0
237935754,-0.2200927734375,0.54559326171875,0.45721435546875,-0.66693115234375,-4279,-6919,-111,0,-1,-1
237945732,-0.2200927734375,0.54559326171875,0.45721435546875,-0.66693115234375,-4275,-6914,-107,0,-1,0
237955722,-0.2200927734375,0.54559326171875,0.45721435546875,-0.66693115234375,-4276,-6909,-99,0,0,0
237965710,-0.2200927734375,0.54559326171875,0.45721435546875,-0.66693115234375,-4266,-6906,-108,0,-1,-1
237975687,-0.2200927734375,0.545654296875,0.4571533203125,-0.66693115234375,-4282,-6902,-102,-1,0,0
237985665,-0.2200927734375,0.545654296875,0.4571533203125,-0.66693115234375,-4279,-6908,-113,0,0,-1
237995658,-0.22003173828125,0.545654296875,0.4571533203125,-0.66693115234375,-4280,-6921,-110,0,-1,0
238005640,-0.22003173828125,0.545654296875,0.4571533203125,-0.66693115234375,-4273,-6909,-112,-1,0,0
238015630,-0.22003173828125,0.545654296875,0.4571533203125,-0.66693115234375,-4272,-6902,-115,0,-1,-1
238025606,-0.22003173828125,0.545654296875,0.4571533203125,-0.66693115234375,-4270,-6905,-116,-1,-1,-1
238035598,-0.22003173828125,0.545654296875,0.4571533203125,-0.66693115234375,-4278,-6910,-116,0,-1,0
238045585,-0.22003173828125,0.545654296875,0.4571533203125,-0.66693115234375,-4283,-6911,-127,0,0,0
238055546,-0.219970703125,0.54571533203125,0.4571533203125,-0.66693115234375,-4285,-6905,-130,-1,0,0
238065541,-0.219970703125,0.54571533203125,0.4571533203125,-0.66693115234375,-4281,-6908,-129,0,-1,0
238075516,-0.219970703125,0.545654296875,0.4571533203125,-0.66693115234375,-4273,-6919,-125,0,-1,0
238085502,-0.22003173828125,0.54571533203125,0.45721435546875,-0.66693115234375,-4264,-6919,-124,0,0,-1
238095488,-0.22003173828125,0.54571533203125,0.4571533203125,-0.66693115234375,-4261,-6918,-109,0,-1,0
238105461,-0.219970703125,0.545654296875,0.4571533203125,-0.66693115234375,-4260,-6921,-106,-1,-1,0
238115452,-0.22003173828125,0.545654296875,0.4571533203125,-0.66693115234375,-4258,-6919,-117,0,-1,0
238125433,-0.219970703125,0.545654296875,0.45721435546875,-0.66693115234375,-4254,-6895,-112,-1,-1,0
238135419,-0.22003173828125,0.545654296875,0.45721435546875,-0.66693115234375,-4257,-6906,-122,0,0,-1
238145411,-0.22003173828125,0.545654296875,0.45721435546875,-0.66693115234375,-4270,-6910,-114,0,0,0
238155384,-0.22003173828125,0.545654296875,0.4571533203125,-0.66693115234375,-4275,-6914,-103,0,0,0
238165360,-0.22003173828125,0.545654296875,0.4571533203125,-0.66693115234375,-4278,-6911,-109,0,0,0
238175346,-0.22003173828125,0.545654296875,0.4571533203125,-0.66693115234375,-4279,-6908,-111,0,0,0
238185335,-0.22003173828125,0.54571533203125,0.4571533203125,-0.66693115234375,-4275,-6906,-114,-1,0,0
238198419,-0.22003173828125,0.54571533203125,0.4571533203125,-0.66693115234375,-4278,-6900,-102,-1,0,0
238205302,-0.22003173828125,0.54571533203125,0.4571533203125,-0.66693115234375,-4262,-6903,-116,-1,-1,0
238215281,-0.22003173828125,0.54571533203125,0.4571533203125,-0.66693115234375,-4265,-6906,-125,0,0,0
238225261,-0.219970703125,0.54571533203125,0.4571533203125,-0.66693115234375,-4270,-6897,-122,-1,-1,0
238235250,-0.22003173828125,0.54571533203125,0.4571533203125,-0.66693115234375,-4270,-6916,-131,0,0,0
238245226,-0.219970703125,0.54571533203125,0.4571533203125,-0.66693115234375,-4264,-6915,-114,-1,-1,0
238255213,-0.219970703125,0.5457763671875,0.4571533203125,-0.66693115234375,-4260,-6908,-120,0,0,0
238265194,-0.219970703125,0.54571533203125,0.4571533203125,-0.66693115234375,-4263,-6915,-114,0,-1,-1
238275184,-0.219970703125,0.54571533203125,0.4571533203125,-0.66693115234375,-4265,-6915,-114,0,0,-1
238285172,-0.22003173828125,0.54571533203125,0.4571533203125,-0.66693115234375,-4262,-6916,-118,0,0,0
238295141,-0.22003173828125,0.54571533203125,0.4571533203125,-0.66693115234375,-4256,-6918,-124,-1,0,0
238305129,-0.22003173828125,0.54571533203125,0.45709228515625,-0.66693115234375,-4263,-6916,-114,0,-1,0
238315111,-0.219970703125,0.54571533203125,0.45709228515625,-0.66693115234375,-4284,-6909,-120,0,-1,0
238325098,-0.219970703125,0.5457763671875,0.45709228515625,-0.66693115234375,-4284,-6902,-122,0,0,0
238335079,-0.219970703125,0.5457763671875,0.45709228515625,-0.66693115234375,-4293,-6894,-110,0,0,-1
238345062,-0.219970703125,0.5457763671875,0.45709228515625,-0.66693115234375,-4287,-6905,-108,-1,-1,0
238355045,-0.219970703125,0.5457763671875,0.45709228515625,-0.66693115234375,-4286,-6917,-125,0,0,0
238365026,-0.219970703125,0.5457763671875,0.45709228515625,-0.66693115234375,-4280,-6916,-117,-1,-1,-1
238375009,-0.219970703125,0.5457763671875,0.45709228515625,-0.66693115234375,-4283,-6923,-123,0,0,-1
238384998,-0.219970703125,0.5457763671875,0.45709228515625,-0.66693115234375,-4284,-6932,-117,0,0,0
238394976,-0.219970703125,0.5457763671875,0.45709228515625,-0.66693115234375,-4284,-6933,-121,-1,-1,0
238404966,-0.219970703125,0.54583740234375,0.45709228515625,-0.66693115234375,-4282,-6934,-122,0,0,0
238414940,-0.219970703125,0.54583740234375,0.45709228515625,-0.6668701171875,-4271,-6932,-133,-1,-1,0
238424927,-0.22003173828125,0.54583740234375,0.45709228515625,-0.6668701171875,-4275,-6939,-130,0,0,0
238434909,-0.22003173828125,0.54583740234375,0.45709228515625,-0.6668701171875,-4282,-6937,-130,-1,0,-1
238444887,-0.22003173828125,0.54583740234375,0.45709228515625,-0.6668701171875,-4267,-6930,-132,0,0,-1
238454876,-0.22003173828125,0.54583740234375,0.4571533203125,-0.6668701171875,-4276,-6926,-134,0,-1,-1
238464862,-0.22003173828125,0.5457763671875,0.4571533203125,-0.6668701171875,-4272,-6938,-140,0,-1,-1
238474852,-0.2200927734375,0.5457763671875,0.45721435546875,-0.66680908203125,-4263,-6942,-150,0,-1,0
238484836,-0.2200927734375,0.5457763671875,0.4571533203125,-0.66680908203125,-4259,-6932,-141,0,0,0
238494813,-0.2200927734375,0.54583740234375,0.4571533203125,-0.66680908203125,-4263,-6934,-138,-1,0,-1
238504796,-0.2200927734375,0.54583740234375,0.4571533203125,-0.66680908203125,-4272,-6931,-134,0,0,-1
238514779,-0.2200927734375,0.54583740234375,0.4571533203125,-0.66680908203125,-4264,-6935,-134,0,-1,0
238524762,-0.2200927734375,0.54583740234375,0.4571533203125,-0.66680908203125,-4263,-6928,-131,0,-1,0
238534737,-0.2200927734375,0.54583740234375,0.4571533203125,-0.66680908203125,-4257,-6923,-128,0,0,-1
238544718,-0.22015380859375,0.54583740234375,0.4571533203125,-0.666748046875,-4262,-6929,-117,0,0,-1
238554706,-0.22015380859375,0.54583740234375,0.45721435546875,-0.666748046875,-4259,-6913,-129,0,-1,-1
238564686,-0.22015380859375,0.5457763671875,0.45721435546875,-0.66680908203125,-4255,-6910,-117,0,-1,-1
238574680,-0.22021484375,0.5457763671875,0.45721435546875,-0.66680908203125,-4259,-6923,-121,0,-1,0
238584666,-0.22021484375,0.5457763671875,0.45721435546875,-0.66680908203125,-4264,-6922,-125,0,0,-1
238594648,-0.22015380859375,0.5457763671875,0.45721435546875,-0.66680908203125,-4269,-6919,-121,0,0,0
238604630,-0.22015380859375,0.5457763671875,0.45721435546875,-0.666748046875,-4266,-6916,-137,-1,0,-1
238614611,-0.22015380859375,0.5457763671875,0.45721435546875,-0.666748046875,-4262,-6911,-133,0,-1,0
238624599,-0.22021484375,0.5457763671875,0.45721435546875,-0.666748046875,-4261,-6914,-133,0,0,-1
238634590,-0.22021484375,0.5457763671875,0.45721435546875,-0.666748046875,-4268,-6920,-126,-1,0,-1
238644566,-0.22021484375,0.5457763671875,0.45721435546875,-0.666748046875,-4269,-6924,-127,0,-1,-1
238654538,-0.22021484375,0.5457763671875,0.45721435546875,-0.666748046875,-4269,-6915,-131,0,0,-1
238664526,-0.22015380859375,0.5457763671875,0.45721435546875,-0.666748046875,-4272,-6906,-139,0,-1,0
238674498,-0.22015380859375,0.54583740234375,0.457275390625,-0.666748046875,-4265,-6914,-142,-1,-1,0
238684492,-0.22015380859375,0.54583740234375,0.45721435546875,-0.666748046875,-4280,-6916,-137,0,-1,-1
238694467,-0.2200927734375,0.54583740234375,0.45721435546875,-0.666748046875,-4287,-6920,-135,-1,-1,0
238704452,-0.2200927734375,0.54583740234375,0.457275390625,-0.666748046875,-4273,-6922,-135,0,-1,-1
238714440,-0.22015380859375,0.5457763671875,0.457275390625,-0.666748046875,-4266,-6931,-135,0,-1,0
238724420,-0.22015380859375,0.54583740234375,0.457275390625,-0.666748046875,-4270,-6937,-133,-1,0,0
238734404,-0.2200927734375,0.54583740234375,0.457275390625,-0.666748046875,-4275,-6936,-132,-1,-1,0
238744390,-0.22015380859375,0.54583740234375,0.457275390625,-0.66668701171875,-4273,-6942,-138,0,0,-1
238754367,-0.22015380859375,0.54583740234375,0.457275390625,-0.66668701171875,-4270,-6939,-130,0,0,-1
238764356,-0.22015380859375,0.54583740234375,0.457275390625,-0.66668701171875,-4286,-6941,-130,0,0,0
238774330,-0.22015380859375,0.5458984375,0.457275390625,-0.66668701171875,-4291,-6922,-124,0,0,0
238784314,-0.22015380859375,0.5458984375,0.45721435546875,-0.66668701171875,-4300,-6914,-127,0,0,-1
238794302,-0.22015380859375,0.5458984375,0.45721435546875,-0.66668701171875,-4294,-6919,-135,0,0,0
238804278,-0.22015380859375,0.5458984375,0.45721435546875,-0.66668701171875,-4284,-6921,-115,-1,-1,0
238814271,-0.22015380859375,0.5458984375,0.45721435546875,-0.66668701171875,-4282,-6920,-132,0,0,-1
238824257,-0.22015380859375,0.5458984375,0.45721435546875,-0.66668701171875,-4277,-6927,-120,0,0,0
238834230,-0.22021484375,0.5458984375,0.45721435546875,-0.66668701171875,-4279,-6916,-114,-1,0,-1
238844216,-0.22021484375,0.5458984375,0.45721435546875,-0.66668701171875,-4266,-6913,-122,0,0,0
238854193,-0.22021484375,0.5458984375,0.45721435546875,-0.66668701171875,-4267,-6920,-119,-1,-1,0
238864188,-0.22021484375,0.5458984375,0.45721435546875,-0.66668701171875,-4277,-6918,-123,0,0,-1
238874174,-0.22021484375,0.54595947265625,0.4571533203125,-0.66668701171875,-4283,-6908,-117,0,0,0
238884145,-0.22021484375,0.54595947265625,0.4571533203125,-0.66668701171875,-4285,-6919,-118,-1,0,0
238894129,-0.22021484375,0.54595947265625,0.4571533203125,-0.6666259765625,-4288,-6924,-128,0,0,0
238904119,-0.22021484375,0.54595947265625,0.4571533203125,-0.66668701171875,-4298,-6927,-117,-1,-1,0
238914100,-0.22021484375,0.54595947265625,0.4571533203125,-0.66668701171875,-4290,-6928,-119,0,-1,0
238924082,-0.22021484375,0.54595947265625,0.4571533203125,-0.66668701171875,-4279,-6915,-116,0,0,0
238934060,-0.22021484375,0.54595947265625,0.4571533203125,-0.66668701171875,-4277,-6915,-107,-1,0,0
238944048,-0.22021484375,0.54595947265625,0.4571533203125,-0.66668701171875,-4272,-6922,-97,0,0,-1
238954037,-0.22021484375,0.5458984375,0.4571533203125,-0.66668701171875,-4266,-6948,-113,0,-1,-1
238964018,-0.22021484375,0.5458984375,0.45721435546875,-0.66668701171875,-4268,-6942,-118,0,-1,0
238974001,-0.22021484375,0.5458984375,0.45721435546875,-0.66668701171875,-4268,-6930,-122,0,0,-1
238983981,-0.22021484375,0.5458984375,0.45721435546875,-0.66668701171875,-4278,-6929,-118,-1,-1,0
238993959,-0.22021484375,0.5458984375,0.45721435546875,-0.66668701171875,-4272,-6918,-115,0,-1,0
239003950,-0.22021484375,0.5458984375,0.45721435546875,-0.66668701171875,-4277,-6926,-113,0,0,0
239013936,-0.22021484375,0.5458984375,0.45721435546875,-0.66668701171875,-4276,-6922,-117,0,-1,0
239023914,-0.22021484375,0.5458984375,0.4571533203125,-0.666748046875,-4287,-6916,-120,0,0,-1
239033892,-0.22021484375,0.5458984375,0.4571533203125,-0.66668701171875,-4285,-6917,-121,-1,0,0
239043878,-0.22015380859375,0.5458984375,0.4571533203125,-0.66668701171875,-4282,-6918,-121,0,-1,0
239053858,-0.22015380859375,0.5458984375,0.4571533203125,-0.666748046875,-4292,-6922,-127,0,-1,-1
239063852,-0.22015380859375,0.5458984375,0.4571533203125,-0.666748046875,-4282,-6914,-123,0,0,-1
239073832,-0.22021484375,0.5458984375,0.4571533203125,-0.66668701171875,-4269,-6912,-116,0,0,-1
239083818,-0.22021484375,0.5458984375,0.4571533203125,-0.66668701171875,-4267,-6918,-114,-1,0,0
239093792,-0.22021484375,0.54595947265625,0.4571533203125,-0.66668701171875,-4262,-6914,-122,0,0,0
239103774,-0.22027587890625,0.5458984375,0.4571533203125,-0.66668701171875,-4260,-6913,-105,-1,0,-1
239113758,-0.22027587890625,0.5458984375,0.4571533203125,-0.66668701171875,-4271,-6928,-119,0,0,-1
239123745,-0.22027587890625,0.54595947265625,0.4571533203125,-0.66668701171875,-4279,-6925,-122,0,0,0
239133723,-0.22021484375,0.54595947265625,0.4571533203125,-0.66668701171875,-4273,-6916,-116,-1,-1,0
239143705,-0.22021484375,0.54595947265625,0.4571533203125,-0.66668701171875,-4266,-6925,-126,0,-1,0
239153697,-0.22021484375,0.54595947265625,0.4571533203125,-0.66668701171875,-4273,-6933,-125,0,0,0
239163680,-0.22021484375,0.54595947265625,0.45709228515625,-0.66668701171875,-4279,-6919,-117,0,-1,0
239173664,-0.22021484375,0.54595947265625,0.45709228515625,-0.66668701171875,-4274,-6909,-119,-1,0,0
239183652,-0.22021484375,0.54595947265625,0.4571533203125,-0.6666259765625,-4267,-6914,-132,-1,0,0
239193632,-0.22021484375,0.5460205078125,0.4571533203125,-0.6666259765625,-4272,-6916,-135,-1,0,0
239203619,-0.22021484375,0.54595947265625,0.4571533203125,-0.6666259765625,-4267,-6920,-129,0,-1,-1
239213613,-0.22021484375,0.54595947265625,0.4571533203125,-0.6666259765625,-4265,-6914,-135,0,0,0
239223585,-0.22021484375,0.5460205078125,0.4571533203125,-0.6666259765625,-4265,-6896,-126,-1,-1,0
239233577,-0.22021484375,0.5460205078125,0.4571533203125,-0.6666259765625,-4269,-6904,-127,0,0,0
239243544,-0.22027587890625,0.5460205078125,0.45721435546875,-0.66656494140625,-4259,-6920,-126,-1,0,0
239253524,-0.22027587890625,0.5460205078125,0.45721435546875,-0.66656494140625,-4267,-6926,-121,0,-1,-1
239263507,-0.22027587890625,0.5460205078125,0.45721435546875,-0.66656494140625,-4266,-6925,-127,0,0,-1
239273491,-0.22027587890625,0.5460205078125,0.45721435546875,-0.66656494140625,-4273,-6921,-127,-1,-1,0
239283476,-0.22027587890625,0.5460205078125,0.45721435546875,-0.66656494140625,-4284,-6935,-132,0,-1,0
239293454,-0.22027587890625,0.5460205078125,0.45721435546875,-0.66656494140625,-4276,-6933,-136,0,0,-1
239303439,-0.22027587890625,0.5460205078125,0.45721435546875,-0.66656494140625,-4273,-6938,-140,0,-1,0
239313428,-0.22027587890625,0.5460205078125,0.45721435546875,-0.66656494140625,-4275,-6938,-125,0,0,-1
239323409,-0.2203369140625,0.5460205078125,0.45721435546875,-0.66656494140625,-4268,-6937,-125,0,0,-1
239333398,-0.2203369140625,0.5460205078125,0.45721435546875,-0.66650390625,-4264,-6938,-128,-1,-1,0
239343373,-0.2203369140625,0.5460205078125,0.45721435546875,-0.66650390625,-4267,-6930,-122,0,-1,0
239353363,-0.2203369140625,0.5460205078125,0.45721435546875,-0.66650390625,-4268,-6929,-122,-1,-1,0
239363342,-0.2203369140625,0.5460205078125,0.45721435546875,-0.66650390625,-4269,-6926,-124,0,-1,0
239373319,-0.2203369140625,0.5460205078125,0.45721435546875,-0.66656494140625,-4275,-6921,-118,0,0,0
239383307,-0.2203369140625,0.5460205078125,0.45721435546875,-0.66650390625,-4261,-6913,-118,-1,0,0
239393296,-0.2203369140625,0.5460205078125,0.45721435546875,-0.66650390625,-4263,-6925,-125,0,-1,0
239403274,-0.2203369140625,0.5460205078125,0.45721435546875,-0.66650390625,-4272,-6916,-124,0,-1,0
239413252,-0.2203369140625,0.5460205078125,0.45721435546875,-0.66650390625,-4265,-6922,-123,0,-1,0
239423232,-0.2203369140625,0.5460205078125,0.45721435546875,-0.66650390625,-4261,-6941,-129,-1,-1,0
239433220,-0.2203369140625,0.5460205078125,0.45721435546875,-0.66650390625,-4258,-6933,-135,0,0,0
239443199,-0.2203369140625,0.5460205078125,0.45721435546875,-0.66650390625,-4260,-6924,-124,-1,-1,-1
239453190,-0.22039794921875,0.5460205078125,0.45721435546875,-0.66656494140625,-4268,-6916,-129,0,0,-1
239463180,-0.22039794921875,0.5460205078125,0.4571533203125,-0.66656494140625,-4268,-6913,-124,0,0,0
239473148,-0.22039794921875,0.5460205078125,0.45721435546875,-0.66650390625,-4261,-6926,-132,-1,0,-1
239483138,-0.22039794921875,0.54608154296875,0.45721435546875,-0.66650390625,-4276,-6916,-144,0,-1,0
239493119,-0.22039794921875,0.54608154296875,0.4571533203125,-0.66650390625,-4273,-6901,-128,0,0,0
239503099,-0.22039794921875,0.54608154296875,0.4571533203125,-0.66650390625,-4266,-6906,-120,0,-1,0
239513082,-0.22039794921875,0.54608154296875,0.4571533203125,-0.66650390625,-4258,-6910,-121,0,0,0
239523064,-0.22039794921875,0.54608154296875,0.4571533203125,-0.66650390625,-4267,-6911,-114,-1,0,0
239533049,-0.22039794921875,0.54608154296875,0.45709228515625,-0.66650390625,-4266,-6915,-119,0,0,0
239543029,-0.22039794921875,0.54608154296875,0.4571533203125,-0.66650390625,-4260,-6898,-128,-1,-1,-1
239553014,-0.220458984375,0.54608154296875,0.4571533203125,-0.66650390625,-4267,-6905,-128,0,0,-1
239563000,-0.220458984375,0.54608154296875,0.4571533203125,-0.66650390625,-4257,-6905,-124,-1,0,0
239572977,-0.220458984375,0.54608154296875,0.4571533203125,-0.66644287109375,-4252,-6906,-122,-1,0,0
239582966,-0.220458984375,0.54608154296875,0.4571533203125,-0.66650390625,-4256,-6908,-123,0,-1,0
239592948,-0.220458984375,0.5460205078125,0.45709228515625,-0.66656494140625,-4098,-6596,-87,-1,0,-1
239602925,-0.22039794921875,0.546142578125,0.4571533203125,-0.66644287109375,-4281,-6801,-127,-1,0,-1
239612914,-0.22052001953125,0.54608154296875,0.45733642578125,-0.66632080078125,-4522,-7303,-170,0,-1,-3
239622892,-0.22076416015625,0.5458984375,0.45745849609375,-0.66632080078125,-4293,-7168,-153,0,-1,-2
239632876,-0.22076416015625,0.54583740234375,0.4573974609375,-0.6663818359375,-3968,-6644,-107,0,-1,2
239642859,-0.22039794921875,0.54608154296875,0.4571533203125,-0.66650390625,-4172,-6696,-105,-1,0,3
239652856,-0.22021484375,0.5462646484375,0.45697021484375,-0.66650390625,-4500,-7050,-153,0,0,-1
239662832,-0.2203369140625,0.54620361328125,0.45709228515625,-0.66650390625,-4366,-6979,-151,0,-1,-3
239672806,-0.2205810546875,0.54595947265625,0.457275390625,-0.66644287109375,-4101,-6711,-134,0,-1,-2
239682795,-0.2205810546875,0.54595947265625,0.45733642578125,-0.66644287109375,-4194,-6842,-125,-1,-1,0
239692784,-0.220458984375,0.5460205078125,0.45721435546875,-0.66644287109375,-4385,-7079,-136,0,-1,0
239702757,-0.220458984375,0.5460205078125,0.4571533203125,-0.66650390625,-4286,-6974,-129,0,-1,0
239712744,-0.22039794921875,0.5460205078125,0.4571533203125,-0.66650390625,-4155,-6765,-127,0,0,0
239722728,-0.22039794921875,0.54608154296875,0.4571533203125,-0.66650390625,-4263,-6840,-122,-1,0,-1
239732706,-0.22039794921875,0.54608154296875,0.4571533203125,-0.66650390625,-4375,-7040,-129,-1,0,-1
239742694,-0.22052001953125,0.5460205078125,0.45721435546875,-0.66644287109375,-4288,-6971,-129,0,-1,-1
239752681,-0.22052001953125,0.54608154296875,0.45721435546875,-0.66644287109375,-4156,-6746,-126,0,0,0
239762665,-0.220458984375,0.546142578125,0.4571533203125,-0.66644287109375,-4277,-6487,-110,-1,0,-2
239772639,-0.22076416015625,0.54595947265625,0.45751953125,-0.66619873046875,-4622,-7025,-164,-1,0,-10
239782630,-0.2218017578125,0.5452880859375,0.45831298828125,-0.6658935546875,-4487,-7462,-166,0,-1,-10
239792616,-0.222412109375,0.54486083984375,0.458740234375,-0.66571044921875,-3966,-7058,-143,0,-1,-1
239802599,-0.22216796875,0.5450439453125,0.45849609375,-0.66583251953125,-3741,-6783,-131,0,-1,7
239812584,-0.2213134765625,0.545654296875,0.457763671875,-0.6661376953125,-4173,-7124,-126,-1,0,12
239822564,-0.22027587890625,0.54638671875,0.45697021484375,-0.66644287109375,-4560,-7198,-147,0,-1,7
239832540,-0.21990966796875,0.54656982421875,0.45660400390625,-0.6666259765625,-4211,-6486,-80,0,-1,0
239842523,-0.219970703125,0.5465087890625,0.4566650390625,-0.6666259765625,-4211,-6448,-127,-1,0,-4
239852501,-0.2203369140625,0.54638671875,0.45703125,-0.6663818359375,-4672,-7297,-163,0,0,-6
239862488,-0.220947265625,0.54595947265625,0.45751953125,-0.66619873046875,-4487,-7392,-168,0,-1,-6
239872468,-0.2213134765625,0.54571533203125,0.45770263671875,-0.6661376953125,-3939,-6708,-131,0,-1,-1
239882460,-0.22113037109375,0.5457763671875,0.45751953125,-0.666259765625,-3892,-6596,-89,-1,0,4
239892433,-0.22064208984375,0.546142578125,0.45721435546875,-0.66632080078125,-4441,-7163,-143,-1,0,4
239902424,-0.2203369140625,0.54632568359375,0.45697021484375,-0.66644287109375,-4512,-7165,-142,0,-1,0
239912410,-0.22039794921875,0.5462646484375,0.45697021484375,-0.66644287109375,-4143,-6657,-113,0,-1,-1
239922388,-0.22052001953125,0.54620361328125,0.45709228515625,-0.66644287109375,-4127,-6632,-116,-1,0,-2
239932366,-0.2205810546875,0.54620361328125,0.4571533203125,-0.66632080078125,-4423,-7088,-143,-1,0,-2
239942356,-0.220703125,0.546142578125,0.45721435546875,-0.66632080078125,-4390,-7159,-141,0,-1,-1
239952341,-0.220703125,0.54608154296875,0.45721435546875,-0.66632080078125,-4116,-6771,-122,0,-1,0
239962323,-0.2205810546875,0.546142578125,0.45709228515625,-0.6663818359375,-4137,-6707,-111,-1,0,1
239972304,-0.220458984375,0.5462646484375,0.45703125,-0.6663818359375,-4409,-7024,-134,-1,0,-1
239982288,-0.22052001953125,0.54620361328125,0.45709228515625,-0.6663818359375,-4392,-7078,-152,0,-1,-2
239992273,-0.22064208984375,0.546142578125,0.4571533203125,-0.6663818359375,-4141,-6767,-140,0,-1,0
240002253,-0.22064208984375,0.546142578125,0.4571533203125,-0.6663818359375,-3953,-6403,-73,-1,0,0
240012237,-0.22052001953125,0.54632568359375,0.4571533203125,-0.666259765625,-4489,-7089,-181,-1,0,-1
240022221,-0.22064208984375,0.5462646484375,0.457275390625,-0.66619873046875,-4654,-7519,-176,0,-1,-3
240032197,-0.22100830078125,0.5458984375,0.45751953125,-0.6661376953125,-3993,-6542,-75,0,-1,-2
240042186,-0.2210693359375,0.54583740234375,0.45751953125,-0.66619873046875,-4029,-6063,-174,-3,1,-7
240052166,-0.221923828125,0.54547119140625,0.45849609375,-0.66552734375,-4708,-8025,-178,-1,0,-10
240062164,-0.2225341796875,0.54510498046875,0.4588623046875,-0.6654052734375,-4484,-8302,-214,1,-2,3
240072129,-0.22186279296875,0.54541015625,0.4581298828125,-0.6658935546875,-3589,-6619,-155,1,-1,13
240082117,-0.22064208984375,0.54620361328125,0.45709228515625,-0.66632080078125,-3707,-5997,-33,-1,0,11
240092098,-0.2198486328125,0.546875,0.45654296875,-0.66644287109375,-4903,-7186,-153,-1,1,0
240102086,-0.22021484375,0.546630859375,0.45684814453125,-0.66632080078125,-4947,-7464,-151,1,-1,-10
240112060,-0.22113037109375,0.5458984375,0.45751953125,-0.6661376953125,-4084,-6492,-115,0,-1,-9
240122051,-0.2218017578125,0.54547119140625,0.45806884765625,-0.6658935546875,-3750,-6356,-108,-1,0,-5
240132032,-0.22198486328125,0.54534912109375,0.45831298828125,-0.665771484375,-4223,-7359,-162,-1,0,2
240142016,-0.2215576171875,0.545654296875,0.45794677734375,-0.6658935546875,-4431,-7617,-173,0,-1,7
240151994,-0.2208251953125,0.546142578125,0.457275390625,-0.66619873046875,-4027,-6724,-133,0,-1,8
240161984,-0.22021484375,0.54656982421875,0.456787109375,-0.66644287109375,-4036,-6346,-112,-1,0,5
240171966,-0.219970703125,0.5467529296875,0.45660400390625,-0.66644287109375,-4597,-6914,-138,-1,0,-3
240181949,-0.22039794921875,0.5465087890625,0.45697021484375,-0.666259765625,-4690,-7261,-153,0,-1,-8
240191926,-0.2210693359375,0.5460205078125,0.4573974609375,-0.6661376953125,-4180,-6781,-125,0,-1,-6
240201917,-0.22137451171875,0.54583740234375,0.4576416015625,-0.66607666015625,-3929,-6582,-118,-1,0,-1
240211896,-0.2213134765625,0.5458984375,0.4576416015625,-0.666015625,-4258,-7117,-141,-1,0,2
240221884,-0.22100830078125,0.54608154296875,0.45745849609375,-0.66607666015625,-4462,-7338,-157,0,-1,3
240231859,-0.22076416015625,0.54620361328125,0.45721435546875,-0.66619873046875,-4173,-6815,-131,0,-1,2
240241856,-0.2205810546875,0.54632568359375,0.45703125,-0.66632080078125,-4106,-6537,-102,-1,0,1
240251834,-0.22052001953125,0.54638671875,0.45703125,-0.666259765625,-4432,-6956,-123,-1,0,-2
240261819,-0.22076416015625,0.5462646484375,0.45721435546875,-0.6661376953125,-4492,-7200,-148,0,0,-4
240271795,-0.2210693359375,0.54608154296875,0.4573974609375,-0.6661376953125,-4152,-6854,-122,0,-1,-2
240281784,-0.2210693359375,0.54608154296875,0.4573974609375,-0.6661376953125,-4045,-6682,-99,0,0,1
240291762,-0.22088623046875,0.54620361328125,0.45721435546875,-0.66619873046875,-4293,-6738,-86,-1,0,1
240301739,-0.22076416015625,0.5462646484375,0.45721435546875,-0.66619873046875,-4282,-6259,-79,-2,0,-6
240311727,-0.2215576171875,0.5458984375,0.4580078125,-0.66571044921875,-4591,-7457,-177,0,-1,-11
240321707,-0.22235107421875,0.54522705078125,0.45855712890625,-0.66552734375,-4424,-7831,-196,1,-1,-2
240331690,-0.22235107421875,0.54522705078125,0.4583740234375,-0.66571044921875,-3835,-6875,-133,1,-1,5
240341669,-0.22161865234375,0.54571533203125,0.45782470703125,-0.66595458984375,-3758,-6396,-83,-1,-1,9
240351664,-0.2208251953125,0.5462646484375,0.4571533203125,-0.66619873046875,-4507,-7032,-144,-1,0,5
240361658,-0.2205810546875,0.54644775390625,0.45697021484375,-0.666259765625,-4683,-7258,-155,0,-1,-2
240371630,-0.22100830078125,0.546142578125,0.45721435546875,-0.66619873046875,-4157,-6674,-128,0,-1,-4
240381615,-0.22125244140625,0.54595947265625,0.45745849609375,-0.66607666015625,-3974,-6543,-124,-1,0,-2
240391605,-0.2213134765625,0.5460205078125,0.45745849609375,-0.666015625,-4321,-7104,-155,-1,0,1
240401598,-0.22113037109375,0.546142578125,0.4573974609375,-0.66607666015625,-4437,-7269,-150,0,-1,2
240411565,-0.22100830078125,0.54620361328125,0.45721435546875,-0.6661376953125,-4141,-6785,-123,0,-1,2
240421545,-0.2208251953125,0.54632568359375,0.45709228515625,-0.66619873046875,-4123,-6613,-132,-1,0,1
240431527,-0.22076416015625,0.54638671875,0.45703125,-0.66619873046875,-4418,-6975,-137,-1,0,-2
240441508,-0.220947265625,0.54632568359375,0.4571533203125,-0.6661376953125,-4452,-7151,-145,0,0,-3
240451492,-0.2210693359375,0.54620361328125,0.457275390625,-0.66607666015625,-4173,-6835,-123,0,-1,-1
240461484,-0.2210693359375,0.54620361328125,0.45721435546875,-0.66607666015625,-4092,-6702,-124,0,0,1
240471457,-0.220947265625,0.54632568359375,0.4571533203125,-0.6661376953125,-4351,-6990,-130,-1,0,0
240481447,-0.220947265625,0.54632568359375,0.4571533203125,-0.6661376953125,-4417,-7102,-139,0,-1,-1
240491428,-0.22100830078125,0.5462646484375,0.4571533203125,-0.6661376953125,-4199,-6820,-117,0,-1,0
240501416,-0.220947265625,0.54632568359375,0.45709228515625,-0.6661376953125,-4157,-6720,-111,-1,0,1
240511391,-0.22088623046875,0.54638671875,0.45709228515625,-0.6661376953125,-4364,-6982,-135,-1,0,-1
240521379,-0.220947265625,0.54632568359375,0.4571533203125,-0.66607666015625,-4369,-7086,-148,0,-1,-2
240531360,-0.2210693359375,0.54620361328125,0.45721435546875,-0.66607666015625,-4176,-6849,-141,0,-1,0
240541344,-0.22100830078125,0.5462646484375,0.45721435546875,-0.6661376953125,-4170,-6771,-118,-1,0,0
240551320,-0.22088623046875,0.54632568359375,0.45709228515625,-0.6661376953125,-4367,-6976,-131,-1,0,0
240561313,-0.22088623046875,0.54632568359375,0.4571533203125,-0.6661376953125,-4358,-6990,-144,0,-1,-1
240571293,-0.22100830078125,0.54632568359375,0.45721435546875,-0.66607666015625,-3891,-5807,3,-1,0,-3
240581263,-0.22119140625,0.5462646484375,0.45758056640625,-0.665771484375,-4506,-6629,-260,-3,2,-13
240591255,-0.22247314453125,0.54559326171875,0.4586181640625,-0.66522216796875,-5017,-8420,-239,1,-1,-11
240601241,-0.22320556640625,0.54498291015625,0.4591064453125,-0.66510009765625,-4292,-7669,-176,1,-2,0
240611215,-0.22296142578125,0.5450439453125,0.458740234375,-0.66534423828125,-3413,-6048,-157,0,-1,5
240621208,-0.2222900390625,0.5455322265625,0.45819091796875,-0.66558837890625,-3686,-6334,-61,-1,0,8
240631188,-0.221435546875,0.54620361328125,0.45758056640625,-0.665771484375,-4837,-7654,-180,-1,0,7
240641181,-0.2210693359375,0.54644775390625,0.45721435546875,-0.66595458984375,-4635,-7292,-135,1,-2,0
240651157,-0.22125244140625,0.54620361328125,0.457275390625,-0.666015625,-3896,-6232,-104,0,-1,-3
240661138,-0.221435546875,0.54608154296875,0.45745849609375,-0.66595458984375,-3934,-6427,-80,-1,0,-2
240671125,-0.22149658203125,0.546142578125,0.45751953125,-0.66583251953125,-4571,-7455,-144,-1,0,0
240681106,-0.22137451171875,0.54620361328125,0.4573974609375,-0.66595458984375,-4479,-7366,-145,0,-1,2
240691083,-0.22113037109375,0.5462646484375,0.4571533203125,-0.66607666015625,-3921,-6448,-105,0,-1,3
240701071,-0.22088623046875,0.5465087890625,0.45697021484375,-0.6661376953125,-4070,-6465,-105,-1,0,1
240711053,-0.22076416015625,0.546630859375,0.4569091796875,-0.66607666015625,-4630,-7189,-138,-1,0,-3
240721037,-0.2210693359375,0.54644775390625,0.45709228515625,-0.666015625,-4508,-7230,-142,0,-1,-4
240731017,-0.22125244140625,0.5462646484375,0.45721435546875,-0.666015625,-3991,-6575,-105,0,-1,-1
240741006,-0.22125244140625,0.5462646484375,0.45721435546875,-0.666015625,-4017,-6602,-102,-1,0,1
240750982,-0.2210693359375,0.54644775390625,0.4571533203125,-0.666015625,-4485,-7227,-138,-1,0,0
240760972,-0.22100830078125,0.54644775390625,0.45709228515625,-0.666015625,-4437,-7197,-126,0,-1,0
240770950,-0.22100830078125,0.54632568359375,0.45709228515625,-0.6661376953125,-4063,-6633,-84,0,-1,1
240780936,-0.22088623046875,0.54644775390625,0.45697021484375,-0.66619873046875,-4143,-6643,-79,-1,0,1
240790917,-0.22088623046875,0.5465087890625,0.45697021484375,-0.66607666015625,-4492,-7149,-120,-1,0,-2
240800903,-0.2210693359375,0.54638671875,0.4571533203125,-0.66607666015625,-4403,-7171,-130,0,-1,-2
240810886,-0.22119140625,0.54632568359375,0.4571533203125,-0.66607666015625,-4073,-6708,-99,0,-1,0
240820873,-0.2210693359375,0.54638671875,0.45703125,-0.6661376953125,-4133,-6707,-89,-1,0,1
240830862,-0.220947265625,0.5465087890625,0.45697021484375,-0.6661376953125,-4448,-7106,-124,0,0,-1
240840845,-0.22100830078125,0.54644775390625,0.45703125,-0.66607666015625,-4380,-7082,-127,0,-1,-2
240850826,-0.22113037109375,0.54638671875,0.45703125,-0.66607666015625,-4108,-6733,-104,0,-1,0
240860802,-0.2210693359375,0.54638671875,0.45697021484375,-0.6661376953125,-4174,-6778,-96,-1,0,0
240870789,-0.22100830078125,0.54644775390625,0.45697021484375,-0.6661376953125,-4422,-7007,-113,0,0,-1
240880774,-0.2210693359375,0.54638671875,0.45697021484375,-0.6661376953125,-4297,-6625,-81,-1,0,-4
240890739,-0.221435546875,0.54620361328125,0.45733642578125,-0.66595458984375,-4337,-6787,-136,-1,0,-7
240900734,-0.2220458984375,0.5457763671875,0.4578857421875,-0.66571044921875,-4423,-7400,-136,0,-1,-5
240910720,-0.2222900390625,0.54559326171875,0.4580078125,-0.6656494140625,-4186,-7265,-129,0,-1,1
240920691,-0.22198486328125,0.5457763671875,0.45770263671875,-0.66583251953125,-3882,-6731,-100,0,-1,6
240930680,-0.22125244140625,0.54620361328125,0.4571533203125,-0.6661376953125,-4097,-6732,-91,-1,0,8
240940668,-0.2205810546875,0.54669189453125,0.4566650390625,-0.666259765625,-4546,-7060,-137,-1,0,3
240950659,-0.22052001953125,0.54669189453125,0.45660400390625,-0.66632080078125,-4450,-6931,-133,0,-1,-3
240960636,-0.22088623046875,0.5465087890625,0.45684814453125,-0.66619873046875,-4166,-6646,-115,0,0,-4
240970615,-0.22113037109375,0.54638671875,0.45703125,-0.6661376953125,-4204,-6829,-126,-1,0,-2
240980612,-0.22119140625,0.54632568359375,0.45709228515625,-0.666015625,-4357,-7128,-145,-1,0,0
240990598,-0.22113037109375,0.54632568359375,0.45709228515625,-0.66607666015625,-4276,-7044,-136,0,-1,1
241000566,-0.22100830078125,0.54644775390625,0.45697021484375,-0.6661376953125,-4146,-6774,-117,0,-1,2
241010543,-0.2208251953125,0.5465087890625,0.45684814453125,-0.66619873046875,-4251,-6812,-110,-1,-1,0
241020535,-0.2208251953125,0.54656982421875,0.45684814453125,-0.66619873046875,-4401,-7023,-121,0,0,-1
241030511,-0.220947265625,0.5465087890625,0.4569091796875,-0.6661376953125,-4315,-6989,-132,0,0,-1
241040501,-0.22100830078125,0.54644775390625,0.45697021484375,-0.6661376953125,-4172,-6811,-127,-1,-1,0
241050482,-0.22100830078125,0.5465087890625,0.4569091796875,-0.6661376953125,-4243,-6876,-120,0,0,0
241060467,-0.220947265625,0.5465087890625,0.4569091796875,-0.6661376953125,-4355,-7054,-137,-1,-1,-1
241070451,-0.220947265625,0.5465087890625,0.4569091796875,-0.6661376953125,-4287,-6956,-138,0,-1,0
241080426,-0.22088623046875,0.5465087890625,0.4569091796875,-0.6661376953125,-4203,-6808,-122,-1,-1,0
241090419,-0.22088623046875,0.54656982421875,0.45684814453125,-0.6661376953125,-4287,-6903,-124,0,0,-1
241100400,-0.22088623046875,0.54656982421875,0.4569091796875,-0.6661376953125,-4350,-7028,-136,-1,0,-1
241110385,-0.220947265625,0.5465087890625,0.4569091796875,-0.66607666015625,-4257,-6948,-139,0,0,0
241120361,-0.22088623046875,0.5465087890625,0.4569091796875,-0.6661376953125,-4194,-6827,-123,-1,-1,0
241130347,-0.22088623046875,0.54656982421875,0.45684814453125,-0.6661376953125,-4284,-6920,-118,0,0,0
241140329,-0.22088623046875,0.54656982421875,0.45684814453125,-0.6661376953125,-4322,-7004,-115,-1,-1,-1
241150313,-0.220947265625,0.5465087890625,0.4569091796875,-0.6661376953125,-4229,-6916,-114,0,0,-1
241160295,-0.220947265625,0.5465087890625,0.4569091796875,-0.6661376953125,-4203,-6852,-115,-1,0,0
241170278,-0.220947265625,0.54656982421875,0.45684814453125,-0.6661376953125,-4285,-6947,-124,0,0,0
241180261,-0.220947265625,0.54656982421875,0.45684814453125,-0.6661376953125,-4312,-6982,-123,-1,0,-1
241190252,-0.220947265625,0.54656982421875,0.4569091796875,-0.66607666015625,-4241,-6896,-129,0,-1,0
241200223,-0.22088623046875,0.54656982421875,0.45684814453125,-0.6661376953125,-4242,-6864,-121,-1,-1,0
241210217,-0.2208251953125,0.546630859375,0.456787109375,-0.6661376953125,-4295,-6926,-129,0,-1,-1
241220191,-0.22088623046875,0.54656982421875,0.45684814453125,-0.6661376953125,-4293,-6955,-132,0,-1,-1
241230184,-0.22088623046875,0.54656982421875,0.45684814453125,-0.6661376953125,-4244,-6897,-125,0,-1,0
241240165,-0.22088623046875,0.54656982421875,0.45684814453125,-0.6661376953125,-4253,-6897,-133,0,0,0
241250143,-0.22088623046875,0.54656982421875,0.45684814453125,-0.6661376953125,-4286,-6941,-127,-1,0,-1
241260125,-0.220947265625,0.54656982421875,0.45684814453125,-0.6661376953125,-4272,-6952,-135,0,-1,-1
241270114,-0.220947265625,0.54656982421875,0.45684814453125,-0.6661376953125,-4235,-6914,-136,0,0,0
241280089,-0.220947265625,0.54656982421875,0.45684814453125,-0.6661376953125,-4249,-6919,-132,-1,0,0
241290078,-0.220947265625,0.54656982421875,0.45684814453125,-0.66607666015625,-4282,-6946,-133,0,0,-1
241300061,-0.22100830078125,0.54656982421875,0.45684814453125,-0.66607666015625,-4282,-6951,-126,0,0,-1
241310042,-0.220947265625,0.54656982421875,0.45684814453125,-0.66607666015625,-4263,-6916,-141,-1,-1,0
241320027,-0.220947265625,0.546630859375,0.45684814453125,-0.66607666015625,-4267,-6922,-139,0,0,0
241330014,-0.220947265625,0.546630859375,0.45684814453125,-0.66607666015625,-4298,-6972,-133,0,-1,-1
241339998,-0.220947265625,0.54656982421875,0.45684814453125,-0.66607666015625,-4288,-6960,-126,-1,-1,0
241349979,-0.220947265625,0.546630859375,0.45684814453125,-0.66607666015625,-4271,-6939,-129,0,-1,0
241359966,-0.22088623046875,0.546630859375,0.45684814453125,-0.6661376953125,-4288,-6936,-127,0,-1,0
241369940,-0.22088623046875,0.546630859375,0.45684814453125,-0.6661376953125,-4299,-6955,-123,0,-1,-1
241379930,-0.22088623046875,0.54656982421875,0.45684814453125,-0.6661376953125,-4288,-6958,-127,0,-1,0
241389903,-0.22088623046875,0.546630859375,0.45684814453125,-0.6661376953125,-4268,-6919,-121,-1,-1,0
241399897,-0.22088623046875,0.546630859375,0.45684814453125,-0.6661376953125,-4287,-6923,-124,0,0,-1
241409874,-0.22088623046875,0.546630859375,0.45684814453125,-0.6661376953125,-4289,-6935,-118,0,0,-1
241419859,-0.22088623046875,0.546630859375,0.45684814453125,-0.6661376953125,-4266,-6916,-113,0,0,0
241429847,-0.22088623046875,0.546630859375,0.456787109375,-0.6661376953125,-4264,-6899,-106,0,0,0
241439826,-0.22088623046875,0.546630859375,0.456787109375,-0.6661376953125,-4281,-6912,-109,-1,0,0
241449804,-0.22088623046875,0.546630859375,0.456787109375,-0.6661376953125,-4280,-6917,-112,0,-1,0
241459792,-0.22088623046875,0.546630859375,0.45684814453125,-0.6661376953125,-4272,-6912,-129,-1,-1,0
241469774,-0.2208251953125,0.546630859375,0.456787109375,-0.6661376953125,-4276,-6907,-123,0,-1,0
241479757,-0.2208251953125,0.546630859375,0.456787109375,-0.6661376953125,-4292,-6922,-123,0,-1,0
241489738,-0.2208251953125,0.546630859375,0.456787109375,-0.66619873046875,-4293,-6925,-119,0,-1,0
241499720,-0.2208251953125,0.546630859375,0.456787109375,-0.6661376953125,-4263,-6916,-119,0,0,0
241509703,-0.2208251953125,0.546630859375,0.456787109375,-0.66619873046875,-4268,-6903,-119,0,-1,0
241519692,-0.2208251953125,0.546630859375,0.45672607421875,-0.66619873046875,-4276,-6921,-122,-1,0,-1
241529664,-0.2208251953125,0.546630859375,0.45672607421875,-0.66619873046875,-4274,-6924,-111,0,0,-1
241539660,-0.22088623046875,0.546630859375,0.45672607421875,-0.66619873046875,-4268,-6910,-114,0,0,-1
241549640,-0.22088623046875,0.546630859375,0.45672607421875,-0.66619873046875,-4271,-6924,-113,0,0,0
241559630,-0.22088623046875,0.546630859375,0.45672607421875,-0.66619873046875,-4262,-6928,-104,0,0,0
241569619,-0.22088623046875,0.546630859375,0.45672607421875,-0.66619873046875,-4265,-6918,-109,0,0,0
241579604,-0.220947265625,0.546630859375,0.45672607421875,-0.66619873046875,-4246,-6909,-103,0,0,0
241589578,-0.220947265625,0.546630859375,0.45672607421875,-0.6661376953125,-4243,-6908,-112,-1,0,-1
241599554,-0.220947265625,0.546630859375,0.45672607421875,-0.66619873046875,-4253,-6924,-108,0,-1,0
241609542,-0.220947265625,0.546630859375,0.45672607421875,-0.66619873046875,-4253,-6915,-121,0,-1,0
241619519,-0.220947265625,0.546630859375,0.45672607421875,-0.66619873046875,-4268,-6914,-120,0,-1,0
241629499,-0.22088623046875,0.546630859375,0.4566650390625,-0.66619873046875,-4267,-6895,-125,-1,-1,-1
241639491,-0.220947265625,0.546630859375,0.4566650390625,-0.66619873046875,-4278,-6902,-132,0,0,0
241649475,-0.220947265625,0.546630859375,0.45672607421875,-0.66619873046875,-4262,-6896,-119,-1,-1,-1
241659446,-0.220947265625,0.546630859375,0.45672607421875,-0.66619873046875,-4266,-6915,-134,0,-1,-1
241669436,-0.220947265625,0.546630859375,0.45672607421875,-0.6661376953125,-4264,-6912,-133,0,0,-1
241679430,-0.220947265625,0.546630859375,0.45672607421875,-0.6661376953125,-4269,-6919,-126,0,0,0
241689405,-0.220947265625,0.546630859375,0.45672607421875,-0.6661376953125,-4266,-6911,-130,-1,0,-1
241699381,-0.220947265625,0.546630859375,0.45672607421875,-0.6661376953125,-4271,-6905,-123,0,0,-1
241709370,-0.22100830078125,0.546630859375,0.45672607421875,-0.6661376953125,-4265,-6914,-130,0,0,0
241719347,-0.22100830078125,0.54669189453125,0.45672607421875,-0.6661376953125,-4268,-6913,-133,0,0,0
241729329,-0.22100830078125,0.54669189453125,0.45672607421875,-0.6661376953125,-4263,-6911,-128,-1,0,0
