subject,Still with noise
arm,neither
label,0
hz,100.16950906923604
time,5.390862

timestamp_us,q0,q1,q2,q3,ax,ay,az,gx,gy,gz
180403242,0.04876708984375,0.70941162109375,0.02337646484375,-0.70269775390625,-8244,287,-47,0,-1,0
180413225,0.04876708984375,0.70947265625,0.02337646484375,-0.70269775390625,-8245,299,-60,0,0,0
180423199,0.04876708984375,0.70941162109375,0.02337646484375,-0.70269775390625,-8234,303,-58,-1,-1,0
180433192,0.04876708984375,0.70941162109375,0.02337646484375,-0.70269775390625,-8225,307,-55,0,-1,-1
180443187,0.04876708984375,0.70941162109375,0.0233154296875,-0.70269775390625,-8232,301,-61,0,0,-1
180453166,0.04876708984375,0.70941162109375,0.0233154296875,-0.70269775390625,-8230,308,-58,0,0,0
180463134,0.04876708984375,0.70941162109375,0.02337646484375,-0.70269775390625,-8237,300,-54,-1,0,-1
180473119,0.04876708984375,0.70947265625,0.02337646484375,-0.70269775390625,-8230,297,-71,0,-1,-1
180483110,0.04876708984375,0.70947265625,0.02337646484375,-0.70263671875,-8227,287,-85,0,0,0
180493095,0.04876708984375,0.70953369140625,0.02337646484375,-0.70257568359375,-8238,302,-88,0,0,0
180503075,0.04876708984375,0.70953369140625,0.02337646484375,-0.70263671875,-8241,307,-85,0,-1,-1
180513050,0.04876708984375,0.70953369140625,0.0233154296875,-0.70263671875,-8245,303,-73,0,0,-1
180523035,0.0487060546875,0.70953369140625,0.02337646484375,-0.70257568359375,-8247,308,-80,0,0,-1
180533021,0.0487060546875,0.70953369140625,0.02337646484375,-0.70257568359375,-8240,295,-80,0,-1,-1
180543007,0.0487060546875,0.70953369140625,0.02337646484375,-0.70257568359375,-8242,293,-87,0,-1,-1
180552983,0.0487060546875,0.70953369140625,0.02337646484375,-0.70257568359375,-8236,300,-86,-1,-1,0
180562971,0.04876708984375,0.70953369140625,0.02337646484375,-0.70257568359375,-8245,311,-87,0,0,0
180572948,0.04876708984375,0.70953369140625,0.02337646484375,-0.70257568359375,-8225,315,-78,-1,-1,0
180582931,0.04876708984375,0.70953369140625,0.02337646484375,-0.70257568359375,-8229,301,-75,0,-1,-1
180592922,0.04876708984375,0.70953369140625,0.02337646484375,-0.70257568359375,-8228,308,-76,0,-1,0
180602897,0.048828125,0.70953369140625,0.02337646484375,-0.70263671875,-8228,316,-75,-1,-1,0
180612880,0.04888916015625,0.70947265625,0.0233154296875,-0.70263671875,-8231,316,-79,0,-1,0
180622863,0.048828125,0.70947265625,0.0233154296875,-0.70263671875,-8240,294,-69,0,-1,-1
180632858,0.048828125,0.70947265625,0.0233154296875,-0.70263671875,-8235,308,-66,0,-1,-1
180642848,0.048828125,0.70947265625,0.0233154296875,-0.70263671875,-8235,304,-66,0,0,0
180652829,0.048828125,0.70947265625,0.0233154296875,-0.70263671875,-8238,302,-61,0,0,0
180662802,0.048828125,0.70947265625,0.0233154296875,-0.70263671875,-8245,308,-70,0,-1,0
180672783,0.04888916015625,0.70947265625,0.0233154296875,-0.70263671875,-8240,310,-70,0,-1,-1
180682775,0.048828125,0.70947265625,0.0233154296875,-0.70263671875,-8232,311,-72,0,0,0
180692756,0.04888916015625,0.70953369140625,0.0233154296875,-0.70263671875,-8242,313,-79,0,0,0
180702734,0.04888916015625,0.70947265625,0.0233154296875,-0.70263671875,-8222,317,-70,-1,-1,0
180712723,0.04888916015625,0.70947265625,0.02325439453125,-0.70263671875,-8221,320,-75,0,0,0
180722700,0.04888916015625,0.70947265625,0.0233154296875,-0.70263671875,-8228,311,-65,-1,0,0
180732680,0.04888916015625,0.70947265625,0.0233154296875,-0.70263671875,-8233,307,-62,0,0,-1
180742663,0.04888916015625,0.70947265625,0.0233154296875,-0.70263671875,-8237,305,-68,-1,-1,0
180752652,0.04888916015625,0.70947265625,0.0233154296875,-0.70263671875,-8237,303,-69,-1,-1,-1
180762633,0.04888916015625,0.70947265625,0.0233154296875,-0.70263671875,-8231,305,-76,0,-1,0
180772620,0.04888916015625,0.70947265625,0.0233154296875,-0.70263671875,-8231,300,-66,0,0,0
180782614,0.04888916015625,0.70947265625,0.0233154296875,-0.70263671875,-8224,301,-58,0,-1,-1
180792590,0.04888916015625,0.70947265625,0.02325439453125,-0.70263671875,-8224,317,-49,0,0,0
180802563,0.0489501953125,0.70953369140625,0.02325439453125,-0.70263671875,-8221,314,-62,0,0,0
180812550,0.0489501953125,0.70947265625,0.02325439453125,-0.70263671875,-8221,304,-57,0,-1,-1
180822529,0.0489501953125,0.70947265625,0.02325439453125,-0.70263671875,-8232,303,-54,0,-1,0
180832515,0.0489501953125,0.70947265625,0.02325439453125,-0.70263671875,-8229,284,-41,0,0,0
180842496,0.0489501953125,0.70947265625,0.02325439453125,-0.70263671875,-8240,288,-44,0,-1,0
180852477,0.0489501953125,0.70947265625,0.02325439453125,-0.70269775390625,-8233,298,-40,0,0,-1
180862462,0.04901123046875,0.70941162109375,0.02325439453125,-0.70269775390625,-8235,295,-27,-1,-1,0
180872442,0.04901123046875,0.70941162109375,0.02325439453125,-0.70269775390625,-8240,305,-43,0,-1,-1
180882430,0.04901123046875,0.70941162109375,0.023193359375,-0.70269775390625,-8239,307,-50,0,-1,-1
180892408,0.04901123046875,0.70941162109375,0.02325439453125,-0.70269775390625,-8233,306,-64,-1,-1,-1
180902398,0.04901123046875,0.70941162109375,0.02325439453125,-0.70269775390625,-8226,302,-64,0,0,-1
180912374,0.0489501953125,0.70941162109375,0.02325439453125,-0.70269775390625,-8227,309,-61,0,0,-1
180922357,0.0489501953125,0.70941162109375,0.02325439453125,-0.70269775390625,-8228,310,-51,0,0,-1
180932349,0.0489501953125,0.70941162109375,0.02325439453125,-0.70269775390625,-8236,302,-55,0,-1,-1
180942322,0.0489501953125,0.70941162109375,0.02325439453125,-0.70269775390625,-8230,303,-62,0,-1,-1
180952315,0.0489501953125,0.70941162109375,0.02325439453125,-0.70269775390625,-8236,308,-50,0,0,0
180962289,0.0489501953125,0.70941162109375,0.0233154296875,-0.70269775390625,-8239,300,-62,-1,0,-1
180972271,0.0489501953125,0.70941162109375,0.0233154296875,-0.70269775390625,-8236,309,-63,0,0,-1
180982262,0.0489501953125,0.70941162109375,0.0233154296875,-0.70269775390625,-8230,304,-59,0,-1,0
180992239,0.0489501953125,0.70941162109375,0.0233154296875,-0.70269775390625,-8221,306,-60,0,-1,0
181002228,0.0489501953125,0.70941162109375,0.0233154296875,-0.70269775390625,-8224,305,-69,0,0,-1
181012213,0.04888916015625,0.70941162109375,0.02337646484375,-0.70269775390625,-8230,297,-72,0,0,0
181022194,0.04888916015625,0.70941162109375,0.02337646484375,-0.70269775390625,-8242,298,-72,-1,-1,-1
181032185,0.0489501953125,0.70947265625,0.02337646484375,-0.70269775390625,-8239,299,-72,0,0,0
181042162,0.0489501953125,0.70941162109375,0.02337646484375,-0.70269775390625,-8236,297,-72,0,0,0
181052140,0.0489501953125,0.70947265625,0.0233154296875,-0.70263671875,-8229,308,-71,0,-1,0
181062115,0.04901123046875,0.70947265625,0.0233154296875,-0.70263671875,-8220,321,-84,-1,-1,0
181072104,0.04901123046875,0.70947265625,0.0233154296875,-0.70263671875,-8223,311,-72,0,-1,-1
181082086,0.04901123046875,0.70941162109375,0.0233154296875,-0.70269775390625,-8224,311,-77,0,-1,-1
181092069,0.04901123046875,0.70947265625,0.0233154296875,-0.70263671875,-8229,306,-91,0,0,-1
181102060,0.04901123046875,0.70947265625,0.02337646484375,-0.70263671875,-8239,307,-83,0,-1,-1
181112039,0.04901123046875,0.70947265625,0.0233154296875,-0.70263671875,-8251,304,-86,0,-1,0
181122024,0.04901123046875,0.70947265625,0.0233154296875,-0.70263671875,-8245,311,-83,0,-1,-1
181132007,0.04901123046875,0.70947265625,0.0233154296875,-0.70263671875,-8233,315,-83,0,0,0
181141989,0.04901123046875,0.70947265625,0.0233154296875,-0.70263671875,-8226,314,-74,-1,-1,0
181151972,0.04901123046875,0.70947265625,0.0233154296875,-0.70263671875,-8221,312,-73,0,0,-1
181161954,0.04901123046875,0.70947265625,0.0233154296875,-0.70263671875,-8221,304,-74,-1,-1,0
181171932,0.04901123046875,0.70947265625,0.0233154296875,-0.70263671875,-8231,304,-76,0,-1,-1
181181916,0.04901123046875,0.70947265625,0.0233154296875,-0.70263671875,-8222,304,-83,0,-1,0
181191908,0.04901123046875,0.70947265625,0.0233154296875,-0.70263671875,-8226,310,-88,0,0,-1
181201882,0.04901123046875,0.70953369140625,0.0233154296875,-0.70257568359375,-8227,309,-94,0,0,-1
181211873,0.04901123046875,0.70953369140625,0.0233154296875,-0.70257568359375,-8234,312,-87,0,-1,-1
181221859,0.0489501953125,0.70953369140625,0.0233154296875,-0.70257568359375,-8232,294,-84,0,-1,-1
181231845,0.0489501953125,0.70953369140625,0.0233154296875,-0.70257568359375,-8218,286,-90,0,0,0
181241820,0.0489501953125,0.70953369140625,0.02337646484375,-0.70257568359375,-8213,284,-71,-1,-1,-1
181251813,0.0489501953125,0.70953369140625,0.02337646484375,-0.70263671875,-8214,278,-69,0,0,-1
181261781,0.0489501953125,0.70953369140625,0.02337646484375,-0.70257568359375,-8222,293,-71,0,0,-1
181271768,0.0489501953125,0.70953369140625,0.02337646484375,-0.70257568359375,-8227,299,-67,0,0,0
181281749,0.0489501953125,0.70953369140625,0.02337646484375,-0.70257568359375,-8217,291,-58,0,-1,0
181291736,0.0489501953125,0.70953369140625,0.02337646484375,-0.70257568359375,-8214,289,-61,0,0,-1
181301717,0.04888916015625,0.70953369140625,0.0234375,-0.70257568359375,-8223,281,-53,0,0,-1
181311693,0.04888916015625,0.70953369140625,0.0234375,-0.70257568359375,-8230,284,-60,-1,-1,-1
181321684,0.04888916015625,0.70953369140625,0.0234375,-0.70263671875,-8226,283,-63,0,-1,-1
181331665,0.04888916015625,0.70947265625,0.0234375,-0.70263671875,-8234,299,-68,0,-1,-1
181341657,0.04888916015625,0.70947265625,0.0234375,-0.70263671875,-8223,295,-78,0,-1,0
181351639,0.04888916015625,0.70953369140625,0.0234375,-0.70257568359375,-8222,297,-80,0,0,0
181361617,0.04888916015625,0.70953369140625,0.0234375,-0.70257568359375,-8222,296,-74,-1,-1,-1
181371607,0.04888916015625,0.70953369140625,0.0234375,-0.70257568359375,-8229,303,-75,0,0,-1
181381590,0.04888916015625,0.70953369140625,0.0234375,-0.70257568359375,-8227,306,-76,0,-1,-1
181391579,0.04888916015625,0.70953369140625,0.0234375,-0.70257568359375,-8225,304,-80,0,-1,0
181401548,0.048828125,0.70953369140625,0.0234375,-0.70257568359375,-8227,295,-64,0,0,-1
181411528,0.048828125,0.70953369140625,0.0234375,-0.70263671875,-8232,302,-67,0,-1,-1
181421513,0.048828125,0.70953369140625,0.0234375,-0.70257568359375,-8236,300,-76,0,0,-1
181431500,0.048828125,0.70947265625,0.0234375,-0.70263671875,-8242,291,-62,0,-1,0
181441476,0.048828125,0.70947265625,0.0234375,-0.70263671875,-8237,284,-65,0,-1,0
181451454,0.048828125,0.70947265625,0.0234375,-0.70263671875,-8227,295,-64,-1,-1,0
181461445,0.048828125,0.70947265625,0.0234375,-0.70263671875,-8222,294,-79,0,0,0
181471426,0.04888916015625,0.70947265625,0.0234375,-0.70263671875,-8222,293,-56,0,0,0
181481416,0.04888916015625,0.70947265625,0.0234375,-0.70263671875,-8231,286,-52,0,-1,0
181491400,0.04888916015625,0.70947265625,0.0234375,-0.70263671875,-8221,282,-58,-1,-1,0
181501376,0.04888916015625,0.70947265625,0.0234375,-0.70263671875,-8234,289,-61,0,0,-1
181511359,0.04888916015625,0.70947265625,0.0234375,-0.70263671875,-8241,289,-78,0,0,-1
181521347,0.048828125,0.70947265625,0.0234375,-0.70263671875,-8233,294,-75,0,0,-1
181531324,0.048828125,0.70947265625,0.0234375,-0.70263671875,-8246,304,-66,0,-1,-1
181541308,0.048828125,0.70953369140625,0.0234375,-0.70263671875,-8234,302,-75,0,0,-1
181551302,0.048828125,0.70953369140625,0.0234375,-0.70263671875,-8244,294,-79,0,-1,0
181561280,0.04888916015625,0.70947265625,0.0234375,-0.70263671875,-8245,294,-70,0,-1,0
181571260,0.04888916015625,0.70947265625,0.0234375,-0.70263671875,-8241,286,-61,0,0,-1
181581247,0.048828125,0.70947265625,0.0234375,-0.70263671875,-8248,277,-63,0,-1,0
181591223,0.048828125,0.70947265625,0.0234375,-0.70263671875,-8249,284,-71,0,-1,0
181601197,0.04888916015625,0.70947265625,0.0234375,-0.70263671875,-8244,285,-60,-1,-1,0
181611195,0.04888916015625,0.70941162109375,0.0234375,-0.70269775390625,-8250,288,-64,0,-1,-1
181621185,0.04888916015625,0.70947265625,0.02337646484375,-0.70269775390625,-8242,290,-69,0,0,0
181631158,0.04888916015625,0.70947265625,0.0234375,-0.70263671875,-8242,285,-73,-1,0,0
181641138,0.04888916015625,0.70947265625,0.0234375,-0.70263671875,-8236,286,-66,0,0,-1
181651129,0.04888916015625,0.70947265625,0.0234375,-0.70263671875,-8221,291,-75,0,-1,-1
181661106,0.04888916015625,0.70947265625,0.0234375,-0.70263671875,-8218,290,-69,0,-1,0
181671094,0.04888916015625,0.70947265625,0.0234375,-0.70263671875,-8215,295,-67,0,0,-1
181681070,0.04888916015625,0.70941162109375,0.0234375,-0.70269775390625,-8230,300,-66,0,-1,-1
181691060,0.04888916015625,0.70941162109375,0.0234375,-0.70269775390625,-8231,303,-74,0,-1,0
181701038,0.0489501953125,0.70947265625,0.0234375,-0.70263671875,-8223,321,-83,-1,-1,0
181711020,0.0489501953125,0.70947265625,0.0234375,-0.70263671875,-8218,319,-75,0,0,-1
181721002,0.0489501953125,0.70947265625,0.0234375,-0.70263671875,-8232,319,-66,0,-1,-1
181730988,0.04888916015625,0.70941162109375,0.0234375,-0.70269775390625,-8240,311,-65,0,0,-1
181740968,0.04888916015625,0.70947265625,0.02349853515625,-0.70263671875,-8240,293,-74,0,0,-1
181750953,0.048828125,0.70947265625,0.02349853515625,-0.70263671875,-8232,285,-80,0,-1,-1
181760943,0.048828125,0.70947265625,0.02349853515625,-0.70263671875,-8229,285,-79,0,0,0
181770926,0.048828125,0.70953369140625,0.02349853515625,-0.70257568359375,-8233,282,-80,0,0,0
181780901,0.048828125,0.70947265625,0.0235595703125,-0.70263671875,-8242,292,-78,-1,-1,-1
181790890,0.048828125,0.70953369140625,0.02349853515625,-0.70257568359375,-8242,295,-86,0,0,0
181800861,0.04888916015625,0.70947265625,0.02349853515625,-0.70263671875,-8247,302,-69,-1,0,0
181810859,0.04888916015625,0.70953369140625,0.02349853515625,-0.70263671875,-8240,302,-64,0,-1,-1
181820849,0.04888916015625,0.70953369140625,0.02349853515625,-0.70257568359375,-8245,306,-83,0,0,0
181830824,0.04888916015625,0.70953369140625,0.02349853515625,-0.70257568359375,-8230,310,-85,0,-1,-1
181840797,0.04888916015625,0.70953369140625,0.02349853515625,-0.70257568359375,-8231,303,-94,0,0,-1
181850776,0.048828125,0.7095947265625,0.0234375,-0.7025146484375,-8237,310,-93,0,0,-1
181860765,0.048828125,0.70953369140625,0.0234375,-0.70257568359375,-8244,310,-87,0,-1,-1
181870748,0.048828125,0.70953369140625,0.02349853515625,-0.70257568359375,-8237,306,-90,-1,-1,0
181880729,0.048828125,0.70953369140625,0.0234375,-0.70257568359375,-8226,306,-83,0,-1,-1
181890717,0.04888916015625,0.70953369140625,0.0234375,-0.70257568359375,-8225,307,-83,-1,-1,0
181900695,0.04888916015625,0.70953369140625,0.02349853515625,-0.70257568359375,-8228,304,-85,0,-1,-1
181910686,0.048828125,0.70953369140625,0.02349853515625,-0.70257568359375,-8231,305,-80,0,-1,-1
181920663,0.048828125,0.70953369140625,0.02349853515625,-0.70257568359375,-8239,302,-69,0,0,-1
181930651,0.048828125,0.70947265625,0.02349853515625,-0.70263671875,-8247,299,-58,0,0,-1
181940640,0.04888916015625,0.70947265625,0.02349853515625,-0.70263671875,-8244,297,-76,0,-1,0
181950615,0.04888916015625,0.70947265625,0.02349853515625,-0.70263671875,-8235,295,-57,-1,-1,-1
181960606,0.04888916015625,0.70947265625,0.02349853515625,-0.70263671875,-8238,297,-64,0,-1,-1
181970588,0.04888916015625,0.70947265625,0.02349853515625,-0.70263671875,-8235,305,-63,0,-1,-1
181980583,0.04888916015625,0.70947265625,0.02349853515625,-0.70263671875,-8231,304,-69,0,0,0
181990544,0.04888916015625,0.70947265625,0.02349853515625,-0.70263671875,-8223,304,-62,-1,-1,0
182000533,0.04888916015625,0.70947265625,0.02349853515625,-0.70263671875,-8225,318,-70,0,0,-1
182010516,0.04888916015625,0.70947265625,0.02349853515625,-0.70263671875,-8225,316,-75,0,0,0
182020494,0.0489501953125,0.70947265625,0.0234375,-0.70263671875,-8225,318,-73,-1,-1,-1
182030476,0.04888916015625,0.70947265625,0.0234375,-0.70263671875,-8225,317,-73,0,0,-1
182040461,0.04888916015625,0.70947265625,0.02349853515625,-0.70263671875,-8237,314,-69,-1,-1,0
182050448,0.04888916015625,0.70947265625,0.0234375,-0.70263671875,-8239,322,-78,0,-1,-1
182060435,0.04888916015625,0.70953369140625,0.0234375,-0.70257568359375,-8230,316,-81,0,0,0
182070416,0.0489501953125,0.70953369140625,0.0234375,-0.70257568359375,-8231,319,-79,-1,0,-1
182080400,0.0489501953125,0.70953369140625,0.0234375,-0.70257568359375,-8227,317,-84,0,0,0
182090380,0.04888916015625,0.70953369140625,0.0234375,-0.70257568359375,-8228,303,-67,0,0,-1
182100357,0.04888916015625,0.70953369140625,0.0234375,-0.70257568359375,-8224,299,-75,-1,-1,-1
182110344,0.04888916015625,0.70953369140625,0.0234375,-0.70257568359375,-8223,301,-80,0,-1,-1
182120329,0.04888916015625,0.70947265625,0.0234375,-0.70263671875,-8228,299,-70,0,-1,0
182130311,0.04888916015625,0.70947265625,0.0234375,-0.70263671875,-8236,298,-75,0,0,0
182140290,0.0489501953125,0.70953369140625,0.0234375,-0.70263671875,-8240,305,-76,-1,-1,0
182153419,0.0489501953125,0.70953369140625,0.02337646484375,-0.70257568359375,-8235,314,-77,0,0,0
182160258,0.0489501953125,0.70953369140625,0.0234375,-0.70257568359375,-8234,335,-90,-1,0,-1
182170243,0.0489501953125,0.70953369140625,0.02337646484375,-0.70257568359375,-8233,320,-94,0,-1,0
182180231,0.0489501953125,0.70953369140625,0.02337646484375,-0.70257568359375,-8230,318,-91,0,0,-1
182190208,0.0489501953125,0.70953369140625,0.02337646484375,-0.70257568359375,-8227,312,-86,0,-1,-1
182200197,0.0489501953125,0.70953369140625,0.02337646484375,-0.70257568359375,-8224,315,-73,0,-1,-1
182210189,0.04888916015625,0.70953369140625,0.02337646484375,-0.70257568359375,-8226,311,-79,0,0,0
182220171,0.0489501953125,0.70953369140625,0.02337646484375,-0.70257568359375,-8233,313,-79,0,-1,0
182230140,0.04888916015625,0.7095947265625,0.02337646484375,-0.7025146484375,-8238,309,-79,0,-1,-1
182240124,0.0489501953125,0.70953369140625,0.0233154296875,-0.70257568359375,-8234,302,-80,0,-1,0
182250112,0.0489501953125,0.70953369140625,0.02337646484375,-0.70257568359375,-8222,302,-72,0,-1,-1
182260089,0.0489501953125,0.7095947265625,0.02337646484375,-0.7025146484375,-8233,305,-85,0,0,-1
182270077,0.0489501953125,0.7095947265625,0.02337646484375,-0.7025146484375,-8233,293,-67,0,-1,0
182280052,0.0489501953125,0.7095947265625,0.0233154296875,-0.7025146484375,-8235,297,-73,0,-1,0
182290045,0.0489501953125,0.70953369140625,0.0233154296875,-0.70257568359375,-8236,315,-74,0,-1,-1
182300025,0.04901123046875,0.70953369140625,0.0233154296875,-0.70257568359375,-8230,313,-78,0,-1,-1
182310012,0.04901123046875,0.7095947265625,0.0233154296875,-0.7025146484375,-8234,303,-75,0,0,0
182319985,0.04901123046875,0.70953369140625,0.0233154296875,-0.70257568359375,-8229,289,-62,-1,-1,0
182329979,0.04901123046875,0.70953369140625,0.0233154296875,-0.70257568359375,-8223,303,-69,0,0,0
182339954,0.0489501953125,0.7095947265625,0.0233154296875,-0.7025146484375,-8221,302,-62,0,0,-1
182349941,0.0489501953125,0.7095947265625,0.0233154296875,-0.7025146484375,-8227,303,-62,0,0,0
182359922,0.0489501953125,0.7095947265625,0.0233154296875,-0.7025146484375,-8236,309,-55,0,-1,0
182369903,0.04901123046875,0.7095947265625,0.0233154296875,-0.7025146484375,-8241,317,-60,-1,-1,0
182379889,0.04901123046875,0.7095947265625,0.0233154296875,-0.7025146484375,-8237,306,-48,0,0,-1
182389876,0.04901123046875,0.70953369140625,0.0233154296875,-0.70257568359375,-8237,300,-49,0,-1,0
182399859,0.04901123046875,0.70953369140625,0.02325439453125,-0.70257568359375,-8230,312,-56,0,-1,-1
182409843,0.04901123046875,0.70953369140625,0.02325439453125,-0.70257568359375,-8217,305,-65,0,0,0
182419825,0.04901123046875,0.70953369140625,0.02325439453125,-0.70257568359375,-8210,302,-79,0,-1,0
182429803,0.04901123046875,0.70953369140625,0.02325439453125,-0.70257568359375,-8223,302,-75,-1,-1,-1
182439783,0.04901123046875,0.70953369140625,0.02325439453125,-0.70257568359375,-8238,309,-79,0,-1,0
182449778,0.04901123046875,0.7095947265625,0.02325439453125,-0.7025146484375,-8246,310,-83,0,0,0
182459753,0.04901123046875,0.7095947265625,0.02325439453125,-0.7025146484375,-8254,309,-84,0,-1,-1
182469731,0.04901123046875,0.7095947265625,0.02325439453125,-0.7025146484375,-8243,307,-75,0,-1,0
182479721,0.04901123046875,0.7095947265625,0.02325439453125,-0.7025146484375,-8252,301,-78,0,-1,0
182489693,0.049072265625,0.7095947265625,0.02325439453125,-0.7025146484375,-8245,296,-66,-1,-1,0
182499688,0.049072265625,0.70953369140625,0.02325439453125,-0.70257568359375,-8244,296,-65,0,0,-1
182509680,0.049072265625,0.70953369140625,0.02325439453125,-0.70257568359375,-8240,296,-60,0,0,0
182519650,0.04913330078125,0.70953369140625,0.02325439453125,-0.70257568359375,-8238,301,-61,-1,0,0
182529636,0.04913330078125,0.70953369140625,0.02325439453125,-0.70257568359375,-8242,301,-65,0,-1,0
182539630,0.04913330078125,0.70953369140625,0.02325439453125,-0.70257568359375,-8232,285,-61,0,-1,-1
182549611,0.049072265625,0.70953369140625,0.02325439453125,-0.70257568359375,-8229,297,-64,0,-1,-1
182559601,0.04913330078125,0.70953369140625,0.02325439453125,-0.70257568359375,-8230,310,-79,0,0,0
182569570,0.04913330078125,0.70953369140625,0.023193359375,-0.70257568359375,-8224,321,-74,0,-1,-1
182579551,0.04913330078125,0.70953369140625,0.023193359375,-0.70257568359375,-8224,304,-68,0,0,0
182589532,0.04913330078125,0.70953369140625,0.023193359375,-0.70257568359375,-8221,298,-71,0,-1,0
182599523,0.04913330078125,0.70953369140625,0.023193359375,-0.70257568359375,-8225,311,-74,0,0,0
182609498,0.04913330078125,0.70953369140625,0.023193359375,-0.70257568359375,-8219,317,-55,0,-1,-1
182619485,0.04913330078125,0.70953369140625,0.023193359375,-0.70257568359375,-8218,307,-56,0,-1,-1
182629457,0.04913330078125,0.70953369140625,0.023193359375,-0.70257568359375,-8228,308,-71,0,0,-1
182639442,0.049072265625,0.7095947265625,0.023193359375,-0.7025146484375,-8228,309,-71,0,0,-1
182649426,0.049072265625,0.70953369140625,0.023193359375,-0.70257568359375,-8215,314,-60,0,-1,-1
182659412,0.04913330078125,0.70953369140625,0.02313232421875,-0.70257568359375,-8217,326,-66,0,-1,0
182669404,0.04913330078125,0.70953369140625,0.02313232421875,-0.70257568359375,-8228,322,-66,0,0,0
182679377,0.04913330078125,0.7095947265625,0.02313232421875,-0.7025146484375,-8222,312,-71,0,0,0
182689358,0.04913330078125,0.70953369140625,0.02313232421875,-0.7025146484375,-8230,316,-65,-1,-1,-1
182699338,0.04913330078125,0.70953369140625,0.02313232421875,-0.70257568359375,-8228,315,-74,0,-1,-1
182709327,0.04913330078125,0.7095947265625,0.02313232421875,-0.7025146484375,-8229,311,-63,0,0,-1
182719307,0.04913330078125,0.7095947265625,0.02313232421875,-0.7025146484375,-8227,308,-72,0,0,-1
182729302,0.049072265625,0.7095947265625,0.02313232421875,-0.7025146484375,-8221,304,-72,0,-1,-1
182739285,0.049072265625,0.7095947265625,0.02313232421875,-0.7025146484375,-8220,294,-72,0,0,0
182749261,0.049072265625,0.7095947265625,0.023193359375,-0.7025146484375,-8220,291,-77,0,-1,-1
182759245,0.049072265625,0.7095947265625,0.02313232421875,-0.7025146484375,-8220,301,-78,0,-1,0
182769228,0.049072265625,0.7095947265625,0.023193359375,-0.7025146484375,-8220,301,-68,0,0,0
182779208,0.04913330078125,0.7095947265625,0.02313232421875,-0.7025146484375,-8221,304,-65,0,0,0
182789191,0.04913330078125,0.70953369140625,0.02313232421875,-0.7025146484375,-8234,304,-68,0,-1,-1
182799183,0.04913330078125,0.70953369140625,0.02313232421875,-0.7025146484375,-8228,305,-59,0,-1,-1
182809172,0.049072265625,0.7095947265625,0.023193359375,-0.7025146484375,-8222,299,-60,0,0,-1
182819146,0.049072265625,0.7095947265625,0.023193359375,-0.7025146484375,-8220,298,-71,0,0,-1
182829121,0.049072265625,0.7095947265625,0.023193359375,-0.7025146484375,-8214,300,-75,0,0,-1
182839113,0.049072265625,0.7095947265625,0.023193359375,-0.7025146484375,-8226,296,-69,0,0,0
182849094,0.049072265625,0.7095947265625,0.023193359375,-0.7025146484375,-8227,297,-65,-1,-1,0
182859071,0.049072265625,0.7095947265625,0.023193359375,-0.7025146484375,-8225,304,-84,0,-1,-1
182869060,0.049072265625,0.70965576171875,0.023193359375,-0.70245361328125,-8231,311,-87,0,0,-1
182879044,0.049072265625,0.70965576171875,0.023193359375,-0.70245361328125,-8235,304,-74,0,0,0
182889023,0.049072265625,0.70965576171875,0.02313232421875,-0.70245361328125,-8226,305,-73,0,-1,0
182898999,0.049072265625,0.70965576171875,0.02313232421875,-0.70245361328125,-8221,301,-87,-1,-1,0
182908988,0.049072265625,0.70965576171875,0.023193359375,-0.70245361328125,-8228,301,-86,0,0,-1
182918968,0.04901123046875,0.70965576171875,0.023193359375,-0.70245361328125,-8225,309,-76,0,0,-1
182928950,0.04901123046875,0.70965576171875,0.023193359375,-0.70245361328125,-8233,301,-67,-1,-1,-1
182938944,0.04901123046875,0.70965576171875,0.023193359375,-0.70245361328125,-8239,298,-69,0,0,-1
182948918,0.04901123046875,0.70965576171875,0.023193359375,-0.70245361328125,-8231,298,-68,0,0,-1
182958909,0.04901123046875,0.70965576171875,0.02325439453125,-0.70245361328125,-8228,293,-64,0,0,-1
182968892,0.0489501953125,0.709716796875,0.023193359375,-0.702392578125,-8221,298,-67,0,0,0
182978873,0.04901123046875,0.709716796875,0.023193359375,-0.702392578125,-8226,302,-61,-1,0,-1
182988857,0.0489501953125,0.709716796875,0.023193359375,-0.702392578125,-8231,299,-64,0,-1,-1
182998845,0.0489501953125,0.70965576171875,0.023193359375,-0.70245361328125,-8245,297,-57,0,-1,0
183008824,0.0489501953125,0.70965576171875,0.02325439453125,-0.70245361328125,-8251,290,-55,0,-1,-1
183018803,0.04888916015625,0.70965576171875,0.02325439453125,-0.70245361328125,-8254,287,-43,0,0,-1
183028790,0.0489501953125,0.70965576171875,0.02325439453125,-0.70245361328125,-8245,298,-48,0,-1,0
183038775,0.0489501953125,0.70965576171875,0.02325439453125,-0.70245361328125,-8241,296,-56,0,-1,-1
183048751,0.04888916015625,0.70965576171875,0.02325439453125,-0.70245361328125,-8234,295,-54,0,0,-1
183058735,0.04888916015625,0.70965576171875,0.02325439453125,-0.70245361328125,-8233,301,-61,0,0,0
183068717,0.0489501953125,0.70965576171875,0.02325439453125,-0.70245361328125,-8231,295,-52,-1,0,-1
183078698,0.04888916015625,0.70965576171875,0.02325439453125,-0.70245361328125,-8228,294,-58,0,-1,-1
183088691,0.04888916015625,0.70965576171875,0.02325439453125,-0.70245361328125,-8247,300,-59,0,0,0
183098680,0.04888916015625,0.70965576171875,0.02325439453125,-0.70245361328125,-8245,307,-70,0,-1,0
183108656,0.0489501953125,0.70965576171875,0.02325439453125,-0.70245361328125,-8231,305,-61,0,-1,-1
183118641,0.04888916015625,0.70965576171875,0.02325439453125,-0.70245361328125,-8236,311,-70,0,0,-1
183128616,0.0489501953125,0.70965576171875,0.02325439453125,-0.7025146484375,-8243,309,-46,-1,-1,0
183138612,0.0489501953125,0.70965576171875,0.02325439453125,-0.7025146484375,-8236,301,-57,0,0,-1
183148606,0.0489501953125,0.70965576171875,0.02325439453125,-0.7025146484375,-8240,300,-67,0,0,0
183158568,0.0489501953125,0.70965576171875,0.02325439453125,-0.7025146484375,-8231,296,-67,0,-1,0
183168547,0.0489501953125,0.7095947265625,0.02325439453125,-0.7025146484375,-8227,295,-57,0,-1,0
183178537,0.0489501953125,0.7095947265625,0.02325439453125,-0.7025146484375,-8227,299,-62,0,-1,-1
183188518,0.04888916015625,0.7095947265625,0.02325439453125,-0.7025146484375,-8229,291,-76,0,-1,-1
183198493,0.04888916015625,0.70965576171875,0.02325439453125,-0.70245361328125,-8237,287,-91,0,-1,-1
183208480,0.04888916015625,0.70965576171875,0.02325439453125,-0.70245361328125,-8234,298,-88,0,0,-1
183218475,0.04888916015625,0.70965576171875,0.02325439453125,-0.70245361328125,-8238,297,-72,0,-1,0
183228451,0.048828125,0.7095947265625,0.0233154296875,-0.7025146484375,-8242,293,-59,0,0,-1
183238430,0.048828125,0.7095947265625,0.0233154296875,-0.7025146484375,-8240,282,-48,0,-1,-1
183248419,0.048828125,0.7095947265625,0.0233154296875,-0.7025146484375,-8240,297,-46,0,-1,0
183258402,0.048828125,0.70953369140625,0.0233154296875,-0.70257568359375,-8239,293,-52,-1,-1,0
183268380,0.048828125,0.70953369140625,0.0233154296875,-0.70257568359375,-8229,294,-49,0,0,-1
183278355,0.048828125,0.70953369140625,0.0233154296875,-0.70263671875,-8231,303,-47,0,-1,-1
183288337,0.048828125,0.70947265625,0.02337646484375,-0.70263671875,-8219,297,-56,-1,-1,-1
183298324,0.048828125,0.70947265625,0.02337646484375,-0.70263671875,-8215,300,-61,0,0,-1
183308309,0.048828125,0.70953369140625,0.02337646484375,-0.70263671875,-8232,298,-58,0,0,-1
183318302,0.048828125,0.70947265625,0.02337646484375,-0.70263671875,-8235,294,-59,0,-1,0
183328274,0.04888916015625,0.70947265625,0.0233154296875,-0.70263671875,-8227,314,-73,0,-1,0
183338258,0.04888916015625,0.70947265625,0.02337646484375,-0.70263671875,-8222,301,-65,0,-1,0
183348235,0.04888916015625,0.70947265625,0.0233154296875,-0.70263671875,-8219,307,-75,-1,-1,0
183358221,0.0489501953125,0.70947265625,0.0233154296875,-0.70263671875,-8221,313,-78,0,-1,0
183368212,0.0489501953125,0.70947265625,0.0233154296875,-0.70263671875,-8231,320,-67,-1,-1,-1
183378192,0.0489501953125,0.70947265625,0.0233154296875,-0.70263671875,-8222,303,-61,0,-1,-1
183388178,0.0489501953125,0.70947265625,0.0233154296875,-0.70263671875,-8227,298,-62,0,-1,-1
183398159,0.0489501953125,0.70941162109375,0.0233154296875,-0.70269775390625,-8220,303,-61,0,-1,-1
183408141,0.04888916015625,0.70941162109375,0.0233154296875,-0.70269775390625,-8231,308,-67,0,0,-1
183418123,0.0489501953125,0.70941162109375,0.0233154296875,-0.70269775390625,-8234,316,-67,-1,-1,0
183428112,0.0489501953125,0.70941162109375,0.0233154296875,-0.70269775390625,-8239,307,-79,0,-1,-1
183438096,0.0489501953125,0.70947265625,0.0233154296875,-0.70263671875,-8237,305,-70,0,0,0
183448073,0.0489501953125,0.70947265625,0.0233154296875,-0.70263671875,-8239,314,-65,-1,0,-1
183458052,0.0489501953125,0.70947265625,0.02325439453125,-0.70263671875,-8243,315,-60,0,0,-1
183468037,0.0489501953125,0.70947265625,0.0233154296875,-0.70263671875,-8247,314,-73,0,0,-1
183478020,0.0489501953125,0.70947265625,0.0233154296875,-0.70263671875,-8243,312,-73,0,0,-1
183487999,0.0489501953125,0.70947265625,0.0233154296875,-0.70263671875,-8236,317,-56,-1,-1,-1
183497987,0.04888916015625,0.70947265625,0.0233154296875,-0.70263671875,-8226,313,-59,0,0,-1
183507968,0.04888916015625,0.70947265625,0.0233154296875,-0.70263671875,-8225,316,-69,0,0,-1
183517947,0.0489501953125,0.70947265625,0.0233154296875,-0.70263671875,-8234,317,-71,0,-1,-1
183527932,0.04888916015625,0.70947265625,0.0233154296875,-0.70263671875,-8231,315,-74,0,-1,-1
183537921,0.04888916015625,0.70947265625,0.0233154296875,-0.70263671875,-8232,316,-75,0,-1,0
183547906,0.0489501953125,0.70947265625,0.02325439453125,-0.70263671875,-8225,318,-70,0,0,0
183557890,0.0489501953125,0.70947265625,0.02325439453125,-0.70263671875,-8224,313,-67,0,0,-1
183567873,0.0489501953125,0.70947265625,0.02325439453125,-0.70263671875,-8220,306,-61,-1,-1,0
183577857,0.0489501953125,0.70947265625,0.02325439453125,-0.70263671875,-8230,302,-61,0,-1,-1
183587849,0.0489501953125,0.70947265625,0.02325439453125,-0.70263671875,-8228,301,-62,0,0,0
183597828,0.0489501953125,0.70947265625,0.02325439453125,-0.70263671875,-8236,315,-71,0,-1,-1
183607817,0.0489501953125,0.70947265625,0.02325439453125,-0.70263671875,-8238,300,-66,0,-1,0
183617793,0.04901123046875,0.70947265625,0.02325439453125,-0.70263671875,-8236,315,-58,-1,-1,0
183627764,0.04901123046875,0.70941162109375,0.02325439453125,-0.70269775390625,-8234,306,-59,0,-1,0
183637754,0.04901123046875,0.70941162109375,0.023193359375,-0.70269775390625,-8226,308,-59,0,-1,0
183647739,0.04901123046875,0.70941162109375,0.023193359375,-0.70269775390625,-8227,311,-65,0,-1,0
183657723,0.04901123046875,0.70941162109375,0.023193359375,-0.70269775390625,-8211,301,-57,0,0,-1
183667707,0.04901123046875,0.70941162109375,0.023193359375,-0.70269775390625,-8224,311,-62,0,-1,0
183677688,0.049072265625,0.70941162109375,0.023193359375,-0.70269775390625,-8221,321,-72,0,-1,-1
183687670,0.04901123046875,0.70947265625,0.023193359375,-0.70263671875,-8212,319,-78,0,0,-1
183697654,0.04901123046875,0.70941162109375,0.023193359375,-0.70269775390625,-8226,324,-74,0,-1,-1
183707641,0.04901123046875,0.70941162109375,0.023193359375,-0.70269775390625,-8232,325,-70,0,-1,0
183717616,0.049072265625,0.70941162109375,0.02313232421875,-0.70269775390625,-8219,318,-66,0,-1,0
183727616,0.049072265625,0.70941162109375,0.02313232421875,-0.70269775390625,-8228,314,-62,0,0,-1
183737598,0.049072265625,0.70941162109375,0.02313232421875,-0.70269775390625,-8231,306,-65,0,0,-1
183747581,0.049072265625,0.70941162109375,0.02313232421875,-0.70269775390625,-8226,309,-68,0,0,0
183757546,0.049072265625,0.70947265625,0.023193359375,-0.70263671875,-8235,300,-73,-1,0,-1
183767528,0.049072265625,0.70941162109375,0.023193359375,-0.70269775390625,-8226,302,-64,0,-1,-1
183777516,0.04901123046875,0.70947265625,0.023193359375,-0.70263671875,-8223,298,-81,0,0,-1
183787497,0.04901123046875,0.70947265625,0.023193359375,-0.70269775390625,-8220,289,-69,0,-1,-1
183797481,0.04901123046875,0.70947265625,0.023193359375,-0.70263671875,-8220,302,-71,0,0,-1
183807467,0.04901123046875,0.70947265625,0.023193359375,-0.70263671875,-8227,305,-61,0,0,0
183817443,0.04901123046875,0.70941162109375,0.023193359375,-0.70269775390625,-8237,303,-49,-1,0,0
183827436,0.04901123046875,0.70941162109375,0.023193359375,-0.70269775390625,-8233,301,-52,0,0,-1
183837419,0.04901123046875,0.70947265625,0.023193359375,-0.70263671875,-8238,290,-65,0,0,0
183847391,0.04901123046875,0.70947265625,0.023193359375,-0.70263671875,-8224,290,-76,-1,-1,0
183857373,0.04901123046875,0.70947265625,0.023193359375,-0.70263671875,-8231,300,-72,0,-1,0
183867373,0.04901123046875,0.70947265625,0.023193359375,-0.70269775390625,-8238,301,-65,0,0,0
183877340,0.049072265625,0.70941162109375,0.023193359375,-0.70269775390625,-8229,295,-66,-1,-1,0
183887324,0.049072265625,0.70941162109375,0.023193359375,-0.70269775390625,-8233,293,-71,0,-1,0
183897312,0.049072265625,0.70941162109375,0.02313232421875,-0.70269775390625,-8225,296,-61,0,0,0
183907302,0.049072265625,0.70941162109375,0.02313232421875,-0.70269775390625,-8226,294,-59,0,0,0
183917274,0.04913330078125,0.70941162109375,0.023193359375,-0.70269775390625,-8241,292,-56,-1,-1,0
183927259,0.04913330078125,0.70941162109375,0.02313232421875,-0.70269775390625,-8237,298,-69,0,-1,-1
183937247,0.04913330078125,0.70941162109375,0.02313232421875,-0.70269775390625,-8230,293,-71,0,-1,0
183947224,0.04913330078125,0.70941162109375,0.02313232421875,-0.70269775390625,-8225,290,-75,0,-1,0
183957210,0.04913330078125,0.70941162109375,0.023193359375,-0.70269775390625,-8225,285,-82,0,-1,0
183967197,0.04913330078125,0.70941162109375,0.023193359375,-0.70269775390625,-8229,290,-76,0,-1,-1
183977187,0.04913330078125,0.70941162109375,0.023193359375,-0.70269775390625,-8227,292,-67,0,0,0
183987171,0.04913330078125,0.70941162109375,0.023193359375,-0.70269775390625,-8220,283,-64,0,0,0
183997145,0.049072265625,0.7093505859375,0.023193359375,-0.7027587890625,-8220,292,-61,0,-1,-1
184007122,0.049072265625,0.7093505859375,0.023193359375,-0.7027587890625,-8217,296,-62,0,0,-1
184017107,0.049072265625,0.70941162109375,0.023193359375,-0.70269775390625,-8215,287,-63,0,0,0
184027095,0.049072265625,0.7093505859375,0.023193359375,-0.7027587890625,-8234,297,-59,0,-1,-1
184037078,0.049072265625,0.7093505859375,0.023193359375,-0.7027587890625,-8229,293,-56,0,-1,-1
184047060,0.049072265625,0.7093505859375,0.023193359375,-0.7027587890625,-8240,296,-62,0,-1,0
184057047,0.049072265625,0.7093505859375,0.023193359375,-0.7027587890625,-8241,303,-64,0,0,0
184067019,0.04913330078125,0.7093505859375,0.023193359375,-0.7027587890625,-8239,297,-57,-1,-1,0
184077001,0.04913330078125,0.7093505859375,0.023193359375,-0.7027587890625,-8248,300,-66,0,-1,0
184086995,0.049072265625,0.7093505859375,0.023193359375,-0.7027587890625,-8240,295,-64,0,0,-1
184096975,0.049072265625,0.7093505859375,0.023193359375,-0.7027587890625,-8239,285,-62,0,0,0
184106956,0.04913330078125,0.70941162109375,0.02313232421875,-0.70269775390625,-8236,298,-63,0,-1,0
184116944,0.049072265625,0.7093505859375,0.023193359375,-0.7027587890625,-8248,289,-63,0,-1,-1
184126927,0.049072265625,0.7093505859375,0.023193359375,-0.7027587890625,-8243,293,-64,0,0,0
184136908,0.049072265625,0.7093505859375,0.023193359375,-0.7027587890625,-8238,294,-46,0,-1,-1
184146887,0.049072265625,0.7093505859375,0.023193359375,-0.7027587890625,-8236,304,-48,0,0,-1
184156874,0.04913330078125,0.7093505859375,0.02313232421875,-0.7027587890625,-8232,316,-45,0,-1,0
184166858,0.04913330078125,0.7093505859375,0.02313232421875,-0.7027587890625,-8229,322,-53,0,-1,-1
184176850,0.049072265625,0.7093505859375,0.02313232421875,-0.7027587890625,-8233,309,-60,0,0,0
184186823,0.04913330078125,0.7093505859375,0.02313232421875,-0.7027587890625,-8242,318,-56,-1,-1,0
184196804,0.04913330078125,0.7093505859375,0.02313232421875,-0.7027587890625,-8237,314,-60,0,-1,-1
184206787,0.04913330078125,0.7093505859375,0.0230712890625,-0.7027587890625,-8231,315,-57,0,-1,0
184216762,0.0491943359375,0.7093505859375,0.0230712890625,-0.7027587890625,-8236,323,-48,-1,-1,0
184226748,0.0491943359375,0.70928955078125,0.0230712890625,-0.70281982421875,-8231,307,-48,0,-1,0
184236741,0.0491943359375,0.7093505859375,0.0230712890625,-0.7027587890625,-8229,307,-60,0,0,-1
184246721,0.0491943359375,0.7093505859375,0.0230712890625,-0.7027587890625,-8223,308,-65,0,0,0
184256699,0.04925537109375,0.7093505859375,0.0230712890625,-0.7027587890625,-8224,306,-63,-1,-1,0
184266684,0.04925537109375,0.7093505859375,0.02301025390625,-0.7027587890625,-8238,317,-60,0,0,0
184276663,0.04931640625,0.7093505859375,0.02301025390625,-0.7027587890625,-8239,320,-62,0,-1,0
184286659,0.04931640625,0.7093505859375,0.02301025390625,-0.7027587890625,-8252,319,-70,0,0,0
184296640,0.04931640625,0.7093505859375,0.0230712890625,-0.70269775390625,-8249,303,-82,0,0,-1
184306630,0.04931640625,0.7093505859375,0.0230712890625,-0.70269775390625,-8243,294,-76,0,-1,0
184316617,0.04931640625,0.7093505859375,0.0230712890625,-0.70269775390625,-8250,307,-69,0,-1,-1
184326603,0.04931640625,0.7093505859375,0.0230712890625,-0.7027587890625,-8235,311,-66,0,-1,-1
184336579,0.04931640625,0.7093505859375,0.0230712890625,-0.70269775390625,-8236,305,-69,0,0,-1
184346547,0.04925537109375,0.7093505859375,0.02313232421875,-0.70269775390625,-8235,300,-81,0,0,-1
184356530,0.04925537109375,0.70941162109375,0.02313232421875,-0.70269775390625,-8227,298,-82,0,-1,-1
184366521,0.04925537109375,0.70941162109375,0.02313232421875,-0.70269775390625,-8222,300,-76,0,0,0
184376498,0.04931640625,0.70941162109375,0.02313232421875,-0.70269775390625,-8222,313,-69,0,0,0
184386484,0.04931640625,0.70941162109375,0.02313232421875,-0.70269775390625,-8227,302,-64,0,-1,-1
184396463,0.04925537109375,0.70941162109375,0.02313232421875,-0.70269775390625,-8215,306,-61,0,0,-1
184406447,0.04925537109375,0.70941162109375,0.023193359375,-0.70269775390625,-8218,309,-52,0,-1,-1
184416431,0.04925537109375,0.70941162109375,0.023193359375,-0.70269775390625,-8222,305,-57,0,0,-1
184426420,0.04925537109375,0.70941162109375,0.023193359375,-0.70269775390625,-8237,301,-59,0,-1,-1
184436400,0.0491943359375,0.7093505859375,0.02325439453125,-0.70269775390625,-8256,291,-65,0,-1,-1
184446379,0.0491943359375,0.70941162109375,0.02325439453125,-0.70269775390625,-8245,299,-64,0,0,-1
184456363,0.0491943359375,0.70941162109375,0.02325439453125,-0.70269775390625,-8246,295,-58,0,-1,-1
184466352,0.04913330078125,0.70941162109375,0.02325439453125,-0.70269775390625,-8235,292,-81,0,0,0
184476329,0.04913330078125,0.70941162109375,0.02325439453125,-0.70269775390625,-8246,276,-74,0,0,0
184486307,0.049072265625,0.70947265625,0.0233154296875,-0.70263671875,-8243,273,-74,0,0,0
184496294,0.04913330078125,0.70941162109375,0.0233154296875,-0.70269775390625,-8233,272,-52,-1,-1,-1
184506280,0.049072265625,0.70941162109375,0.0233154296875,-0.70269775390625,-8231,282,-54,0,-1,0
184516269,0.04913330078125,0.70941162109375,0.0233154296875,-0.70269775390625,-8232,300,-56,0,0,0
184526243,0.04913330078125,0.70941162109375,0.0233154296875,-0.70269775390625,-8239,304,-47,0,0,0
184536229,0.04913330078125,0.70941162109375,0.0233154296875,-0.70269775390625,-8230,293,-47,0,0,-1
184546208,0.04913330078125,0.70941162109375,0.0233154296875,-0.70269775390625,-8227,290,-52,0,0,-1
184556198,0.049072265625,0.70941162109375,0.0233154296875,-0.70263671875,-8230,293,-62,0,0,-1
184566187,0.049072265625,0.70947265625,0.0233154296875,-0.70263671875,-8229,302,-61,0,0,0
184576162,0.049072265625,0.70947265625,0.0233154296875,-0.70263671875,-8239,314,-64,0,0,0
184586136,0.049072265625,0.70947265625,0.0233154296875,-0.70263671875,-8248,295,-57,-1,0,0
184596118,0.049072265625,0.70947265625,0.0233154296875,-0.70263671875,-8236,289,-64,-1,-1,-1
184606114,0.049072265625,0.70947265625,0.0233154296875,-0.70263671875,-8236,292,-72,0,0,-1
184616091,0.049072265625,0.70947265625,0.0233154296875,-0.70263671875,-8246,301,-72,0,-1,-1
184626077,0.049072265625,0.70947265625,0.02325439453125,-0.70263671875,-8240,314,-75,0,-1,0
184636063,0.049072265625,0.70947265625,0.0233154296875,-0.70263671875,-8244,295,-68,0,0,-1
184646039,0.04901123046875,0.70947265625,0.0233154296875,-0.70263671875,-8225,291,-65,0,0,-1
184656017,0.04901123046875,0.70953369140625,0.0233154296875,-0.70257568359375,-8232,296,-67,0,0,-1
184666006,0.04901123046875,0.70953369140625,0.0233154296875,-0.70257568359375,-8244,295,-64,0,-1,-1
184675994,0.04901123046875,0.70947265625,0.0233154296875,-0.70263671875,-8246,292,-70,0,-1,0
184685970,0.04901123046875,0.70947265625,0.0233154296875,-0.70263671875,-8246,291,-63,0,-1,0
184695953,0.04901123046875,0.70947265625,0.0233154296875,-0.70263671875,-8231,285,-61,-1,-1,-1
184705945,0.04901123046875,0.70947265625,0.0233154296875,-0.70263671875,-8235,288,-60,0,0,0
184715918,0.0489501953125,0.70947265625,0.0233154296875,-0.70263671875,-8236,285,-63,0,0,-1
184725909,0.0489501953125,0.70947265625,0.0233154296875,-0.70263671875,-8226,284,-57,0,0,0
184735885,0.0489501953125,0.70953369140625,0.0233154296875,-0.70263671875,-8231,293,-59,0,0,-1
184745862,0.0489501953125,0.70953369140625,0.0233154296875,-0.70257568359375,-8232,301,-61,0,-1,-1
184755857,0.0489501953125,0.70947265625,0.0233154296875,-0.70263671875,-8227,305,-66,0,-1,-1
184765844,0.0489501953125,0.70953369140625,0.0233154296875,-0.70257568359375,-8218,299,-72,0,0,-1
184775825,0.04888916015625,0.70947265625,0.02337646484375,-0.70263671875,-8222,291,-63,0,-1,-1
184785805,0.04888916015625,0.70947265625,0.02337646484375,-0.70263671875,-8241,305,-73,0,0,-1
184795790,0.0489501953125,0.70947265625,0.02337646484375,-0.70263671875,-8243,298,-69,0,-1,0
184805774,0.0489501953125,0.70947265625,0.02337646484375,-0.70263671875,-8237,309,-68,-1,-1,-1
184815757,0.0489501953125,0.70947265625,0.0233154296875,-0.70263671875,-8237,309,-74,0,0,-1
184825741,0.0489501953125,0.70947265625,0.0233154296875,-0.70263671875,-8247,302,-76,0,-1,0
184835723,0.04888916015625,0.70947265625,0.0233154296875,-0.70263671875,-8238,290,-63,0,0,0
184845704,0.04888916015625,0.70947265625,0.02337646484375,-0.70263671875,-8235,289,-45,-1,0,0
184855683,0.04888916015625,0.70947265625,0.02337646484375,-0.70263671875,-8231,289,-51,0,0,-1
184865663,0.0489501953125,0.70947265625,0.02337646484375,-0.70263671875,-8212,307,-47,0,-1,-1
184875663,0.0489501953125,0.70947265625,0.02337646484375,-0.70263671875,-8223,302,-57,0,0,0
184885637,0.0489501953125,0.70947265625,0.02337646484375,-0.70263671875,-8237,298,-59,-1,0,0
184895620,0.0489501953125,0.70947265625,0.02337646484375,-0.70263671875,-8241,293,-68,0,-1,-1
184905613,0.0489501953125,0.70947265625,0.02337646484375,-0.70263671875,-8244,281,-65,0,0,-1
184915602,0.04888916015625,0.70947265625,0.02337646484375,-0.70263671875,-8241,289,-61,0,0,-1
184925582,0.04888916015625,0.70947265625,0.02337646484375,-0.70263671875,-8245,289,-58,0,-1,0
184935547,0.0489501953125,0.70947265625,0.02337646484375,-0.70263671875,-8244,286,-66,0,-1,0
184945531,0.0489501953125,0.70941162109375,0.02337646484375,-0.70269775390625,-8235,293,-55,0,-1,0
184955526,0.0489501953125,0.70941162109375,0.02337646484375,-0.70269775390625,-8231,292,-46,0,0,0
184965498,0.0489501953125,0.70941162109375,0.02337646484375,-0.70269775390625,-8225,299,-45,0,0,-1
184975479,0.04888916015625,0.70947265625,0.02337646484375,-0.70269775390625,-8227,305,-41,0,0,-1
184985475,0.0489501953125,0.70941162109375,0.0233154296875,-0.70269775390625,-8228,311,-32,0,-1,0
184995448,0.0489501953125,0.70941162109375,0.0233154296875,-0.70269775390625,-8232,318,-34,-1,0,-1
185005426,0.0489501953125,0.70941162109375,0.02337646484375,-0.70269775390625,-8231,311,-49,0,0,-1
185015420,0.0489501953125,0.70941162109375,0.0233154296875,-0.70269775390625,-8226,303,-55,0,-1,0
185025403,0.0489501953125,0.70941162109375,0.0233154296875,-0.70269775390625,-8214,314,-46,0,-1,-1
185035380,0.0489501953125,0.70941162109375,0.0233154296875,-0.70269775390625,-8216,305,-55,0,0,-1
185045359,0.0489501953125,0.70941162109375,0.02337646484375,-0.70269775390625,-8217,307,-61,0,0,-1
185055345,0.0489501953125,0.70941162109375,0.02337646484375,-0.70269775390625,-8217,302,-58,0,-1,-1
185065332,0.04888916015625,0.70941162109375,0.02337646484375,-0.70269775390625,-8223,300,-73,0,-1,0
185075310,0.0489501953125,0.70941162109375,0.0233154296875,-0.70269775390625,-8246,304,-72,0,-1,0
185085294,0.0489501953125,0.70941162109375,0.0233154296875,-0.70269775390625,-8241,306,-60,0,-1,0
185095281,0.0489501953125,0.7093505859375,0.0233154296875,-0.7027587890625,-8238,297,-59,0,-1,-1
185105262,0.04888916015625,0.7093505859375,0.02337646484375,-0.7027587890625,-8234,294,-60,0,0,-1
185115242,0.04888916015625,0.7093505859375,0.02337646484375,-0.7027587890625,-8228,296,-66,0,-1,-1
185125229,0.04888916015625,0.7093505859375,0.02337646484375,-0.7027587890625,-8232,307,-62,0,0,-1
185135215,0.04888916015625,0.7093505859375,0.02337646484375,-0.7027587890625,-8238,297,-59,0,0,0
185145195,0.04888916015625,0.7093505859375,0.02337646484375,-0.7027587890625,-8221,294,-42,-1,-1,0
185155181,0.04888916015625,0.7093505859375,0.02337646484375,-0.7027587890625,-8225,296,-49,0,0,0
185165167,0.04888916015625,0.70941162109375,0.02337646484375,-0.7027587890625,-8218,295,-62,0,0,-1
185175148,0.04888916015625,0.70941162109375,0.02337646484375,-0.7027587890625,-8220,300,-65,0,-1,0
185185129,0.04888916015625,0.70941162109375,0.02337646484375,-0.70269775390625,-8223,295,-65,0,0,-1
185195113,0.04888916015625,0.70941162109375,0.02337646484375,-0.70269775390625,-8219,289,-62,0,-1,0
185205094,0.04888916015625,0.70941162109375,0.0234375,-0.70269775390625,-8219,281,-67,0,0,-1
185215081,0.04888916015625,0.7093505859375,0.0234375,-0.7027587890625,-8224,280,-65,0,-1,0
185225065,0.04888916015625,0.7093505859375,0.0234375,-0.7027587890625,-8232,281,-60,-1,0,0
185235043,0.04888916015625,0.7093505859375,0.02349853515625,-0.7027587890625,-8245,275,-53,0,0,-1
185245026,0.04888916015625,0.7093505859375,0.02349853515625,-0.7027587890625,-8243,280,-57,0,-1,-1
185255006,0.048828125,0.7093505859375,0.02349853515625,-0.7027587890625,-8231,276,-61,0,0,-1
185264988,0.04888916015625,0.7093505859375,0.02349853515625,-0.7027587890625,-8223,291,-57,-1,0,0
185274970,0.04888916015625,0.7093505859375,0.02349853515625,-0.7027587890625,-8224,297,-69,0,0,-1
185284955,0.04888916015625,0.70941162109375,0.02349853515625,-0.70269775390625,-8229,306,-65,0,0,-1
185294936,0.04888916015625,0.7093505859375,0.02349853515625,-0.7027587890625,-8225,306,-45,0,-1,-1
185304918,0.048828125,0.7093505859375,0.02349853515625,-0.7027587890625,-8229,296,-56,0,-1,-1
185314906,0.048828125,0.7093505859375,0.02349853515625,-0.7027587890625,-8235,301,-57,0,0,-1
185324882,0.048828125,0.7093505859375,0.02349853515625,-0.7027587890625,-8230,311,-56,0,0,-1
185334863,0.048828125,0.70941162109375,0.02349853515625,-0.7027587890625,-8235,320,-50,0,0,-1
185344851,0.048828125,0.7093505859375,0.02349853515625,-0.7027587890625,-8230,322,-58,-1,-1,-1
185354848,0.048828125,0.7093505859375,0.02349853515625,-0.7027587890625,-8231,320,-67,0,-1,0
185364824,0.048828125,0.7093505859375,0.02349853515625,-0.7027587890625,-8222,326,-78,0,-1,-1
185374804,0.048828125,0.70941162109375,0.02349853515625,-0.7027587890625,-8213,321,-70,0,0,-1
185384790,0.048828125,0.7093505859375,0.02349853515625,-0.7027587890625,-8202,308,-68,0,-1,0
185394774,0.048828125,0.7093505859375,0.02349853515625,-0.7027587890625,-8211,296,-69,0,-1,-1
185404748,0.048828125,0.7093505859375,0.02349853515625,-0.7027587890625,-8211,299,-73,0,-1,-1
185414734,0.04876708984375,0.7093505859375,0.02349853515625,-0.7027587890625,-8220,295,-76,0,0,-1
185424725,0.04876708984375,0.7093505859375,0.0235595703125,-0.7027587890625,-8206,297,-69,0,-1,0
185434705,0.04876708984375,0.7093505859375,0.0235595703125,-0.7027587890625,-8211,297,-64,0,0,-1
185444685,0.04876708984375,0.7093505859375,0.0235595703125,-0.7027587890625,-8213,293,-62,0,-1,-1
185454670,0.04876708984375,0.7093505859375,0.0235595703125,-0.7027587890625,-8220,294,-72,0,-1,-1
185464659,0.04876708984375,0.7093505859375,0.0235595703125,-0.7027587890625,-8226,291,-71,0,-1,0
185474644,0.04876708984375,0.7093505859375,0.0235595703125,-0.7027587890625,-8221,299,-66,0,0,-1
185484630,0.04876708984375,0.7093505859375,0.0235595703125,-0.7027587890625,-8219,289,-63,0,-1,0
185494615,0.04876708984375,0.7093505859375,0.0235595703125,-0.7027587890625,-8223,298,-76,-1,-1,-1
185504598,0.04876708984375,0.70941162109375,0.0235595703125,-0.70269775390625,-8225,296,-78,0,0,0
185514579,0.04876708984375,0.7093505859375,0.0235595703125,-0.7027587890625,-8225,290,-65,0,-1,-1
185524549,0.04876708984375,0.7093505859375,0.0235595703125,-0.7027587890625,-8233,289,-59,0,0,-1
185534541,0.0487060546875,0.7093505859375,0.0235595703125,-0.7027587890625,-8229,285,-59,0,-1,-1
185544517,0.04876708984375,0.7093505859375,0.0235595703125,-0.7027587890625,-8230,292,-59,0,-1,0
185554496,0.04876708984375,0.7093505859375,0.02362060546875,-0.7027587890625,-8228,289,-65,-1,-1,-1
185564480,0.0487060546875,0.7093505859375,0.02362060546875,-0.7027587890625,-8227,286,-62,0,0,-1
185574475,0.0487060546875,0.7093505859375,0.02362060546875,-0.7027587890625,-8235,290,-57,0,-1,0
185584446,0.0487060546875,0.7093505859375,0.02362060546875,-0.70281982421875,-8221,290,-52,0,-1,-1
185594430,0.0487060546875,0.7093505859375,0.02362060546875,-0.70281982421875,-8219,300,-58,0,0,-1
185604418,0.0487060546875,0.7093505859375,0.02362060546875,-0.70281982421875,-8214,296,-65,0,-1,-1
185614405,0.0487060546875,0.70928955078125,0.02362060546875,-0.70281982421875,-8215,297,-69,0,-1,0
185624377,0.04876708984375,0.70928955078125,0.0235595703125,-0.70281982421875,-8221,309,-61,0,-1,0
185634371,0.04876708984375,0.70928955078125,0.0235595703125,-0.70281982421875,-8219,310,-61,0,-1,-1
185644349,0.04876708984375,0.70928955078125,0.0235595703125,-0.70281982421875,-8230,302,-60,0,-1,0
185654326,0.04876708984375,0.70928955078125,0.0235595703125,-0.70281982421875,-8232,309,-60,-1,-1,-1
185664313,0.0487060546875,0.70928955078125,0.0235595703125,-0.70281982421875,-8228,314,-62,0,0,-1
185674302,0.04876708984375,0.70928955078125,0.0235595703125,-0.70281982421875,-8229,321,-73,0,0,0
185684276,0.048828125,0.70928955078125,0.0235595703125,-0.70281982421875,-8237,318,-63,-1,-1,0
185694266,0.04876708984375,0.70928955078125,0.02349853515625,-0.70281982421875,-8233,320,-64,0,-1,-1
185704248,0.04876708984375,0.7093505859375,0.02349853515625,-0.70281982421875,-8223,317,-71,0,0,-1
185714230,0.048828125,0.7093505859375,0.02349853515625,-0.7027587890625,-8235,314,-74,0,0,0
185724208,0.04876708984375,0.7093505859375,0.02349853515625,-0.7027587890625,-8237,306,-70,-1,0,-1
185734191,0.04876708984375,0.7093505859375,0.02349853515625,-0.7027587890625,-8245,310,-88,0,0,0
185744186,0.04876708984375,0.7093505859375,0.02349853515625,-0.7027587890625,-8260,319,-78,0,0,-1
185754158,0.04876708984375,0.7093505859375,0.02349853515625,-0.7027587890625,-8250,319,-81,0,0,-1
185764138,0.04876708984375,0.70941162109375,0.02349853515625,-0.7027587890625,-8222,310,-69,0,0,-1
185774124,0.04876708984375,0.70941162109375,0.02349853515625,-0.7027587890625,-8230,320,-77,0,-1,-1
185784109,0.04876708984375,0.70941162109375,0.02349853515625,-0.7027587890625,-8229,318,-68,0,0,-1
185794104,0.04876708984375,0.70941162109375,0.02349853515625,-0.70269775390625,-8236,314,-63,0,0,0
