subject,Still with noise
arm,neither
label,0
hz,100.16942575950348
time,5.450765

timestamp_us,q0,q1,q2,q3,ax,ay,az,gx,gy,gz
194409475,-0.20758056640625,0.537841796875,0.466064453125,-0.67108154296875,-4282,-6893,-130,0,-1,-1
194419459,-0.20758056640625,0.537841796875,0.466064453125,-0.67108154296875,-4289,-6893,-123,-1,0,-1
194429439,-0.2076416015625,0.53790283203125,0.46612548828125,-0.67108154296875,-4287,-6907,-129,-1,0,-1
194439430,-0.20758056640625,0.537841796875,0.46612548828125,-0.67108154296875,-4286,-6898,-119,0,-1,0
194449419,-0.20758056640625,0.537841796875,0.46612548828125,-0.67108154296875,-4295,-6922,-126,0,-1,0
194459400,-0.20758056640625,0.537841796875,0.466064453125,-0.67108154296875,-4299,-6913,-114,0,-1,0
194469385,-0.20758056640625,0.537841796875,0.466064453125,-0.67108154296875,-4302,-6900,-117,0,0,-1
194479362,-0.20751953125,0.537841796875,0.466064453125,-0.671142578125,-4302,-6901,-103,-1,-1,0
194489349,-0.20758056640625,0.537841796875,0.466064453125,-0.67108154296875,-4298,-6914,-107,0,0,-1
194499322,-0.20751953125,0.537841796875,0.466064453125,-0.671142578125,-4304,-6910,-107,0,-1,-1
194509312,-0.20751953125,0.537841796875,0.466064453125,-0.671142578125,-4303,-6898,-110,0,-1,0
194519290,-0.20745849609375,0.537841796875,0.466064453125,-0.671142578125,-4294,-6905,-99,-1,-1,0
194529279,-0.20751953125,0.537841796875,0.466064453125,-0.671142578125,-4289,-6904,-104,0,-1,0
194539263,-0.20751953125,0.537841796875,0.466064453125,-0.671142578125,-4291,-6897,-94,0,-1,0
194549243,-0.20751953125,0.53778076171875,0.466064453125,-0.67120361328125,-4288,-6909,-83,0,-1,-1
194559223,-0.20751953125,0.53778076171875,0.466064453125,-0.67120361328125,-4288,-6904,-99,0,0,-1
194569208,-0.20751953125,0.53778076171875,0.466064453125,-0.671142578125,-4292,-6906,-100,-1,-1,-1
194579198,-0.20758056640625,0.53778076171875,0.466064453125,-0.671142578125,-4291,-6919,-114,0,0,-1
194589183,-0.20758056640625,0.53778076171875,0.466064453125,-0.671142578125,-4291,-6922,-114,0,0,-1
194599171,-0.20758056640625,0.53778076171875,0.466064453125,-0.67120361328125,-4297,-6903,-115,0,-1,0
194609136,-0.20758056640625,0.53778076171875,0.466064453125,-0.67120361328125,-4293,-6889,-108,0,-1,-1
194619122,-0.20758056640625,0.5377197265625,0.466064453125,-0.67120361328125,-4283,-6888,-109,0,0,-1
194629107,-0.20758056640625,0.53778076171875,0.466064453125,-0.67120361328125,-4284,-6885,-120,0,0,-1
194639097,-0.20758056640625,0.53778076171875,0.466064453125,-0.67120361328125,-4288,-6883,-122,0,-1,0
194649067,-0.20758056640625,0.5377197265625,0.46612548828125,-0.67120361328125,-4273,-6884,-119,-1,-1,-1
194659060,-0.20758056640625,0.5377197265625,0.46612548828125,-0.67120361328125,-4285,-6882,-127,0,-1,-1
194669044,-0.20751953125,0.5377197265625,0.46612548828125,-0.671142578125,-4284,-6879,-141,0,-1,0
194679019,-0.20751953125,0.53778076171875,0.46612548828125,-0.671142578125,-4294,-6883,-139,-1,-1,-1
194689008,-0.20751953125,0.5377197265625,0.46612548828125,-0.671142578125,-4292,-6890,-137,0,-1,0
194698986,-0.20751953125,0.5377197265625,0.46612548828125,-0.67120361328125,-4296,-6896,-134,0,-1,0
194708966,-0.20751953125,0.5377197265625,0.46612548828125,-0.67120361328125,-4294,-6907,-126,0,-1,0
194718958,-0.20751953125,0.5377197265625,0.46612548828125,-0.67120361328125,-4294,-6916,-118,-1,-1,-1
194728943,-0.20751953125,0.5377197265625,0.46612548828125,-0.67120361328125,-4295,-6907,-127,0,0,0
194738926,-0.20751953125,0.5377197265625,0.46612548828125,-0.671142578125,-4292,-6903,-120,-1,-1,0
194748903,-0.20751953125,0.5377197265625,0.4661865234375,-0.67120361328125,-4287,-6910,-111,-1,-1,0
194758889,-0.20751953125,0.5377197265625,0.4661865234375,-0.67120361328125,-4285,-6905,-109,0,0,-1
194768876,-0.20751953125,0.5377197265625,0.46612548828125,-0.67120361328125,-4299,-6900,-102,0,-1,0
194778859,-0.20751953125,0.5377197265625,0.46612548828125,-0.67120361328125,-4293,-6902,-103,0,-1,-1
194788839,-0.20751953125,0.5377197265625,0.4661865234375,-0.67120361328125,-4293,-6897,-103,0,-1,-1
194798828,-0.20751953125,0.53765869140625,0.4661865234375,-0.67120361328125,-4293,-6904,-102,0,0,-1
194808802,-0.20758056640625,0.53765869140625,0.4661865234375,-0.67120361328125,-4292,-6922,-103,0,0,-1
194818783,-0.20758056640625,0.53765869140625,0.4661865234375,-0.67120361328125,-4303,-6910,-102,0,-1,-1
194828766,-0.20758056640625,0.53765869140625,0.4661865234375,-0.67120361328125,-4307,-6904,-107,0,-1,-1
194838742,-0.20758056640625,0.53765869140625,0.4661865234375,-0.67120361328125,-4300,-6915,-112,0,-1,-1
194848736,-0.20758056640625,0.53765869140625,0.4661865234375,-0.67120361328125,-4296,-6913,-117,0,-1,0
194858725,-0.20758056640625,0.53765869140625,0.4661865234375,-0.67120361328125,-4298,-6908,-104,0,-1,0
194868696,-0.20758056640625,0.53765869140625,0.4661865234375,-0.67120361328125,-4294,-6912,-109,-1,-1,0
194878683,-0.20751953125,0.53765869140625,0.4661865234375,-0.67120361328125,-4294,-6908,-118,0,-1,-1
194888669,-0.20758056640625,0.53765869140625,0.4661865234375,-0.67120361328125,-4298,-6914,-114,0,-1,-1
194898659,-0.20758056640625,0.53759765625,0.4661865234375,-0.67120361328125,-4287,-6910,-116,0,0,-1
194908634,-0.20758056640625,0.53765869140625,0.4661865234375,-0.67120361328125,-4297,-6909,-127,0,0,-1
194918616,-0.20758056640625,0.53765869140625,0.4661865234375,-0.67120361328125,-4303,-6907,-119,0,0,-1
194928611,-0.20758056640625,0.53765869140625,0.46624755859375,-0.67120361328125,-4296,-6905,-128,0,-1,-1
194938591,-0.20758056640625,0.53759765625,0.46624755859375,-0.67120361328125,-4294,-6905,-119,0,-1,-1
194948578,-0.2076416015625,0.53759765625,0.46624755859375,-0.67120361328125,-4292,-6907,-122,0,0,-1
194958540,-0.2076416015625,0.53759765625,0.46624755859375,-0.67120361328125,-4281,-6898,-118,0,0,-1
194968533,-0.2076416015625,0.53759765625,0.4661865234375,-0.67120361328125,-4281,-6899,-110,0,-1,0
194978516,-0.2076416015625,0.53759765625,0.4661865234375,-0.67120361328125,-4280,-6906,-115,0,0,0
194988496,-0.2076416015625,0.53759765625,0.46624755859375,-0.67120361328125,-4278,-6899,-123,-1,-1,-1
194998481,-0.2076416015625,0.53759765625,0.46624755859375,-0.67120361328125,-4286,-6900,-123,0,0,-1
195008465,-0.2076416015625,0.53759765625,0.46624755859375,-0.67120361328125,-4293,-6899,-127,-1,-1,0
195018451,-0.2076416015625,0.53759765625,0.46624755859375,-0.671142578125,-4301,-6912,-131,0,-1,0
195028434,-0.2076416015625,0.53759765625,0.46624755859375,-0.671142578125,-4304,-6914,-124,0,0,-1
195038421,-0.2076416015625,0.53759765625,0.46624755859375,-0.67120361328125,-4304,-6911,-120,0,-1,-1
195048405,-0.2076416015625,0.53759765625,0.46624755859375,-0.67120361328125,-4294,-6900,-116,0,-1,0
195058382,-0.2076416015625,0.53759765625,0.46624755859375,-0.67120361328125,-4288,-6896,-119,0,0,-1
195068361,-0.2076416015625,0.53759765625,0.4661865234375,-0.67120361328125,-4298,-6886,-108,0,0,-1
195078355,-0.2076416015625,0.53759765625,0.4661865234375,-0.67120361328125,-4296,-6907,-111,0,-1,-1
195088333,-0.2076416015625,0.53759765625,0.46624755859375,-0.67120361328125,-4297,-6911,-116,-1,0,0
195098317,-0.2076416015625,0.53765869140625,0.4661865234375,-0.671142578125,-4297,-6904,-121,0,0,0
195108302,-0.2076416015625,0.53765869140625,0.4661865234375,-0.671142578125,-4296,-6901,-111,0,0,0
195118276,-0.2076416015625,0.53765869140625,0.4661865234375,-0.67120361328125,-4298,-6899,-104,-1,-1,0
195128261,-0.2076416015625,0.53765869140625,0.4661865234375,-0.67120361328125,-4299,-6899,-120,0,-1,-1
195138243,-0.2076416015625,0.53765869140625,0.4661865234375,-0.67120361328125,-4290,-6909,-123,0,-1,0
195148225,-0.2076416015625,0.53765869140625,0.4661865234375,-0.671142578125,-4293,-6910,-116,0,0,-1
195158220,-0.2076416015625,0.53765869140625,0.4661865234375,-0.67120361328125,-4301,-6908,-113,0,-1,0
195168190,-0.20758056640625,0.53765869140625,0.4661865234375,-0.67120361328125,-4303,-6902,-114,0,-1,0
195178182,-0.20758056640625,0.53765869140625,0.4661865234375,-0.67120361328125,-4296,-6905,-110,0,-1,-1
195188164,-0.20758056640625,0.53759765625,0.46624755859375,-0.67120361328125,-4292,-6897,-111,0,-1,-1
195198146,-0.2076416015625,0.53759765625,0.4661865234375,-0.67120361328125,-4287,-6895,-113,0,0,-1
195208130,-0.20758056640625,0.53759765625,0.4661865234375,-0.67120361328125,-4291,-6903,-119,-1,-1,0
195218115,-0.2076416015625,0.53759765625,0.46624755859375,-0.67120361328125,-4278,-6906,-126,0,-1,-1
195228091,-0.2076416015625,0.53759765625,0.46624755859375,-0.67120361328125,-4283,-6902,-112,0,0,-1
195238070,-0.20770263671875,0.53759765625,0.46624755859375,-0.671142578125,-4288,-6910,-116,0,0,-1
195248063,-0.2076416015625,0.53759765625,0.46624755859375,-0.67120361328125,-4293,-6910,-117,0,-1,0
195258042,-0.2076416015625,0.53759765625,0.46624755859375,-0.67120361328125,-4287,-6909,-119,-1,-1,0
195268032,-0.2076416015625,0.53759765625,0.46624755859375,-0.671142578125,-4282,-6907,-115,0,0,0
195278007,-0.2076416015625,0.53759765625,0.46624755859375,-0.671142578125,-4286,-6907,-106,-1,-1,-1
195288000,-0.2076416015625,0.53759765625,0.46624755859375,-0.67120361328125,-4291,-6911,-103,0,-1,0
195297973,-0.2076416015625,0.53759765625,0.46624755859375,-0.67120361328125,-4286,-6917,-105,0,-1,0
195307956,-0.2076416015625,0.53759765625,0.46624755859375,-0.67120361328125,-4288,-6898,-104,0,-1,0
195317944,-0.2076416015625,0.53759765625,0.46624755859375,-0.67120361328125,-4282,-6903,-115,0,0,-1
195327924,-0.2076416015625,0.53759765625,0.46624755859375,-0.671142578125,-4283,-6910,-118,0,-1,-1
195337917,-0.2076416015625,0.53759765625,0.46624755859375,-0.671142578125,-4279,-6908,-118,0,-1,0
195347889,-0.2076416015625,0.53759765625,0.46630859375,-0.671142578125,-4277,-6918,-126,0,-1,0
195357873,-0.20758056640625,0.53759765625,0.46630859375,-0.671142578125,-4286,-6907,-128,-1,-1,0
195367859,-0.20758056640625,0.53759765625,0.46630859375,-0.671142578125,-4291,-6912,-125,0,-1,0
195377852,-0.20758056640625,0.53759765625,0.46630859375,-0.67120361328125,-4288,-6916,-121,0,-1,0
195387829,-0.20758056640625,0.53759765625,0.46630859375,-0.671142578125,-4281,-6917,-134,-1,0,-1
195397802,-0.2076416015625,0.53759765625,0.46630859375,-0.671142578125,-4285,-6909,-131,0,0,-1
195407783,-0.2076416015625,0.53759765625,0.46636962890625,-0.671142578125,-4296,-6918,-124,-1,0,-1
195417774,-0.2076416015625,0.53759765625,0.46636962890625,-0.671142578125,-4297,-6917,-121,0,-1,-1
195427750,-0.2076416015625,0.53753662109375,0.46636962890625,-0.671142578125,-4296,-6919,-122,0,-1,-1
195437736,-0.2076416015625,0.53753662109375,0.46636962890625,-0.67108154296875,-4289,-6917,-119,0,0,-1
195447722,-0.2076416015625,0.53753662109375,0.46636962890625,-0.671142578125,-4288,-6916,-111,-1,-1,0
195457704,-0.2076416015625,0.53753662109375,0.46636962890625,-0.67108154296875,-4285,-6920,-118,0,0,0
195467693,-0.2076416015625,0.53759765625,0.46636962890625,-0.67108154296875,-4285,-6912,-112,0,0,0
195477670,-0.20770263671875,0.53753662109375,0.46636962890625,-0.67108154296875,-4287,-6908,-106,0,-1,-1
195487656,-0.2076416015625,0.53759765625,0.46636962890625,-0.67108154296875,-4291,-6899,-111,0,-1,0
195497636,-0.20758056640625,0.53759765625,0.46636962890625,-0.671142578125,-4303,-6894,-114,-1,-1,0
195507630,-0.20758056640625,0.53759765625,0.46636962890625,-0.671142578125,-4302,-6896,-108,0,0,0
195517614,-0.20758056640625,0.53759765625,0.46630859375,-0.671142578125,-4307,-6906,-99,0,0,0
195527598,-0.20758056640625,0.53759765625,0.46630859375,-0.671142578125,-4304,-6902,-97,-1,-1,-1
195537581,-0.20758056640625,0.53759765625,0.46630859375,-0.671142578125,-4303,-6907,-114,0,-1,-1
195547549,-0.20758056640625,0.53759765625,0.46630859375,-0.671142578125,-4292,-6897,-121,0,-1,-1
195557530,-0.20758056640625,0.53759765625,0.46630859375,-0.671142578125,-4286,-6901,-122,0,0,-1
195567517,-0.20758056640625,0.53759765625,0.46630859375,-0.671142578125,-4287,-6895,-117,0,-1,-1
195577496,-0.20758056640625,0.53753662109375,0.46636962890625,-0.671142578125,-4294,-6896,-118,0,-1,-1
195587483,-0.20758056640625,0.53753662109375,0.46630859375,-0.671142578125,-4292,-6895,-120,0,0,-1
195597475,-0.20758056640625,0.53759765625,0.46636962890625,-0.671142578125,-4291,-6901,-130,0,-1,0
195607444,-0.20758056640625,0.53759765625,0.46636962890625,-0.671142578125,-4294,-6899,-130,-1,-1,0
195617426,-0.20751953125,0.53759765625,0.46636962890625,-0.671142578125,-4283,-6892,-127,-1,-1,-1
195627420,-0.20758056640625,0.53759765625,0.46636962890625,-0.671142578125,-4287,-6892,-134,0,0,-1
195637408,-0.20758056640625,0.53759765625,0.46636962890625,-0.671142578125,-4285,-6883,-131,0,-1,0
195647382,-0.20758056640625,0.53759765625,0.46636962890625,-0.671142578125,-4291,-6896,-126,0,-1,0
195657364,-0.20758056640625,0.53759765625,0.46630859375,-0.671142578125,-4286,-6895,-116,0,0,-1
195667349,-0.20758056640625,0.53759765625,0.46630859375,-0.671142578125,-4298,-6908,-122,0,-1,-1
195677328,-0.20758056640625,0.53759765625,0.46636962890625,-0.671142578125,-4297,-6919,-126,0,-1,-1
195687311,-0.20758056640625,0.53753662109375,0.46636962890625,-0.671142578125,-4290,-6919,-124,0,-1,-1
195697302,-0.20758056640625,0.53753662109375,0.46636962890625,-0.671142578125,-4301,-6907,-123,0,-1,0
195707274,-0.20751953125,0.53759765625,0.46636962890625,-0.671142578125,-4295,-6911,-128,-1,-1,0
195717261,-0.20758056640625,0.53753662109375,0.46636962890625,-0.671142578125,-4301,-6914,-128,0,-1,-1
195727246,-0.20751953125,0.53759765625,0.46636962890625,-0.671142578125,-4292,-6910,-122,0,-1,0
195737234,-0.20758056640625,0.53753662109375,0.46636962890625,-0.671142578125,-4293,-6918,-120,0,-1,-1
195747212,-0.20758056640625,0.53753662109375,0.46636962890625,-0.671142578125,-4310,-6915,-126,0,0,-1
195757195,-0.2076416015625,0.53753662109375,0.46636962890625,-0.671142578125,-4302,-6907,-117,0,0,-1
195767179,-0.2076416015625,0.53753662109375,0.46636962890625,-0.671142578125,-4297,-6916,-111,0,-1,-1
195777172,-0.2076416015625,0.53753662109375,0.46636962890625,-0.671142578125,-4299,-6916,-115,0,-1,0
195787144,-0.2076416015625,0.53753662109375,0.46636962890625,-0.671142578125,-4303,-6909,-114,0,-1,-1
195797130,-0.20758056640625,0.53753662109375,0.46636962890625,-0.671142578125,-4306,-6918,-125,0,-1,0
195807115,-0.20758056640625,0.53753662109375,0.46636962890625,-0.671142578125,-4316,-6917,-128,0,-1,-1
195817102,-0.20758056640625,0.53753662109375,0.46636962890625,-0.671142578125,-4307,-6911,-129,0,0,0
195827080,-0.20758056640625,0.53753662109375,0.46636962890625,-0.671142578125,-4314,-6927,-125,-1,-1,-1
195837060,-0.2076416015625,0.53753662109375,0.46636962890625,-0.671142578125,-4315,-6922,-122,0,0,-1
195847044,-0.2076416015625,0.53753662109375,0.46636962890625,-0.671142578125,-4293,-6903,-115,-1,-1,0
195857034,-0.2076416015625,0.53753662109375,0.46636962890625,-0.671142578125,-4287,-6909,-117,0,0,0
195867006,-0.2076416015625,0.53753662109375,0.46636962890625,-0.67108154296875,-4281,-6905,-112,-1,0,-1
195876996,-0.20770263671875,0.53759765625,0.46636962890625,-0.67108154296875,-4284,-6904,-125,0,0,0
195886972,-0.2076416015625,0.53759765625,0.46636962890625,-0.67108154296875,-4297,-6895,-127,-1,0,-1
195896958,-0.2076416015625,0.53759765625,0.46636962890625,-0.67108154296875,-4301,-6889,-129,0,-1,-1
195906937,-0.20770263671875,0.53759765625,0.46636962890625,-0.67108154296875,-4291,-6884,-122,0,0,-1
195916931,-0.20770263671875,0.53759765625,0.46636962890625,-0.67108154296875,-4287,-6899,-119,0,-1,0
195926903,-0.20770263671875,0.53759765625,0.46636962890625,-0.67108154296875,-4276,-6905,-115,-1,-1,0
195936887,-0.20770263671875,0.53759765625,0.46636962890625,-0.67108154296875,-4273,-6908,-113,0,-1,0
195946878,-0.20770263671875,0.53759765625,0.46636962890625,-0.67108154296875,-4286,-6900,-112,0,0,-1
195956859,-0.20770263671875,0.53759765625,0.46636962890625,-0.67108154296875,-4291,-6906,-115,0,0,-1
195966850,-0.20770263671875,0.53759765625,0.46636962890625,-0.67108154296875,-4292,-6906,-121,0,-1,0
195976824,-0.20770263671875,0.53759765625,0.46636962890625,-0.67108154296875,-4288,-6904,-105,0,-1,0
195986817,-0.20770263671875,0.53759765625,0.46636962890625,-0.67108154296875,-4282,-6908,-115,0,0,0
195996790,-0.2076416015625,0.53759765625,0.46636962890625,-0.67108154296875,-4291,-6907,-117,0,-1,0
196006777,-0.20770263671875,0.53759765625,0.46636962890625,-0.67108154296875,-4278,-6893,-121,0,-1,-1
196016759,-0.20770263671875,0.53759765625,0.46636962890625,-0.67108154296875,-4289,-6897,-105,0,-1,-1
196026739,-0.20770263671875,0.53759765625,0.46636962890625,-0.67108154296875,-4285,-6901,-105,0,-1,0
196036728,-0.20770263671875,0.53759765625,0.46630859375,-0.671142578125,-4289,-6888,-103,0,0,-1
196046708,-0.20770263671875,0.53759765625,0.46630859375,-0.67108154296875,-4294,-6904,-116,-1,0,0
196056687,-0.20770263671875,0.53759765625,0.46630859375,-0.67108154296875,-4289,-6896,-117,0,0,-1
196066667,-0.20770263671875,0.53759765625,0.46636962890625,-0.67108154296875,-4302,-6903,-119,0,-1,-1
196076661,-0.20770263671875,0.53759765625,0.46636962890625,-0.67108154296875,-4300,-6902,-111,0,0,-1
196086652,-0.20770263671875,0.53759765625,0.46630859375,-0.67108154296875,-4308,-6901,-101,0,-1,0
196096631,-0.20770263671875,0.53759765625,0.46630859375,-0.67108154296875,-4305,-6897,-107,0,-1,-1
196106619,-0.207763671875,0.53759765625,0.46630859375,-0.67108154296875,-4291,-6908,-94,0,0,-1
196116606,-0.207763671875,0.53759765625,0.46636962890625,-0.67108154296875,-4286,-6913,-99,-1,0,-1
196126578,-0.207763671875,0.53759765625,0.46636962890625,-0.67108154296875,-4288,-6902,-107,0,-1,-1
196136563,-0.207763671875,0.53753662109375,0.46636962890625,-0.67108154296875,-4286,-6901,-106,0,-1,-1
196146531,-0.20770263671875,0.53753662109375,0.46636962890625,-0.67108154296875,-4282,-6914,-110,-1,-1,0
196156518,-0.20770263671875,0.53753662109375,0.46636962890625,-0.67108154296875,-4291,-6911,-122,0,-1,-1
196166494,-0.20770263671875,0.53753662109375,0.4664306640625,-0.67108154296875,-4291,-6920,-130,-1,-1,-1
196176491,-0.20770263671875,0.53753662109375,0.4664306640625,-0.67108154296875,-4288,-6918,-119,0,0,0
196186469,-0.20770263671875,0.53753662109375,0.4664306640625,-0.67108154296875,-4295,-6916,-109,0,0,-1
196196453,-0.20770263671875,0.53759765625,0.4664306640625,-0.67108154296875,-4278,-6911,-112,0,0,0
196206431,-0.20770263671875,0.53753662109375,0.4664306640625,-0.67108154296875,-4284,-6906,-100,-1,0,-1
196216419,-0.20770263671875,0.53759765625,0.4664306640625,-0.6710205078125,-4283,-6914,-121,0,0,0
196226401,-0.20770263671875,0.53759765625,0.4664306640625,-0.6710205078125,-4275,-6909,-117,-1,0,0
196236382,-0.207763671875,0.53759765625,0.4664306640625,-0.6710205078125,-4268,-6910,-122,0,0,-1
196246361,-0.20770263671875,0.53759765625,0.46649169921875,-0.6710205078125,-4283,-6901,-125,0,-1,-1
196256353,-0.20770263671875,0.53759765625,0.46649169921875,-0.6710205078125,-4281,-6903,-128,0,-1,0
196266331,-0.20770263671875,0.53759765625,0.46649169921875,-0.67095947265625,-4286,-6901,-116,-1,-1,-1
196276315,-0.20770263671875,0.53759765625,0.4664306640625,-0.6710205078125,-4299,-6900,-119,0,0,-1
196286302,-0.20770263671875,0.53759765625,0.4664306640625,-0.6710205078125,-4294,-6892,-119,0,-1,0
196296280,-0.20770263671875,0.53759765625,0.46649169921875,-0.6710205078125,-4296,-6900,-125,-1,-1,-1
196306267,-0.20770263671875,0.53759765625,0.46649169921875,-0.6710205078125,-4297,-6902,-124,0,-1,-1
196316246,-0.2076416015625,0.53759765625,0.46649169921875,-0.6710205078125,-4294,-6893,-117,0,-1,0
196326236,-0.20770263671875,0.53759765625,0.4664306640625,-0.6710205078125,-4296,-6899,-124,0,0,-1
196336208,-0.20770263671875,0.53759765625,0.4664306640625,-0.6710205078125,-4292,-6887,-116,0,0,-1
196346196,-0.20770263671875,0.53759765625,0.4664306640625,-0.6710205078125,-4280,-6886,-110,0,0,0
196356192,-0.20770263671875,0.53759765625,0.4664306640625,-0.6710205078125,-4289,-6882,-122,0,-1,-1
196366166,-0.20770263671875,0.53759765625,0.4664306640625,-0.6710205078125,-4286,-6892,-121,0,0,-1
196376144,-0.20770263671875,0.53765869140625,0.4664306640625,-0.67095947265625,-4292,-6895,-120,0,0,-1
196386131,-0.20770263671875,0.53765869140625,0.4664306640625,-0.67095947265625,-4295,-6888,-127,0,0,0
196396112,-0.20770263671875,0.53765869140625,0.4664306640625,-0.67095947265625,-4289,-6890,-127,-1,0,-1
196406094,-0.20770263671875,0.53765869140625,0.4664306640625,-0.67095947265625,-4280,-6885,-128,-1,-1,-1
196416072,-0.20770263671875,0.53765869140625,0.4664306640625,-0.67095947265625,-4274,-6889,-117,0,-1,-1
196426060,-0.20770263671875,0.53765869140625,0.4664306640625,-0.67095947265625,-4283,-6883,-118,0,-1,0
196436042,-0.20770263671875,0.53765869140625,0.4664306640625,-0.67095947265625,-4270,-6892,-117,-1,0,0
196446022,-0.207763671875,0.53765869140625,0.46649169921875,-0.67095947265625,-4270,-6902,-118,-1,0,-1
196456012,-0.207763671875,0.53765869140625,0.4664306640625,-0.67095947265625,-4269,-6907,-116,0,-1,0
196466001,-0.207763671875,0.53765869140625,0.4664306640625,-0.67095947265625,-4277,-6905,-113,0,-1,0
196475972,-0.207763671875,0.53765869140625,0.4664306640625,-0.67095947265625,-4283,-6911,-111,0,-1,0
196485960,-0.207763671875,0.53765869140625,0.4664306640625,-0.67095947265625,-4293,-6904,-106,-1,0,-1
196495935,-0.207763671875,0.53765869140625,0.4664306640625,-0.67095947265625,-4284,-6902,-110,-1,0,-1
196505935,-0.207763671875,0.53765869140625,0.4664306640625,-0.67095947265625,-4289,-6906,-111,0,0,0
196515910,-0.207763671875,0.53765869140625,0.4664306640625,-0.67095947265625,-4301,-6906,-108,-1,-1,-1
196525896,-0.207763671875,0.53765869140625,0.46636962890625,-0.67095947265625,-4302,-6907,-106,0,0,0
196535880,-0.207763671875,0.53765869140625,0.46636962890625,-0.6710205078125,-4305,-6899,-90,-1,-1,0
196545857,-0.207763671875,0.53765869140625,0.46636962890625,-0.6710205078125,-4306,-6899,-93,-1,-1,-1
196555845,-0.20770263671875,0.53765869140625,0.46636962890625,-0.6710205078125,-4298,-6891,-104,0,-1,0
196565840,-0.20770263671875,0.53765869140625,0.46636962890625,-0.6710205078125,-4303,-6913,-105,-1,-1,0
196575804,-0.20770263671875,0.53765869140625,0.46636962890625,-0.6710205078125,-4300,-6908,-104,0,-1,0
196585793,-0.20770263671875,0.53765869140625,0.46636962890625,-0.6710205078125,-4308,-6907,-98,-1,-1,-1
196595774,-0.20770263671875,0.53765869140625,0.46636962890625,-0.6710205078125,-4305,-6910,-114,0,0,-1
196605756,-0.20770263671875,0.53765869140625,0.46636962890625,-0.6710205078125,-4291,-6910,-108,0,-1,-1
196615742,-0.207763671875,0.53765869140625,0.46636962890625,-0.6710205078125,-4280,-6918,-116,0,0,-1
196625729,-0.207763671875,0.53765869140625,0.46636962890625,-0.6710205078125,-4284,-6912,-111,0,0,0
196635703,-0.207763671875,0.53765869140625,0.46636962890625,-0.6710205078125,-4291,-6901,-106,-1,-1,-1
196645685,-0.207763671875,0.53765869140625,0.46636962890625,-0.6710205078125,-4295,-6909,-115,0,-1,-1
196655680,-0.207763671875,0.53765869140625,0.46636962890625,-0.6710205078125,-4291,-6906,-118,0,0,0
196665660,-0.207763671875,0.53765869140625,0.46636962890625,-0.6710205078125,-4283,-6901,-118,-1,-1,-1
196675646,-0.207763671875,0.53765869140625,0.46636962890625,-0.6710205078125,-4277,-6902,-120,0,-1,0
196685630,-0.207763671875,0.53765869140625,0.46636962890625,-0.6710205078125,-4284,-6908,-103,-1,0,0
196695615,-0.207763671875,0.53765869140625,0.46636962890625,-0.6710205078125,-4284,-6913,-98,0,0,0
196705601,-0.207763671875,0.53765869140625,0.46636962890625,-0.6710205078125,-4291,-6911,-101,0,-1,-1
196715598,-0.207763671875,0.53765869140625,0.46636962890625,-0.6710205078125,-4305,-6914,-106,0,-1,-1
196725562,-0.207763671875,0.53765869140625,0.46636962890625,-0.6710205078125,-4300,-6905,-117,0,0,-1
196735542,-0.20770263671875,0.53765869140625,0.46636962890625,-0.6710205078125,-4306,-6890,-117,0,0,0
196745522,-0.207763671875,0.53765869140625,0.46636962890625,-0.6710205078125,-4300,-6897,-111,0,0,-1
196755503,-0.207763671875,0.53765869140625,0.46636962890625,-0.6710205078125,-4301,-6898,-109,0,-1,-1
196765479,-0.207763671875,0.53765869140625,0.46636962890625,-0.6710205078125,-4305,-6896,-112,0,-1,-1
196775475,-0.207763671875,0.53765869140625,0.46636962890625,-0.6710205078125,-4290,-6901,-103,-1,-1,-1
196785451,-0.207763671875,0.53765869140625,0.46630859375,-0.6710205078125,-4289,-6903,-108,0,-1,0
196795435,-0.207763671875,0.53765869140625,0.46630859375,-0.67108154296875,-4286,-6900,-105,0,0,0
196805421,-0.207763671875,0.53765869140625,0.46636962890625,-0.6710205078125,-4284,-6901,-108,-1,-1,0
196815411,-0.207763671875,0.53765869140625,0.46630859375,-0.67108154296875,-4282,-6907,-109,0,-1,0
196825390,-0.207763671875,0.53765869140625,0.46630859375,-0.67108154296875,-4283,-6904,-114,0,-1,0
196835369,-0.20770263671875,0.53765869140625,0.46630859375,-0.67108154296875,-4283,-6908,-116,-1,0,0
196845346,-0.20770263671875,0.53765869140625,0.46630859375,-0.67108154296875,-4292,-6903,-118,-1,-1,0
196855336,-0.20770263671875,0.53765869140625,0.46624755859375,-0.67108154296875,-4291,-6908,-109,0,-1,0
196865320,-0.20770263671875,0.53765869140625,0.46624755859375,-0.67108154296875,-4295,-6914,-106,0,-1,-1
196875305,-0.20770263671875,0.53765869140625,0.46624755859375,-0.67108154296875,-4301,-6914,-108,0,0,0
196885281,-0.2076416015625,0.53765869140625,0.46624755859375,-0.67108154296875,-4301,-6919,-106,-1,-1,0
196895262,-0.2076416015625,0.53765869140625,0.46624755859375,-0.67108154296875,-4293,-6907,-111,0,-1,0
196905256,-0.2076416015625,0.53765869140625,0.46624755859375,-0.671142578125,-4298,-6917,-107,0,-1,-1
196915238,-0.2076416015625,0.53765869140625,0.46624755859375,-0.671142578125,-4307,-6920,-117,0,-1,0
196925218,-0.2076416015625,0.5377197265625,0.46624755859375,-0.67108154296875,-4319,-6909,-109,0,0,-1
196935194,-0.2076416015625,0.5377197265625,0.46624755859375,-0.67108154296875,-4320,-6903,-107,0,0,-1
196945194,-0.2076416015625,0.5377197265625,0.46624755859375,-0.671142578125,-4316,-6902,-105,0,-1,0
196955167,-0.2076416015625,0.53765869140625,0.46624755859375,-0.671142578125,-4310,-6900,-101,0,-1,-1
196965149,-0.20770263671875,0.53765869140625,0.4661865234375,-0.671142578125,-4291,-6899,-97,0,0,-1
196975131,-0.20770263671875,0.53765869140625,0.46624755859375,-0.671142578125,-4291,-6910,-104,-1,-1,0
196985110,-0.20770263671875,0.53765869140625,0.46624755859375,-0.671142578125,-4281,-6913,-112,0,-1,0
196995097,-0.20770263671875,0.53765869140625,0.46624755859375,-0.671142578125,-4280,-6916,-111,0,-1,-1
197005079,-0.20770263671875,0.53759765625,0.46624755859375,-0.671142578125,-4283,-6921,-118,0,-1,0
197015062,-0.20770263671875,0.53759765625,0.46624755859375,-0.671142578125,-4285,-6914,-113,0,0,-1
197025048,-0.20770263671875,0.53759765625,0.46624755859375,-0.671142578125,-4285,-6919,-116,-1,-1,0
197035032,-0.20770263671875,0.53765869140625,0.46624755859375,-0.671142578125,-4290,-6914,-121,0,0,-1
197045019,-0.20770263671875,0.53759765625,0.46624755859375,-0.671142578125,-4278,-6911,-121,0,-1,0
197054989,-0.20770263671875,0.53759765625,0.46624755859375,-0.671142578125,-4279,-6909,-112,0,-1,0
197064979,-0.20770263671875,0.53759765625,0.46624755859375,-0.671142578125,-4293,-6917,-119,0,-1,0
197074956,-0.2076416015625,0.53759765625,0.46624755859375,-0.671142578125,-4297,-6916,-112,-1,-1,0
197084943,-0.2076416015625,0.53759765625,0.46624755859375,-0.671142578125,-4290,-6914,-117,0,-1,0
197094930,-0.2076416015625,0.53759765625,0.46630859375,-0.671142578125,-4276,-6910,-124,0,-1,-1
197104915,-0.2076416015625,0.53759765625,0.46630859375,-0.671142578125,-4283,-6902,-119,0,-1,0
197114897,-0.2076416015625,0.53759765625,0.46624755859375,-0.671142578125,-4287,-6897,-115,0,0,-1
197124875,-0.2076416015625,0.53759765625,0.46624755859375,-0.671142578125,-4282,-6908,-121,-1,0,0
197134855,-0.2076416015625,0.53759765625,0.46624755859375,-0.671142578125,-4280,-6898,-112,0,0,0
197144846,-0.2076416015625,0.53759765625,0.46624755859375,-0.671142578125,-4286,-6904,-105,0,-1,-1
197154838,-0.2076416015625,0.53759765625,0.46624755859375,-0.671142578125,-4283,-6895,-112,0,-1,0
197164820,-0.2076416015625,0.53759765625,0.46624755859375,-0.671142578125,-4279,-6891,-118,0,-1,0
197174803,-0.2076416015625,0.53759765625,0.46624755859375,-0.671142578125,-4279,-6890,-124,0,0,0
197184776,-0.20758056640625,0.53765869140625,0.46624755859375,-0.671142578125,-4280,-6883,-103,-1,0,0
197194761,-0.20758056640625,0.53765869140625,0.46624755859375,-0.671142578125,-4281,-6887,-111,0,-1,-1
197204741,-0.20758056640625,0.53765869140625,0.46624755859375,-0.67120361328125,-4288,-6891,-117,0,-1,0
197214732,-0.20758056640625,0.53765869140625,0.46624755859375,-0.67120361328125,-4297,-6890,-120,0,-1,0
197224706,-0.20758056640625,0.53765869140625,0.46624755859375,-0.671142578125,-4296,-6897,-123,-1,0,0
197234686,-0.20758056640625,0.53765869140625,0.46624755859375,-0.671142578125,-4293,-6900,-115,-1,-1,-1
197244680,-0.20758056640625,0.53759765625,0.46624755859375,-0.67120361328125,-4290,-6910,-115,0,-1,0
197254667,-0.20758056640625,0.53759765625,0.46624755859375,-0.671142578125,-4289,-6920,-104,0,0,-1
197264646,-0.20758056640625,0.53759765625,0.46624755859375,-0.671142578125,-4293,-6911,-104,0,0,-1
197274630,-0.2076416015625,0.53759765625,0.46624755859375,-0.67120361328125,-4279,-6904,-93,-1,-1,-1
197284618,-0.2076416015625,0.53759765625,0.46624755859375,-0.67120361328125,-4281,-6903,-103,0,-1,0
197294598,-0.2076416015625,0.53759765625,0.46624755859375,-0.67120361328125,-4285,-6907,-110,-1,-1,-1
197304584,-0.2076416015625,0.53759765625,0.46624755859375,-0.671142578125,-4288,-6893,-110,0,0,-1
197314553,-0.2076416015625,0.53759765625,0.46624755859375,-0.67120361328125,-4289,-6886,-100,0,0,-1
197324537,-0.2076416015625,0.53759765625,0.46624755859375,-0.67120361328125,-4300,-6882,-95,0,0,-1
197334522,-0.2076416015625,0.53759765625,0.46624755859375,-0.671142578125,-4301,-6888,-103,0,-1,-1
197344497,-0.20770263671875,0.53753662109375,0.46630859375,-0.67120361328125,-4294,-6907,-109,-1,-1,-1
197354489,-0.2076416015625,0.53753662109375,0.46630859375,-0.671142578125,-4291,-6900,-126,0,-1,0
197364476,-0.20770263671875,0.53753662109375,0.46630859375,-0.671142578125,-4276,-6904,-130,0,0,-1
197374455,-0.2076416015625,0.53753662109375,0.46636962890625,-0.671142578125,-4276,-6907,-131,-1,-1,0
197384441,-0.2076416015625,0.53759765625,0.46636962890625,-0.67108154296875,-4274,-6905,-125,0,0,-1
197394424,-0.2076416015625,0.53759765625,0.46636962890625,-0.671142578125,-4280,-6898,-118,0,-1,0
197404405,-0.2076416015625,0.53753662109375,0.46636962890625,-0.671142578125,-4271,-6908,-127,0,-1,-1
197414383,-0.2076416015625,0.53753662109375,0.46636962890625,-0.671142578125,-4277,-6903,-137,0,-1,-1
197424367,-0.20770263671875,0.53753662109375,0.46636962890625,-0.67108154296875,-4269,-6906,-133,0,0,-1
197434351,-0.20770263671875,0.53753662109375,0.46636962890625,-0.67108154296875,-4283,-6911,-117,-1,-1,-1
197444334,-0.20770263671875,0.53753662109375,0.46636962890625,-0.671142578125,-4279,-6916,-129,0,-1,0
197454320,-0.20770263671875,0.53753662109375,0.46636962890625,-0.67108154296875,-4286,-6915,-125,-1,0,-1
197464307,-0.20770263671875,0.53753662109375,0.46636962890625,-0.67108154296875,-4286,-6921,-129,0,-1,0
197474279,-0.2076416015625,0.53759765625,0.46636962890625,-0.67108154296875,-4296,-6916,-138,-1,-1,0
197484264,-0.2076416015625,0.53753662109375,0.4664306640625,-0.67108154296875,-4292,-6917,-143,-1,-1,-1
197494259,-0.2076416015625,0.53759765625,0.4664306640625,-0.67108154296875,-4285,-6914,-142,0,0,0
197504235,-0.2076416015625,0.53753662109375,0.4664306640625,-0.67108154296875,-4287,-6912,-134,0,-1,-1
197514221,-0.2076416015625,0.53753662109375,0.4664306640625,-0.67108154296875,-4287,-6909,-133,0,-1,0
197524192,-0.20758056640625,0.53753662109375,0.46649169921875,-0.67108154296875,-4294,-6901,-126,-1,-1,0
197534192,-0.20758056640625,0.53753662109375,0.46649169921875,-0.67108154296875,-4291,-6903,-120,0,-1,0
197544171,-0.20758056640625,0.53753662109375,0.46649169921875,-0.67108154296875,-4298,-6898,-114,-1,-1,-1
197554163,-0.20758056640625,0.53753662109375,0.4664306640625,-0.67108154296875,-4294,-6897,-118,0,-1,-1
197564138,-0.20758056640625,0.53753662109375,0.4664306640625,-0.67108154296875,-4294,-6899,-114,0,-1,0
197574110,-0.20751953125,0.53753662109375,0.4664306640625,-0.671142578125,-4289,-6894,-108,-1,-1,0
197584098,-0.20751953125,0.53753662109375,0.4664306640625,-0.671142578125,-4285,-6894,-111,0,-1,-1
197594086,-0.20751953125,0.53753662109375,0.4664306640625,-0.671142578125,-4287,-6894,-115,0,-1,0
197604070,-0.20751953125,0.53753662109375,0.4664306640625,-0.671142578125,-4286,-6895,-100,0,-1,0
197614052,-0.20751953125,0.53753662109375,0.4664306640625,-0.671142578125,-4282,-6896,-109,0,0,0
197624026,-0.20751953125,0.53753662109375,0.4664306640625,-0.671142578125,-4272,-6888,-104,-1,-1,0
197634010,-0.20751953125,0.53753662109375,0.4664306640625,-0.671142578125,-4281,-6891,-106,0,-1,-1
197643995,-0.20751953125,0.53753662109375,0.4664306640625,-0.671142578125,-4287,-6900,-114,0,-1,-1
197653989,-0.20751953125,0.53753662109375,0.4664306640625,-0.671142578125,-4282,-6896,-122,0,0,0
197663966,-0.20758056640625,0.53753662109375,0.4664306640625,-0.671142578125,-4284,-6895,-124,0,0,0
197673945,-0.20758056640625,0.53753662109375,0.4664306640625,-0.671142578125,-4288,-6897,-119,-1,-1,-1
197683931,-0.20758056640625,0.53753662109375,0.4664306640625,-0.671142578125,-4288,-6904,-119,0,-1,-1
197693915,-0.20758056640625,0.53753662109375,0.4664306640625,-0.671142578125,-4294,-6909,-130,0,-1,0
197703896,-0.20758056640625,0.53753662109375,0.4664306640625,-0.671142578125,-4286,-6907,-120,0,0,-1
197713878,-0.20751953125,0.53753662109375,0.46636962890625,-0.671142578125,-4297,-6901,-107,-1,0,0
197723859,-0.20751953125,0.53753662109375,0.46636962890625,-0.671142578125,-4308,-6902,-104,0,-1,0
197733853,-0.20751953125,0.53753662109375,0.46636962890625,-0.671142578125,-4307,-6912,-104,0,-1,-1
197743825,-0.20751953125,0.53753662109375,0.46636962890625,-0.671142578125,-4303,-6906,-111,0,-1,-1
197753819,-0.20751953125,0.53753662109375,0.4664306640625,-0.67120361328125,-4295,-6904,-105,0,-1,0
197763801,-0.20751953125,0.53753662109375,0.4664306640625,-0.67120361328125,-4287,-6905,-112,0,0,-1
197773779,-0.20751953125,0.53753662109375,0.4664306640625,-0.671142578125,-4282,-6911,-113,0,0,0
197783763,-0.20751953125,0.53753662109375,0.4664306640625,-0.671142578125,-4284,-6917,-98,0,-1,0
197793743,-0.20751953125,0.5374755859375,0.4664306640625,-0.67120361328125,-4285,-6925,-98,0,-1,0
197803731,-0.20751953125,0.5374755859375,0.4664306640625,-0.671142578125,-4287,-6922,-108,0,0,-1
197813717,-0.20751953125,0.53753662109375,0.4664306640625,-0.671142578125,-4287,-6911,-114,0,-1,0
197823691,-0.20745849609375,0.53753662109375,0.4664306640625,-0.671142578125,-4305,-6909,-117,0,-1,0
197833667,-0.20745849609375,0.5374755859375,0.4664306640625,-0.671142578125,-4291,-6893,-120,-1,-1,-1
197843665,-0.20745849609375,0.53753662109375,0.4664306640625,-0.671142578125,-4295,-6890,-123,0,0,-1
197853648,-0.20751953125,0.53753662109375,0.4664306640625,-0.671142578125,-4286,-6900,-128,0,-1,-1
197863630,-0.20751953125,0.5374755859375,0.46649169921875,-0.671142578125,-4276,-6899,-119,-1,-1,-1
197873616,-0.20751953125,0.5374755859375,0.46649169921875,-0.671142578125,-4270,-6912,-123,0,0,0
197883607,-0.20751953125,0.5374755859375,0.46649169921875,-0.671142578125,-4278,-6916,-108,0,-1,0
197893587,-0.20751953125,0.5374755859375,0.46649169921875,-0.671142578125,-4283,-6904,-108,-1,0,-1
197903563,-0.20751953125,0.5374755859375,0.46649169921875,-0.671142578125,-4289,-6916,-112,0,-1,-1
197913549,-0.20751953125,0.5374755859375,0.46649169921875,-0.671142578125,-4291,-6912,-121,0,-1,0
197923527,-0.20751953125,0.5374755859375,0.46649169921875,-0.671142578125,-4294,-6917,-114,0,0,0
197933508,-0.20751953125,0.5374755859375,0.46649169921875,-0.671142578125,-4298,-6916,-127,0,-1,0
197943484,-0.20745849609375,0.5374755859375,0.46649169921875,-0.671142578125,-4302,-6915,-142,0,-1,0
197953475,-0.20745849609375,0.53753662109375,0.46649169921875,-0.671142578125,-4307,-6909,-135,0,-1,0
197963457,-0.20745849609375,0.53753662109375,0.46649169921875,-0.671142578125,-4308,-6894,-130,-1,-1,0
197973440,-0.2073974609375,0.53753662109375,0.46649169921875,-0.671142578125,-4314,-6900,-130,0,0,0
197983429,-0.2073974609375,0.53753662109375,0.46649169921875,-0.671142578125,-4304,-6893,-127,0,-1,0
197993412,-0.2073974609375,0.53753662109375,0.46649169921875,-0.671142578125,-4292,-6888,-120,-1,-1,0
198003398,-0.2073974609375,0.53753662109375,0.46649169921875,-0.671142578125,-4284,-6892,-124,0,0,-1
198013371,-0.20745849609375,0.53753662109375,0.46649169921875,-0.67108154296875,-4273,-6902,-116,0,0,-1
198023356,-0.20745849609375,0.53753662109375,0.46649169921875,-0.67108154296875,-4281,-6895,-117,-1,0,0
198033334,-0.20745849609375,0.53753662109375,0.46649169921875,-0.67108154296875,-4274,-6900,-112,-1,-1,-1
198043318,-0.20745849609375,0.53753662109375,0.46649169921875,-0.67108154296875,-4273,-6904,-121,0,0,-1
198053302,-0.20745849609375,0.53759765625,0.46649169921875,-0.67108154296875,-4277,-6899,-113,-1,-1,0
198063291,-0.20745849609375,0.53759765625,0.46649169921875,-0.67108154296875,-4281,-6905,-117,-1,0,-1
198073266,-0.20745849609375,0.53759765625,0.46649169921875,-0.67108154296875,-4276,-6906,-115,0,0,-1
198083251,-0.20745849609375,0.53759765625,0.466552734375,-0.67108154296875,-4275,-6912,-121,0,0,-1
198093231,-0.20751953125,0.53759765625,0.46649169921875,-0.6710205078125,-4282,-6910,-131,0,0,-1
198103215,-0.20751953125,0.53759765625,0.466552734375,-0.6710205078125,-4279,-6911,-118,-1,-1,-1
198113198,-0.20751953125,0.53753662109375,0.466552734375,-0.6710205078125,-4282,-6905,-110,0,0,-1
198123190,-0.20751953125,0.53753662109375,0.466552734375,-0.67108154296875,-4280,-6922,-100,-1,-1,0
198133171,-0.20751953125,0.53753662109375,0.466552734375,-0.67108154296875,-4286,-6909,-106,0,-1,0
198143162,-0.20751953125,0.53753662109375,0.466552734375,-0.67108154296875,-4284,-6903,-112,0,-1,0
198153127,-0.20751953125,0.53753662109375,0.466552734375,-0.67108154296875,-4281,-6895,-100,0,-1,0
198166419,-0.20751953125,0.53753662109375,0.466552734375,-0.67108154296875,-4278,-6892,-103,-1,-1,-1
198173107,-0.20751953125,0.53753662109375,0.466552734375,-0.67108154296875,-4287,-6889,-101,-1,0,-1
198183081,-0.20751953125,0.53753662109375,0.466552734375,-0.67108154296875,-4283,-6897,-113,0,-1,-1
198193067,-0.20751953125,0.53753662109375,0.46649169921875,-0.67108154296875,-4293,-6897,-116,0,0,-1
198203052,-0.20751953125,0.53753662109375,0.46649169921875,-0.67108154296875,-4293,-6892,-108,0,-1,0
198213029,-0.20745849609375,0.53753662109375,0.46649169921875,-0.67108154296875,-4295,-6891,-109,-1,-1,-1
198223010,-0.20745849609375,0.5374755859375,0.46649169921875,-0.671142578125,-4292,-6895,-112,0,-1,-1
198233002,-0.20751953125,0.5374755859375,0.466552734375,-0.67108154296875,-4297,-6900,-120,0,0,-1
198242976,-0.20751953125,0.5374755859375,0.466552734375,-0.67108154296875,-4296,-6896,-117,0,0,-1
198252971,-0.20751953125,0.5374755859375,0.466552734375,-0.67108154296875,-4292,-6905,-125,0,0,0
198262947,-0.20751953125,0.53753662109375,0.46649169921875,-0.67108154296875,-4296,-6899,-112,-1,-1,0
198272931,-0.20751953125,0.53753662109375,0.46649169921875,-0.67108154296875,-4287,-6909,-117,0,-1,-1
198282914,-0.20751953125,0.5374755859375,0.466552734375,-0.67108154296875,-4271,-6918,-111,0,-1,0
198292904,-0.20758056640625,0.5374755859375,0.466552734375,-0.67108154296875,-4263,-6914,-115,0,0,-1
198302874,-0.20758056640625,0.5374755859375,0.466552734375,-0.67108154296875,-4274,-6926,-97,-1,0,-1
198312859,-0.20758056640625,0.5374755859375,0.466552734375,-0.67108154296875,-4280,-6926,-98,0,-1,-1
198322849,-0.20758056640625,0.53741455078125,0.466552734375,-0.67108154296875,-4283,-6912,-96,0,-1,-1
198332833,-0.20758056640625,0.53741455078125,0.466552734375,-0.67108154296875,-4283,-6907,-109,0,-1,-1
198342821,-0.2076416015625,0.53741455078125,0.46661376953125,-0.67108154296875,-4279,-6905,-110,0,0,-1
198352794,-0.2076416015625,0.53741455078125,0.46661376953125,-0.67108154296875,-4284,-6899,-120,0,0,-1
198362774,-0.2076416015625,0.53741455078125,0.46661376953125,-0.67108154296875,-4279,-6890,-111,0,0,-1
198372766,-0.2076416015625,0.53741455078125,0.466552734375,-0.67108154296875,-4283,-6899,-118,0,0,0
198382749,-0.2076416015625,0.53741455078125,0.466552734375,-0.67108154296875,-4291,-6888,-112,-1,-1,0
198392731,-0.20770263671875,0.53741455078125,0.466552734375,-0.67108154296875,-4287,-6897,-113,0,-1,-1
198402717,-0.2076416015625,0.53741455078125,0.466552734375,-0.67108154296875,-4292,-6905,-112,0,-1,0
198412689,-0.2076416015625,0.5374755859375,0.466552734375,-0.67108154296875,-4289,-6905,-112,-1,-1,0
198422669,-0.2076416015625,0.53741455078125,0.466552734375,-0.67108154296875,-4285,-6901,-120,0,-1,-1
198432663,-0.2076416015625,0.5374755859375,0.466552734375,-0.67108154296875,-4294,-6900,-120,0,0,-1
198442649,-0.2076416015625,0.53741455078125,0.466552734375,-0.67108154296875,-4281,-6894,-109,-1,0,0
198452634,-0.2076416015625,0.5374755859375,0.466552734375,-0.67108154296875,-4286,-6898,-118,-1,-1,0
198462618,-0.2076416015625,0.5374755859375,0.466552734375,-0.6710205078125,-4285,-6901,-127,0,0,-1
198472611,-0.2076416015625,0.5374755859375,0.466552734375,-0.6710205078125,-4298,-6898,-127,0,-1,0
198482588,-0.2076416015625,0.5374755859375,0.466552734375,-0.6710205078125,-4303,-6911,-131,0,-1,-1
198492569,-0.2076416015625,0.5374755859375,0.466552734375,-0.6710205078125,-4296,-6915,-130,0,0,0
198502537,-0.2076416015625,0.5374755859375,0.46661376953125,-0.67108154296875,-4292,-6906,-120,-1,-1,0
198512525,-0.20758056640625,0.5374755859375,0.46661376953125,-0.6710205078125,-4295,-6901,-122,0,-1,-1
198522505,-0.20758056640625,0.5374755859375,0.46661376953125,-0.6710205078125,-4295,-6901,-125,0,-1,-1
198532499,-0.20758056640625,0.5374755859375,0.46661376953125,-0.6710205078125,-4304,-6899,-125,0,0,0
198542475,-0.2076416015625,0.5374755859375,0.466552734375,-0.67108154296875,-4298,-6906,-108,0,-1,-1
198552454,-0.20758056640625,0.5374755859375,0.466552734375,-0.67108154296875,-4301,-6913,-113,0,-1,0
198562440,-0.20758056640625,0.5374755859375,0.466552734375,-0.67108154296875,-4288,-6909,-118,0,-1,0
198572430,-0.20758056640625,0.5374755859375,0.466552734375,-0.67108154296875,-4294,-6901,-104,0,-1,0
198582408,-0.20758056640625,0.53741455078125,0.466552734375,-0.671142578125,-4284,-6902,-109,0,-1,-1
198592398,-0.20758056640625,0.53741455078125,0.466552734375,-0.671142578125,-4287,-6897,-121,0,0,-1
198602366,-0.20758056640625,0.53741455078125,0.46661376953125,-0.67108154296875,-4282,-6895,-112,-1,-1,-1
198612349,-0.20758056640625,0.53741455078125,0.46661376953125,-0.67108154296875,-4284,-6889,-111,0,-1,-1
198622348,-0.20758056640625,0.53741455078125,0.46661376953125,-0.671142578125,-4288,-6899,-114,0,0,0
198632324,-0.20758056640625,0.53741455078125,0.46661376953125,-0.67108154296875,-4275,-6894,-123,-1,-1,0
198642312,-0.20758056640625,0.53741455078125,0.46661376953125,-0.67108154296875,-4279,-6905,-127,0,0,0
198652286,-0.20758056640625,0.53741455078125,0.46661376953125,-0.67108154296875,-4280,-6912,-122,-1,-1,0
198662273,-0.20758056640625,0.53741455078125,0.46661376953125,-0.67108154296875,-4287,-6909,-125,0,-1,0
198672254,-0.20758056640625,0.53741455078125,0.46661376953125,-0.67108154296875,-4301,-6901,-119,0,-1,-1
198682236,-0.20758056640625,0.53741455078125,0.46661376953125,-0.67108154296875,-4299,-6900,-112,0,0,-1
198692220,-0.20758056640625,0.53741455078125,0.466552734375,-0.67108154296875,-4298,-6892,-122,-1,-1,0
198702208,-0.20758056640625,0.53741455078125,0.46661376953125,-0.67108154296875,-4305,-6891,-140,0,-1,-1
198712193,-0.20758056640625,0.53741455078125,0.46661376953125,-0.67108154296875,-4294,-6899,-127,0,0,-1
198722177,-0.20758056640625,0.53741455078125,0.46661376953125,-0.67108154296875,-4293,-6904,-128,0,-1,-1
198732169,-0.20758056640625,0.53741455078125,0.46661376953125,-0.67108154296875,-4281,-6902,-125,0,-1,0
198742136,-0.20758056640625,0.53741455078125,0.46661376953125,-0.67108154296875,-4292,-6902,-121,0,-1,-1
198752122,-0.20758056640625,0.53741455078125,0.46661376953125,-0.67108154296875,-4304,-6905,-111,0,0,-1
198762100,-0.20758056640625,0.53741455078125,0.46661376953125,-0.67108154296875,-4302,-6909,-108,0,0,-1
198772086,-0.20758056640625,0.53741455078125,0.46661376953125,-0.67108154296875,-4302,-6908,-122,0,0,-1
198782061,-0.2076416015625,0.53741455078125,0.46661376953125,-0.6710205078125,-4288,-6912,-117,0,0,-1
198792051,-0.2076416015625,0.53741455078125,0.46661376953125,-0.67108154296875,-4298,-6900,-109,0,0,-1
198802027,-0.2076416015625,0.53741455078125,0.46661376953125,-0.6710205078125,-4297,-6890,-119,0,0,-1
198812021,-0.2076416015625,0.53741455078125,0.46661376953125,-0.6710205078125,-4290,-6897,-127,0,-1,0
198822004,-0.2076416015625,0.53741455078125,0.46661376953125,-0.6710205078125,-4292,-6901,-133,0,-1,-1
198831986,-0.2076416015625,0.53741455078125,0.46661376953125,-0.6710205078125,-4289,-6901,-130,0,0,0
198841966,-0.2076416015625,0.5374755859375,0.46661376953125,-0.6710205078125,-4291,-6893,-133,-1,0,-1
198851941,-0.2076416015625,0.5374755859375,0.46661376953125,-0.6710205078125,-4287,-6898,-126,-1,0,-1
198861932,-0.2076416015625,0.5374755859375,0.46661376953125,-0.6710205078125,-4296,-6892,-123,0,-1,-1
198871912,-0.2076416015625,0.5374755859375,0.46661376953125,-0.6710205078125,-4298,-6895,-131,0,-1,0
198881904,-0.2076416015625,0.5374755859375,0.46661376953125,-0.6710205078125,-4299,-6898,-130,0,0,0
198891882,-0.2076416015625,0.5374755859375,0.46661376953125,-0.6710205078125,-4300,-6891,-124,0,0,-1
198901857,-0.2076416015625,0.5374755859375,0.46661376953125,-0.6710205078125,-4293,-6892,-116,0,-1,-1
198911851,-0.2076416015625,0.53741455078125,0.4666748046875,-0.6710205078125,-4289,-6894,-121,0,-1,-1
198921839,-0.20770263671875,0.53741455078125,0.4666748046875,-0.6710205078125,-4277,-6908,-112,0,-1,0
198931821,-0.2076416015625,0.53741455078125,0.4666748046875,-0.6710205078125,-4274,-6913,-99,-1,-1,0
198941799,-0.2076416015625,0.53741455078125,0.4666748046875,-0.6710205078125,-4262,-6909,-120,0,0,0
198951778,-0.20770263671875,0.53741455078125,0.4666748046875,-0.6710205078125,-4261,-6913,-122,-1,0,-1
198961762,-0.20770263671875,0.53741455078125,0.4666748046875,-0.6710205078125,-4267,-6904,-128,0,-1,-1
198971753,-0.20770263671875,0.53741455078125,0.4666748046875,-0.67095947265625,-4273,-6910,-138,0,0,0
198981727,-0.20770263671875,0.53741455078125,0.4666748046875,-0.6710205078125,-4281,-6922,-125,0,-1,0
198991717,-0.20770263671875,0.53741455078125,0.4666748046875,-0.6710205078125,-4277,-6914,-120,0,-1,-1
199001691,-0.20770263671875,0.53741455078125,0.4666748046875,-0.67095947265625,-4280,-6923,-125,0,0,-1
199011680,-0.20770263671875,0.53741455078125,0.4666748046875,-0.6710205078125,-4286,-6921,-121,0,-1,-1
199021666,-0.20770263671875,0.53741455078125,0.4666748046875,-0.6710205078125,-4281,-6916,-138,0,-1,0
199031649,-0.207763671875,0.53741455078125,0.4666748046875,-0.67095947265625,-4279,-6909,-130,0,0,-1
199041630,-0.207763671875,0.53741455078125,0.4666748046875,-0.67095947265625,-4287,-6916,-118,0,0,-1
199051618,-0.207763671875,0.53741455078125,0.4666748046875,-0.67095947265625,-4275,-6904,-108,-1,-1,-1
199061608,-0.207763671875,0.53741455078125,0.4666748046875,-0.6710205078125,-4289,-6907,-100,0,-1,-1
199071585,-0.207763671875,0.53741455078125,0.4666748046875,-0.6710205078125,-4289,-6907,-102,0,-1,-1
199081582,-0.207763671875,0.53741455078125,0.4666748046875,-0.6710205078125,-4291,-6908,-105,0,0,-1
199091541,-0.20782470703125,0.53741455078125,0.4666748046875,-0.6710205078125,-4281,-6902,-110,0,0,-1
199101525,-0.20782470703125,0.53741455078125,0.4666748046875,-0.6710205078125,-4285,-6904,-111,-1,0,0
199111506,-0.207763671875,0.53741455078125,0.4666748046875,-0.6710205078125,-4295,-6901,-119,-1,-1,-1
199121493,-0.207763671875,0.53741455078125,0.4666748046875,-0.6710205078125,-4299,-6904,-125,0,0,-1
199131476,-0.207763671875,0.53741455078125,0.4666748046875,-0.6710205078125,-4300,-6893,-119,0,-1,-1
199141465,-0.207763671875,0.53741455078125,0.4666748046875,-0.67095947265625,-4302,-6896,-122,-1,-1,-1
199151448,-0.207763671875,0.53741455078125,0.4666748046875,-0.67095947265625,-4294,-6899,-139,0,0,0
199161430,-0.207763671875,0.53741455078125,0.46673583984375,-0.67095947265625,-4298,-6921,-130,-1,-1,0
199171418,-0.207763671875,0.53741455078125,0.46673583984375,-0.67095947265625,-4297,-6914,-139,0,-1,0
199181385,-0.20770263671875,0.53741455078125,0.46673583984375,-0.67095947265625,-4295,-6910,-135,0,-1,0
199191382,-0.207763671875,0.5374755859375,0.46673583984375,-0.67095947265625,-4300,-6902,-128,0,0,-1
199201354,-0.20770263671875,0.5374755859375,0.46673583984375,-0.67095947265625,-4304,-6907,-122,-1,-1,-1
199211341,-0.20770263671875,0.5374755859375,0.46673583984375,-0.67095947265625,-4302,-6906,-125,0,-1,0
199221333,-0.20770263671875,0.5374755859375,0.46673583984375,-0.67095947265625,-4294,-6896,-129,0,0,0
199231304,-0.20770263671875,0.5374755859375,0.4666748046875,-0.67095947265625,-4301,-6907,-123,0,-1,0
199241285,-0.2076416015625,0.5374755859375,0.4666748046875,-0.67095947265625,-4308,-6900,-117,-1,-1,0
199251267,-0.2076416015625,0.5374755859375,0.4666748046875,-0.67095947265625,-4303,-6904,-124,-1,-1,-1
199261252,-0.2076416015625,0.5374755859375,0.4666748046875,-0.67095947265625,-4286,-6901,-127,0,-1,0
199271238,-0.2076416015625,0.5374755859375,0.4666748046875,-0.67095947265625,-4290,-6902,-127,0,0,-1
199281230,-0.2076416015625,0.5374755859375,0.4666748046875,-0.67095947265625,-4298,-6909,-134,-1,0,0
199291198,-0.2076416015625,0.5374755859375,0.4666748046875,-0.67095947265625,-4296,-6907,-124,-1,-1,0
199301191,-0.2076416015625,0.5374755859375,0.4666748046875,-0.67095947265625,-4307,-6914,-123,0,-1,0
199311174,-0.20758056640625,0.5374755859375,0.4666748046875,-0.67095947265625,-4310,-6907,-124,0,-1,-1
199321164,-0.20758056640625,0.5374755859375,0.4666748046875,-0.67095947265625,-4300,-6908,-124,0,0,0
199331140,-0.2076416015625,0.5374755859375,0.4666748046875,-0.67095947265625,-4293,-6915,-120,0,0,0
199341120,-0.20758056640625,0.53753662109375,0.4666748046875,-0.67095947265625,-4291,-6898,-125,-1,0,-1
199351101,-0.20758056640625,0.5374755859375,0.4666748046875,-0.67095947265625,-4295,-6905,-119,0,-1,-1
199361088,-0.20758056640625,0.53753662109375,0.4666748046875,-0.67095947265625,-4294,-6898,-120,0,-1,0
199371070,-0.20758056640625,0.5374755859375,0.4666748046875,-0.67095947265625,-4299,-6899,-109,0,-1,-1
199381060,-0.20758056640625,0.5374755859375,0.46661376953125,-0.6710205078125,-4299,-6906,-103,0,-1,0
199391031,-0.20758056640625,0.5374755859375,0.4666748046875,-0.6710205078125,-4298,-6908,-104,-1,-1,0
199401019,-0.20758056640625,0.5374755859375,0.46661376953125,-0.6710205078125,-4293,-6907,-116,0,-1,-1
199410999,-0.20758056640625,0.5374755859375,0.4666748046875,-0.6710205078125,-4295,-6916,-120,0,-1,0
199420988,-0.20758056640625,0.5374755859375,0.4666748046875,-0.6710205078125,-4301,-6904,-121,0,0,-1
199430976,-0.20758056640625,0.5374755859375,0.4666748046875,-0.6710205078125,-4297,-6903,-127,0,-1,0
199440946,-0.20751953125,0.5374755859375,0.4666748046875,-0.6710205078125,-4291,-6909,-125,-1,-1,0
199450932,-0.20751953125,0.5374755859375,0.4666748046875,-0.6710205078125,-4290,-6903,-120,0,-1,-1
199460923,-0.20758056640625,0.5374755859375,0.46661376953125,-0.6710205078125,-4287,-6894,-122,0,-1,0
199470899,-0.20758056640625,0.5374755859375,0.46661376953125,-0.6710205078125,-4291,-6905,-117,0,-1,0
199480877,-0.20751953125,0.53753662109375,0.46661376953125,-0.6710205078125,-4283,-6892,-114,-1,-1,0
199490863,-0.20751953125,0.5374755859375,0.46661376953125,-0.6710205078125,-4273,-6902,-121,-1,-1,-1
199500857,-0.20751953125,0.5374755859375,0.46661376953125,-0.6710205078125,-4279,-6899,-124,0,-1,-1
199510830,-0.20751953125,0.5374755859375,0.46661376953125,-0.6710205078125,-4276,-6894,-126,0,-1,-1
199520829,-0.20751953125,0.5374755859375,0.46661376953125,-0.6710205078125,-4273,-6900,-123,0,0,0
199530813,-0.20751953125,0.5374755859375,0.46661376953125,-0.6710205078125,-4284,-6905,-113,0,0,0
199540778,-0.20751953125,0.5374755859375,0.46661376953125,-0.6710205078125,-4284,-6912,-117,-1,0,0
199550764,-0.20751953125,0.5374755859375,0.46661376953125,-0.6710205078125,-4292,-6915,-120,0,-1,-1
199560750,-0.20751953125,0.5374755859375,0.46661376953125,-0.6710205078125,-4294,-6920,-110,0,0,-1
199570730,-0.20758056640625,0.5374755859375,0.46661376953125,-0.67108154296875,-4294,-6925,-104,0,0,-1
199580719,-0.20758056640625,0.5374755859375,0.46661376953125,-0.67108154296875,-4291,-6923,-103,0,-1,0
199590695,-0.20758056640625,0.5374755859375,0.46661376953125,-0.67108154296875,-4279,-6918,-99,0,-1,-1
199600680,-0.20758056640625,0.53741455078125,0.46661376953125,-0.67108154296875,-4282,-6915,-104,0,-1,-1
199610666,-0.2076416015625,0.53741455078125,0.46661376953125,-0.67108154296875,-4287,-6917,-114,0,0,-1
199620660,-0.20758056640625,0.5374755859375,0.46661376953125,-0.67108154296875,-4277,-6901,-113,0,-1,0
199630635,-0.2076416015625,0.5374755859375,0.46661376953125,-0.6710205078125,-4274,-6906,-119,-1,0,-1
199640612,-0.2076416015625,0.5374755859375,0.46661376953125,-0.6710205078125,-4278,-6908,-114,0,0,-1
199650612,-0.2076416015625,0.5374755859375,0.46661376953125,-0.6710205078125,-4288,-6919,-121,0,-1,0
199660589,-0.2076416015625,0.5374755859375,0.46661376953125,-0.6710205078125,-4278,-6924,-116,0,-1,0
199670578,-0.2076416015625,0.53741455078125,0.4666748046875,-0.6710205078125,-4266,-6925,-121,0,0,-1
199680544,-0.2076416015625,0.5374755859375,0.4666748046875,-0.6710205078125,-4273,-6908,-119,0,0,-1
199690526,-0.20770263671875,0.53741455078125,0.4666748046875,-0.6710205078125,-4260,-6900,-112,0,0,-1
199700510,-0.20770263671875,0.53741455078125,0.4666748046875,-0.6710205078125,-4275,-6899,-113,0,-1,0
199710493,-0.20770263671875,0.53741455078125,0.46661376953125,-0.6710205078125,-4279,-6894,-100,0,0,0
199720482,-0.2076416015625,0.53741455078125,0.46661376953125,-0.6710205078125,-4286,-6883,-101,-1,-1,0
199730461,-0.2076416015625,0.5374755859375,0.46661376953125,-0.6710205078125,-4284,-6884,-104,0,0,0
199740443,-0.2076416015625,0.5374755859375,0.46661376953125,-0.6710205078125,-4287,-6875,-105,0,0,0
199750424,-0.2076416015625,0.5374755859375,0.46661376953125,-0.6710205078125,-4290,-6886,-97,-1,-1,-1
199760414,-0.20770263671875,0.5374755859375,0.46661376953125,-0.6710205078125,-4289,-6886,-114,0,0,-1
199770387,-0.20770263671875,0.5374755859375,0.46661376953125,-0.6710205078125,-4286,-6887,-117,0,0,-1
199780381,-0.20770263671875,0.5374755859375,0.46661376953125,-0.6710205078125,-4294,-6899,-111,0,0,0
199790363,-0.20770263671875,0.5374755859375,0.46661376953125,-0.6710205078125,-4286,-6907,-126,-1,0,0
199800343,-0.20770263671875,0.5374755859375,0.46661376953125,-0.67095947265625,-4285,-6906,-119,0,-1,0
199810336,-0.207763671875,0.5374755859375,0.46661376953125,-0.67095947265625,-4273,-6911,-110,0,-1,0
199820307,-0.207763671875,0.5374755859375,0.46661376953125,-0.67095947265625,-4278,-6906,-121,0,-1,0
199830291,-0.207763671875,0.5374755859375,0.4666748046875,-0.67095947265625,-4283,-6913,-131,-1,0,-1
199840278,-0.207763671875,0.5374755859375,0.46661376953125,-0.67095947265625,-4290,-6899,-120,0,0,0
199850258,-0.207763671875,0.5374755859375,0.46661376953125,-0.67095947265625,-4289,-6903,-115,0,-1,0
199860240,-0.207763671875,0.5374755859375,0.46661376953125,-0.67095947265625,-4288,-6901,-98,0,0,-1
