subject,Still with noise
arm,neither
label,0
hz,100.16958287128351
time,4.961586

timestamp_us,q0,q1,q2,q3,ax,ay,az,gx,gy,gz
162333901,0.048095703125,0.70941162109375,0.02447509765625,-0.70269775390625,-8232,295,-63,-1,0,0
162343879,0.048095703125,0.70947265625,0.02447509765625,-0.70263671875,-8241,296,-79,-1,-1,0
162353864,0.04815673828125,0.70947265625,0.02447509765625,-0.70269775390625,-8234,287,-81,0,0,0
162363858,0.04815673828125,0.70947265625,0.02447509765625,-0.70269775390625,-8225,293,-67,0,-1,-1
162373833,0.04815673828125,0.70941162109375,0.02447509765625,-0.7027587890625,-8219,299,-62,0,-1,-1
162383817,0.048095703125,0.70941162109375,0.02447509765625,-0.70269775390625,-8238,300,-60,0,-1,-1
162393807,0.04815673828125,0.7093505859375,0.02447509765625,-0.7027587890625,-8227,299,-48,0,-1,0
162403778,0.04815673828125,0.7093505859375,0.0244140625,-0.7027587890625,-8245,302,-53,0,-1,0
162413759,0.04815673828125,0.7093505859375,0.0244140625,-0.7027587890625,-8240,298,-65,0,-1,-1
162423748,0.04815673828125,0.7093505859375,0.0244140625,-0.7027587890625,-8234,299,-64,0,0,-1
162433721,0.04815673828125,0.7093505859375,0.0244140625,-0.7027587890625,-8237,303,-54,0,0,-1
162443717,0.04815673828125,0.70941162109375,0.0244140625,-0.7027587890625,-8236,312,-57,0,0,0
162453696,0.04815673828125,0.70941162109375,0.0244140625,-0.70269775390625,-8219,319,-61,0,0,-1
162463669,0.0482177734375,0.70941162109375,0.0244140625,-0.7027587890625,-8215,326,-52,-1,-1,-1
162473663,0.04815673828125,0.70941162109375,0.0244140625,-0.7027587890625,-8213,315,-55,0,0,0
162483656,0.0482177734375,0.7093505859375,0.0244140625,-0.7027587890625,-8214,313,-45,0,-1,-1
162493634,0.0482177734375,0.7093505859375,0.02435302734375,-0.7027587890625,-8223,314,-59,0,-1,0
162503615,0.0482177734375,0.7093505859375,0.02435302734375,-0.7027587890625,-8226,303,-46,0,0,-1
162513612,0.04815673828125,0.7093505859375,0.02435302734375,-0.70281982421875,-8218,292,-38,0,-1,0
162523598,0.0482177734375,0.7093505859375,0.02435302734375,-0.70281982421875,-8224,302,-46,0,0,-1
162533564,0.0482177734375,0.7093505859375,0.02435302734375,-0.70281982421875,-8236,311,-54,0,0,-1
162543549,0.0482177734375,0.7093505859375,0.02435302734375,-0.7027587890625,-8240,308,-60,0,0,0
162553528,0.0482177734375,0.7093505859375,0.02435302734375,-0.7027587890625,-8252,309,-63,0,0,-1
162563508,0.0482177734375,0.7093505859375,0.02435302734375,-0.7027587890625,-8239,298,-63,0,-1,-1
162573500,0.04815673828125,0.7093505859375,0.02435302734375,-0.7027587890625,-8242,298,-65,0,0,0
162583475,0.0482177734375,0.7093505859375,0.02435302734375,-0.7027587890625,-8242,294,-69,-1,-1,0
162593462,0.04815673828125,0.70941162109375,0.02435302734375,-0.7027587890625,-8243,303,-85,0,-1,-1
162603444,0.04815673828125,0.70941162109375,0.02435302734375,-0.70269775390625,-8235,301,-76,0,0,-1
162613421,0.0482177734375,0.70941162109375,0.02435302734375,-0.7027587890625,-8238,307,-73,-1,-1,-1
162623412,0.0482177734375,0.70941162109375,0.02435302734375,-0.7027587890625,-8229,305,-88,0,0,-1
162633389,0.04815673828125,0.70941162109375,0.02435302734375,-0.70269775390625,-8221,297,-86,0,0,-1
162643373,0.04815673828125,0.70941162109375,0.02435302734375,-0.70269775390625,-8223,296,-83,0,0,-1
162653349,0.048095703125,0.70947265625,0.02435302734375,-0.70269775390625,-8233,293,-84,0,0,-1
162663335,0.048095703125,0.70947265625,0.02435302734375,-0.70263671875,-8234,300,-89,0,0,-1
162673317,0.048095703125,0.70947265625,0.02435302734375,-0.70269775390625,-8237,303,-81,-1,-1,-1
162683302,0.04815673828125,0.70947265625,0.02435302734375,-0.70263671875,-8236,312,-82,0,-1,-1
162693293,0.04815673828125,0.70947265625,0.0242919921875,-0.70263671875,-8236,317,-79,0,0,0
162703267,0.04815673828125,0.70947265625,0.0242919921875,-0.70263671875,-8234,322,-76,-1,0,-1
162713260,0.04815673828125,0.70953369140625,0.0242919921875,-0.70263671875,-8237,310,-77,0,0,-1
162723243,0.04815673828125,0.70953369140625,0.0242919921875,-0.70263671875,-8238,297,-78,0,0,0
162733222,0.048095703125,0.70953369140625,0.02435302734375,-0.70257568359375,-8245,278,-77,0,0,-1
162743208,0.048095703125,0.70953369140625,0.02435302734375,-0.70257568359375,-8250,281,-74,0,-1,-1
162753193,0.048095703125,0.7095947265625,0.02435302734375,-0.70257568359375,-8254,284,-77,0,0,0
162763174,0.048095703125,0.70953369140625,0.02435302734375,-0.70257568359375,-8235,286,-78,-1,-1,-1
162773160,0.048095703125,0.7095947265625,0.02435302734375,-0.70257568359375,-8235,280,-75,0,0,-1
162783136,0.04803466796875,0.7095947265625,0.0244140625,-0.70257568359375,-8236,268,-73,0,0,-1
162793120,0.04803466796875,0.7095947265625,0.0244140625,-0.7025146484375,-8235,276,-64,0,0,-1
162803105,0.04803466796875,0.7095947265625,0.0244140625,-0.70257568359375,-8231,272,-56,-1,0,-1
162813089,0.04803466796875,0.7095947265625,0.0244140625,-0.70257568359375,-8231,278,-65,0,-1,0
162823074,0.04803466796875,0.7095947265625,0.0244140625,-0.70257568359375,-8217,287,-69,0,-1,-1
162833060,0.04803466796875,0.7095947265625,0.02435302734375,-0.7025146484375,-8215,298,-76,0,0,0
162843033,0.048095703125,0.7095947265625,0.02435302734375,-0.7025146484375,-8216,303,-83,-1,-1,0
162853014,0.048095703125,0.7095947265625,0.02435302734375,-0.70257568359375,-8226,303,-77,-1,-1,-1
162863001,0.048095703125,0.7095947265625,0.02435302734375,-0.7025146484375,-8230,301,-89,0,0,-1
162872977,0.048095703125,0.70965576171875,0.02435302734375,-0.7025146484375,-8226,320,-95,-1,0,-1
162882966,0.048095703125,0.70965576171875,0.02435302734375,-0.7025146484375,-8218,321,-87,0,0,-1
162892952,0.048095703125,0.70965576171875,0.02435302734375,-0.70245361328125,-8228,324,-82,0,0,0
162902933,0.04815673828125,0.70965576171875,0.02435302734375,-0.7025146484375,-8233,327,-67,-1,0,-1
162912922,0.04815673828125,0.70965576171875,0.02435302734375,-0.70245361328125,-8234,314,-70,0,-1,0
162922909,0.04815673828125,0.70965576171875,0.0242919921875,-0.70245361328125,-8229,312,-67,0,0,0
162932882,0.04815673828125,0.70965576171875,0.02435302734375,-0.70245361328125,-8223,309,-71,0,0,-1
162942857,0.04815673828125,0.709716796875,0.0242919921875,-0.70245361328125,-8234,323,-68,0,0,-1
162952853,0.04815673828125,0.709716796875,0.0242919921875,-0.70245361328125,-8232,305,-70,0,0,-1
162962843,0.04815673828125,0.709716796875,0.02435302734375,-0.70245361328125,-8237,297,-54,0,0,0
162972819,0.04815673828125,0.70965576171875,0.0242919921875,-0.70245361328125,-8240,306,-51,-1,-1,0
162982806,0.0482177734375,0.70965576171875,0.0242919921875,-0.70245361328125,-8232,318,-55,0,0,0
162992779,0.0482177734375,0.70965576171875,0.0242919921875,-0.70245361328125,-8222,309,-54,-1,-1,0
163002760,0.0482177734375,0.70965576171875,0.0242919921875,-0.7025146484375,-8218,308,-51,0,-1,-1
163012750,0.0482177734375,0.70965576171875,0.0242919921875,-0.7025146484375,-8225,304,-57,0,0,-1
163022729,0.0482177734375,0.70965576171875,0.0242919921875,-0.7025146484375,-8232,320,-46,0,0,-1
163032709,0.0482177734375,0.7095947265625,0.02435302734375,-0.7025146484375,-8226,318,-38,-1,-1,-1
163042690,0.0482177734375,0.7095947265625,0.02435302734375,-0.7025146484375,-8225,320,-50,0,-1,-1
163052687,0.0482177734375,0.7095947265625,0.0242919921875,-0.7025146484375,-8236,309,-49,0,0,0
163062667,0.0482177734375,0.70953369140625,0.02435302734375,-0.70257568359375,-8240,306,-44,-1,-1,-1
163072653,0.04827880859375,0.70953369140625,0.0242919921875,-0.70257568359375,-8246,310,-39,0,-1,0
163082630,0.04827880859375,0.70947265625,0.0242919921875,-0.70263671875,-8245,314,-43,-1,-1,0
163092613,0.04827880859375,0.70947265625,0.0242919921875,-0.70263671875,-8243,309,-60,0,-1,-1
163102611,0.04833984375,0.70947265625,0.0242919921875,-0.70263671875,-8244,306,-71,0,-1,0
163112598,0.04833984375,0.70947265625,0.0242919921875,-0.70269775390625,-8247,294,-66,0,-1,-1
163122567,0.04833984375,0.70947265625,0.0242919921875,-0.70263671875,-8235,299,-68,0,0,-1
163132539,0.04833984375,0.70947265625,0.02435302734375,-0.70269775390625,-8234,309,-60,-1,-1,-1
163142521,0.04833984375,0.70941162109375,0.02435302734375,-0.70269775390625,-8232,302,-63,0,-1,-1
163152517,0.04833984375,0.70941162109375,0.02435302734375,-0.70269775390625,-8235,300,-55,0,0,0
163162501,0.04833984375,0.70941162109375,0.02435302734375,-0.70269775390625,-8224,305,-57,0,-1,0
163172475,0.04833984375,0.70941162109375,0.0242919921875,-0.70269775390625,-8235,311,-59,0,0,-1
163182457,0.04833984375,0.70941162109375,0.0242919921875,-0.70269775390625,-8242,311,-48,0,0,-1
163192449,0.04833984375,0.70941162109375,0.0242919921875,-0.7027587890625,-8243,315,-45,0,-1,-1
163202429,0.04833984375,0.70941162109375,0.0242919921875,-0.70269775390625,-8244,312,-57,0,0,-1
163212419,0.04833984375,0.70941162109375,0.0242919921875,-0.70269775390625,-8241,312,-66,0,-1,0
163222403,0.04833984375,0.70941162109375,0.0242919921875,-0.70269775390625,-8242,307,-58,0,-1,0
163232376,0.04833984375,0.70941162109375,0.0242919921875,-0.70269775390625,-8246,308,-67,0,0,-1
163242363,0.04833984375,0.70941162109375,0.0242919921875,-0.70269775390625,-8240,298,-63,0,0,0
163252345,0.04833984375,0.70941162109375,0.02423095703125,-0.70269775390625,-8244,314,-55,0,-1,-1
163262326,0.04833984375,0.70941162109375,0.0242919921875,-0.70269775390625,-8235,307,-53,0,-1,-1
163272307,0.04833984375,0.70941162109375,0.02423095703125,-0.70269775390625,-8233,309,-61,0,0,-1
163282282,0.04833984375,0.70941162109375,0.02423095703125,-0.70269775390625,-8229,318,-68,0,0,-1
163292278,0.04833984375,0.70941162109375,0.02423095703125,-0.70269775390625,-8224,319,-75,0,-1,0
163302256,0.04840087890625,0.70941162109375,0.02423095703125,-0.70269775390625,-8220,322,-69,0,-1,-1
163312240,0.04833984375,0.70941162109375,0.02423095703125,-0.70269775390625,-8222,317,-66,0,0,-1
163322229,0.04833984375,0.70941162109375,0.024169921875,-0.70269775390625,-8216,311,-63,0,-1,0
163332197,0.04840087890625,0.70941162109375,0.024169921875,-0.70269775390625,-8221,310,-63,-1,-1,0
163342192,0.04840087890625,0.70941162109375,0.024169921875,-0.7027587890625,-8231,315,-70,0,-1,0
163352171,0.0484619140625,0.70941162109375,0.024169921875,-0.7027587890625,-8237,310,-73,-1,-1,0
163362166,0.0484619140625,0.70941162109375,0.024169921875,-0.70269775390625,-8231,313,-80,0,0,-1
163372143,0.0484619140625,0.70941162109375,0.024169921875,-0.7027587890625,-8220,300,-68,0,0,0
163382117,0.0484619140625,0.7093505859375,0.024169921875,-0.7027587890625,-8218,300,-65,-1,-1,0
163392103,0.0484619140625,0.7093505859375,0.024169921875,-0.7027587890625,-8210,299,-70,0,-1,-1
163402088,0.0484619140625,0.7093505859375,0.024169921875,-0.7027587890625,-8211,300,-80,0,-1,0
163412078,0.0484619140625,0.70941162109375,0.024169921875,-0.7027587890625,-8222,302,-84,0,-1,-1
163422060,0.0484619140625,0.70941162109375,0.024169921875,-0.7027587890625,-8227,301,-75,0,0,-1
163432040,0.0484619140625,0.7093505859375,0.02410888671875,-0.7027587890625,-8234,296,-59,0,-1,0
163442022,0.04852294921875,0.7093505859375,0.02410888671875,-0.7027587890625,-8239,299,-58,0,0,0
163452002,0.04852294921875,0.7093505859375,0.02410888671875,-0.7027587890625,-8234,306,-59,0,-1,0
163461991,0.04852294921875,0.7093505859375,0.02410888671875,-0.7027587890625,-8244,312,-50,0,0,-1
163471966,0.0484619140625,0.7093505859375,0.02410888671875,-0.7027587890625,-8238,295,-55,0,0,-1
163481952,0.0484619140625,0.70941162109375,0.02410888671875,-0.7027587890625,-8234,289,-56,0,0,0
163491930,0.0484619140625,0.70941162109375,0.02410888671875,-0.70269775390625,-8241,289,-61,-1,0,-1
163501914,0.0484619140625,0.70941162109375,0.02410888671875,-0.70269775390625,-8243,290,-64,0,0,-1
163511904,0.0484619140625,0.70941162109375,0.02410888671875,-0.70269775390625,-8248,314,-66,0,0,0
163521878,0.04852294921875,0.70947265625,0.02410888671875,-0.70269775390625,-8247,310,-66,-1,0,0
163531863,0.04852294921875,0.70947265625,0.0240478515625,-0.70269775390625,-8244,321,-73,0,-1,-1
163541859,0.048583984375,0.70941162109375,0.0240478515625,-0.70269775390625,-8241,319,-80,0,-1,0
163551838,0.048583984375,0.70941162109375,0.0240478515625,-0.70269775390625,-8242,315,-70,0,-1,0
163561824,0.048583984375,0.70941162109375,0.0240478515625,-0.70269775390625,-8245,318,-70,0,0,-1
163571817,0.04852294921875,0.70941162109375,0.0240478515625,-0.70269775390625,-8245,307,-69,0,0,-1
163581775,0.048583984375,0.70941162109375,0.0240478515625,-0.70269775390625,-8242,305,-63,-1,0,-1
163591774,0.048583984375,0.70941162109375,0.0240478515625,-0.70269775390625,-8230,313,-70,0,-1,0
163601746,0.048583984375,0.70941162109375,0.0240478515625,-0.70269775390625,-8238,311,-68,0,-1,0
163611734,0.048583984375,0.70941162109375,0.02398681640625,-0.70269775390625,-8233,313,-64,0,0,0
163621710,0.04864501953125,0.70941162109375,0.0240478515625,-0.70269775390625,-8233,300,-65,-1,-1,0
163631701,0.04864501953125,0.70941162109375,0.02398681640625,-0.70269775390625,-8229,303,-61,0,0,-1
163641686,0.04864501953125,0.70941162109375,0.0240478515625,-0.70269775390625,-8232,308,-67,0,0,-1
163651667,0.04864501953125,0.7093505859375,0.0240478515625,-0.7027587890625,-8232,302,-62,0,-1,0
163661655,0.04864501953125,0.70941162109375,0.0240478515625,-0.70269775390625,-8232,292,-58,0,0,-1
163671636,0.04864501953125,0.70941162109375,0.0240478515625,-0.70269775390625,-8234,289,-68,-1,-1,0
163681630,0.04864501953125,0.70941162109375,0.0240478515625,-0.70269775390625,-8231,287,-63,0,0,0
163691607,0.04864501953125,0.70941162109375,0.02398681640625,-0.70269775390625,-8239,293,-71,0,0,0
163701589,0.04864501953125,0.70941162109375,0.0240478515625,-0.70269775390625,-8251,296,-65,-1,-1,-1
163711567,0.04864501953125,0.70941162109375,0.0240478515625,-0.70269775390625,-8238,308,-73,0,0,-1
163721545,0.04864501953125,0.70941162109375,0.0240478515625,-0.70269775390625,-8229,298,-62,0,-1,-1
163731535,0.048583984375,0.70941162109375,0.0240478515625,-0.70269775390625,-8218,295,-53,0,0,0
163741519,0.048583984375,0.70941162109375,0.02398681640625,-0.70269775390625,-8218,297,-48,0,0,0
163751490,0.04864501953125,0.70941162109375,0.02398681640625,-0.70269775390625,-8203,296,-58,-1,-1,0
163761475,0.04864501953125,0.70941162109375,0.02398681640625,-0.70269775390625,-8207,278,-60,0,-1,0
163771460,0.04864501953125,0.70941162109375,0.02398681640625,-0.70269775390625,-8217,282,-67,0,-1,-1
163781450,0.04864501953125,0.70941162109375,0.02398681640625,-0.70269775390625,-8222,281,-67,0,0,0
163791427,0.04864501953125,0.70941162109375,0.02398681640625,-0.70269775390625,-8230,284,-58,0,0,0
163801412,0.04864501953125,0.70941162109375,0.02398681640625,-0.70269775390625,-8236,286,-62,0,0,-1
163811391,0.04864501953125,0.70947265625,0.02398681640625,-0.70269775390625,-8245,292,-55,0,0,-1
163821376,0.04864501953125,0.70947265625,0.0240478515625,-0.70269775390625,-8245,295,-62,0,-1,-1
163831360,0.048583984375,0.70947265625,0.02398681640625,-0.70263671875,-8232,287,-69,0,0,-1
163841348,0.048583984375,0.70941162109375,0.0240478515625,-0.70269775390625,-8238,277,-59,0,-1,0
163851326,0.048583984375,0.70941162109375,0.0240478515625,-0.70269775390625,-8242,277,-58,-1,-1,0
163861311,0.048583984375,0.70941162109375,0.0240478515625,-0.70269775390625,-8240,283,-60,0,0,0
163871291,0.04864501953125,0.70941162109375,0.0240478515625,-0.70269775390625,-8227,295,-69,-1,-1,-1
163881280,0.04864501953125,0.70947265625,0.02398681640625,-0.70269775390625,-8227,291,-82,0,0,0
163891256,0.04864501953125,0.70941162109375,0.02398681640625,-0.70269775390625,-8213,299,-81,-1,-1,-1
163901236,0.048583984375,0.70947265625,0.02398681640625,-0.70263671875,-8218,299,-79,0,0,-1
163911219,0.048583984375,0.70947265625,0.02398681640625,-0.70263671875,-8226,300,-82,-1,-1,-1
163921212,0.048583984375,0.70947265625,0.02398681640625,-0.70263671875,-8225,298,-81,0,0,0
163931195,0.048583984375,0.70947265625,0.02398681640625,-0.70263671875,-8226,298,-72,0,0,0
163941178,0.048583984375,0.70947265625,0.02398681640625,-0.70263671875,-8232,293,-67,0,-1,-1
163951159,0.048583984375,0.70947265625,0.02398681640625,-0.70263671875,-8236,296,-66,0,-1,0
163961142,0.04864501953125,0.70947265625,0.02392578125,-0.70263671875,-8226,309,-73,0,0,0
163971125,0.04864501953125,0.70947265625,0.02392578125,-0.70263671875,-8219,319,-70,0,-1,-1
163981105,0.04864501953125,0.70947265625,0.02392578125,-0.70263671875,-8216,315,-77,0,0,-1
163991091,0.04864501953125,0.70947265625,0.02392578125,-0.70263671875,-8218,306,-82,-1,-1,0
164001074,0.04864501953125,0.70953369140625,0.02392578125,-0.70263671875,-8223,315,-80,0,0,-1
164011060,0.04864501953125,0.70953369140625,0.02392578125,-0.70263671875,-8222,302,-81,0,-1,0
164021036,0.0487060546875,0.70947265625,0.02392578125,-0.70263671875,-8225,300,-79,0,-1,0
164031023,0.0487060546875,0.70953369140625,0.02392578125,-0.70257568359375,-8229,300,-75,0,-1,-1
164041000,0.04864501953125,0.70947265625,0.02392578125,-0.70263671875,-8229,295,-71,0,-1,-1
164050989,0.04864501953125,0.70947265625,0.02392578125,-0.70263671875,-8237,307,-86,0,0,-1
164060971,0.0487060546875,0.70953369140625,0.02386474609375,-0.70257568359375,-8236,307,-89,0,0,0
164070953,0.0487060546875,0.70953369140625,0.02392578125,-0.70257568359375,-8244,299,-77,0,0,-1
164080942,0.0487060546875,0.70953369140625,0.02392578125,-0.70257568359375,-8240,301,-74,0,-1,-1
164090913,0.0487060546875,0.70947265625,0.02392578125,-0.70263671875,-8235,299,-75,0,-1,-1
164100902,0.0487060546875,0.70947265625,0.02386474609375,-0.70263671875,-8234,307,-66,0,-1,0
164110878,0.04876708984375,0.70947265625,0.02386474609375,-0.70263671875,-8227,301,-71,-1,-1,0
164120864,0.04876708984375,0.70947265625,0.02386474609375,-0.70263671875,-8224,295,-76,0,-1,-1
164130852,0.04876708984375,0.70941162109375,0.02386474609375,-0.70269775390625,-8216,302,-65,0,-1,-1
164140843,0.04876708984375,0.70941162109375,0.02386474609375,-0.70263671875,-8224,305,-82,0,-1,0
164150822,0.04876708984375,0.70941162109375,0.02386474609375,-0.70269775390625,-8230,305,-79,-1,-1,0
164160790,0.048828125,0.70947265625,0.02386474609375,-0.70263671875,-8237,311,-80,-1,-1,0
164170775,0.048828125,0.70941162109375,0.02386474609375,-0.70269775390625,-8226,307,-70,-1,-1,-1
164180764,0.048828125,0.70941162109375,0.02386474609375,-0.70269775390625,-8236,299,-61,0,-1,0
164190754,0.048828125,0.70941162109375,0.02386474609375,-0.70269775390625,-8231,299,-58,0,0,-1
164200728,0.048828125,0.70941162109375,0.02386474609375,-0.70263671875,-8243,293,-66,0,0,-1
164210717,0.048828125,0.70947265625,0.02386474609375,-0.70263671875,-8229,302,-64,0,0,-1
164220697,0.048828125,0.70947265625,0.02386474609375,-0.70263671875,-8239,306,-68,0,0,-1
164230680,0.048828125,0.70947265625,0.02386474609375,-0.70263671875,-8230,302,-70,0,-1,-1
164240667,0.04876708984375,0.70947265625,0.02386474609375,-0.70263671875,-8242,297,-79,0,0,-1
164250653,0.048828125,0.70947265625,0.02386474609375,-0.70263671875,-8239,294,-83,-1,-1,0
164260633,0.048828125,0.70947265625,0.02386474609375,-0.70263671875,-8239,300,-84,0,-1,0
164270618,0.048828125,0.70941162109375,0.02386474609375,-0.70269775390625,-8236,313,-67,0,-1,-1
164280604,0.04888916015625,0.70941162109375,0.0238037109375,-0.70269775390625,-8232,312,-64,0,-1,0
164290604,0.04888916015625,0.70941162109375,0.0238037109375,-0.70269775390625,-8229,315,-65,0,-1,0
164300569,0.04888916015625,0.70941162109375,0.0238037109375,-0.70269775390625,-8229,312,-72,0,-1,-1
164310539,0.04888916015625,0.70941162109375,0.0238037109375,-0.70269775390625,-8226,315,-69,-1,-1,-1
164320523,0.04888916015625,0.70941162109375,0.0238037109375,-0.70269775390625,-8231,303,-80,0,-1,-1
164330513,0.04888916015625,0.70941162109375,0.0238037109375,-0.70269775390625,-8238,309,-81,0,-1,0
164340496,0.04888916015625,0.7093505859375,0.0238037109375,-0.70269775390625,-8241,312,-67,-1,-1,0
164350479,0.04888916015625,0.70941162109375,0.0238037109375,-0.70269775390625,-8235,316,-57,0,0,-1
164360466,0.0489501953125,0.70941162109375,0.0238037109375,-0.70269775390625,-8230,316,-65,-1,-1,-1
164370445,0.0489501953125,0.70941162109375,0.0238037109375,-0.70269775390625,-8231,307,-82,0,-1,-1
164380424,0.04888916015625,0.7093505859375,0.0238037109375,-0.70269775390625,-8234,308,-73,0,-1,-1
164390420,0.04888916015625,0.70941162109375,0.02386474609375,-0.70269775390625,-8234,306,-71,0,0,-1
164400406,0.04888916015625,0.70941162109375,0.02386474609375,-0.70269775390625,-8233,296,-70,0,0,0
164410380,0.04888916015625,0.70941162109375,0.02386474609375,-0.70269775390625,-8231,295,-66,0,0,-1
164420358,0.04888916015625,0.70941162109375,0.0238037109375,-0.70269775390625,-8235,309,-70,0,0,-1
164430344,0.04888916015625,0.70941162109375,0.0238037109375,-0.70269775390625,-8228,297,-72,-1,-1,0
164440333,0.04888916015625,0.70941162109375,0.0238037109375,-0.70269775390625,-8229,296,-77,0,0,-1
164450308,0.04888916015625,0.70941162109375,0.0238037109375,-0.70269775390625,-8230,312,-75,0,0,-1
164460293,0.04888916015625,0.70941162109375,0.02386474609375,-0.70263671875,-8224,312,-76,0,-1,-1
164470275,0.04888916015625,0.70947265625,0.0238037109375,-0.70263671875,-8222,314,-69,0,0,-1
164480253,0.04888916015625,0.70941162109375,0.02386474609375,-0.70269775390625,-8216,311,-77,-1,-1,-1
164490247,0.04888916015625,0.70947265625,0.0238037109375,-0.70263671875,-8217,311,-71,0,0,0
164500223,0.04888916015625,0.70941162109375,0.02386474609375,-0.70263671875,-8216,315,-63,-1,0,-1
164510208,0.048828125,0.70947265625,0.02386474609375,-0.70263671875,-8222,308,-58,0,0,-1
164520196,0.048828125,0.70947265625,0.02386474609375,-0.70263671875,-8219,305,-65,0,0,-1
164530182,0.048828125,0.70947265625,0.02386474609375,-0.70263671875,-8229,289,-60,0,-1,-1
164540160,0.048828125,0.70941162109375,0.02386474609375,-0.70269775390625,-8240,300,-63,0,-1,-1
164550156,0.048828125,0.70941162109375,0.02386474609375,-0.70269775390625,-8238,301,-59,0,0,0
164560126,0.048828125,0.70941162109375,0.02386474609375,-0.70269775390625,-8236,317,-72,0,-1,-1
164570110,0.048828125,0.70947265625,0.02386474609375,-0.70263671875,-8231,305,-75,0,0,0
164580087,0.048828125,0.70941162109375,0.02392578125,-0.70263671875,-8240,299,-69,-1,-1,-1
164590071,0.04876708984375,0.70947265625,0.02392578125,-0.70263671875,-8239,306,-59,0,0,-1
164600060,0.048828125,0.70941162109375,0.02386474609375,-0.70269775390625,-8248,308,-55,-1,-1,0
164610038,0.048828125,0.70941162109375,0.02386474609375,-0.70269775390625,-8241,311,-56,0,-1,-1
164620027,0.048828125,0.70941162109375,0.02386474609375,-0.70269775390625,-8245,308,-63,0,-1,-1
164629998,0.048828125,0.70941162109375,0.02386474609375,-0.70269775390625,-8238,309,-78,-1,-1,-1
164639985,0.04888916015625,0.70941162109375,0.02386474609375,-0.70269775390625,-8234,310,-80,0,-1,0
164649972,0.04888916015625,0.70941162109375,0.02386474609375,-0.70269775390625,-8230,306,-67,0,-1,-1
164659957,0.04888916015625,0.70941162109375,0.0238037109375,-0.70269775390625,-8223,309,-67,0,-1,-1
164669937,0.04888916015625,0.70941162109375,0.0238037109375,-0.70269775390625,-8217,311,-58,0,0,-1
164679924,0.04888916015625,0.70941162109375,0.0238037109375,-0.70269775390625,-8220,312,-69,0,-1,0
164689903,0.04888916015625,0.70941162109375,0.0238037109375,-0.70269775390625,-8231,310,-60,0,-1,0
164699886,0.04888916015625,0.7093505859375,0.0238037109375,-0.70269775390625,-8238,301,-69,0,-1,0
164709876,0.04888916015625,0.7093505859375,0.0238037109375,-0.7027587890625,-8238,298,-70,0,-1,0
164719859,0.04888916015625,0.70941162109375,0.0238037109375,-0.70269775390625,-8232,305,-71,0,0,0
164729840,0.0489501953125,0.70941162109375,0.0238037109375,-0.70269775390625,-8240,321,-55,-1,0,-1
164739820,0.0489501953125,0.70941162109375,0.0238037109375,-0.70269775390625,-8234,322,-64,0,0,-1
164749816,0.0489501953125,0.70941162109375,0.0238037109375,-0.70269775390625,-8233,327,-69,0,-1,0
164759790,0.0489501953125,0.70941162109375,0.02374267578125,-0.70269775390625,-8238,326,-60,0,0,0
164769774,0.04901123046875,0.70941162109375,0.02374267578125,-0.70269775390625,-8244,324,-63,-1,-1,0
164779749,0.0489501953125,0.7093505859375,0.02374267578125,-0.7027587890625,-8248,305,-63,0,-1,-1
164789731,0.0489501953125,0.7093505859375,0.0238037109375,-0.7027587890625,-8245,303,-61,0,-1,-1
164799720,0.0489501953125,0.7093505859375,0.0238037109375,-0.7027587890625,-8233,297,-63,0,-1,-1
164809702,0.0489501953125,0.7093505859375,0.0238037109375,-0.7027587890625,-8238,305,-67,0,-1,-1
164819684,0.0489501953125,0.7093505859375,0.0238037109375,-0.7027587890625,-8232,312,-69,0,0,-1
164829669,0.0489501953125,0.70941162109375,0.0238037109375,-0.70269775390625,-8234,312,-78,-1,-1,0
164839662,0.0489501953125,0.70941162109375,0.02374267578125,-0.70269775390625,-8234,314,-84,0,-1,-1
164849639,0.0489501953125,0.70941162109375,0.02374267578125,-0.70269775390625,-8233,310,-80,0,0,-1
164859618,0.0489501953125,0.70941162109375,0.02374267578125,-0.70269775390625,-8244,305,-77,0,0,-1
164869616,0.0489501953125,0.70941162109375,0.02374267578125,-0.70269775390625,-8238,303,-74,0,-1,0
164879599,0.0489501953125,0.70941162109375,0.02374267578125,-0.70269775390625,-8231,307,-84,0,-1,0
164889570,0.0489501953125,0.70941162109375,0.023681640625,-0.70269775390625,-8226,315,-79,0,-1,0
164899544,0.04901123046875,0.70941162109375,0.023681640625,-0.70269775390625,-8235,314,-83,-1,-1,-1
164909529,0.04901123046875,0.70941162109375,0.023681640625,-0.70263671875,-8232,304,-86,0,0,-1
164919509,0.04901123046875,0.70941162109375,0.02374267578125,-0.70269775390625,-8228,303,-78,-1,-1,-1
164929497,0.0489501953125,0.70941162109375,0.02374267578125,-0.70263671875,-8219,302,-76,0,0,-1
164939486,0.0489501953125,0.70941162109375,0.02374267578125,-0.70269775390625,-8221,287,-66,0,0,0
164949469,0.0489501953125,0.70941162109375,0.02374267578125,-0.70269775390625,-8215,284,-57,-1,-1,0
164959449,0.0489501953125,0.70941162109375,0.02374267578125,-0.70269775390625,-8216,297,-74,0,-1,-1
164969433,0.0489501953125,0.70941162109375,0.02374267578125,-0.70269775390625,-8212,295,-87,0,-1,-1
164979421,0.0489501953125,0.70941162109375,0.02374267578125,-0.70269775390625,-8212,297,-88,0,-1,0
164989405,0.0489501953125,0.70947265625,0.02374267578125,-0.70263671875,-8220,308,-98,0,0,0
164999379,0.0489501953125,0.70947265625,0.02374267578125,-0.70263671875,-8227,307,-96,0,0,-1
165009367,0.0489501953125,0.70947265625,0.02374267578125,-0.70257568359375,-8234,303,-89,0,0,0
165019349,0.04888916015625,0.70953369140625,0.02374267578125,-0.70257568359375,-8245,297,-82,0,0,-1
165029334,0.0489501953125,0.70947265625,0.02374267578125,-0.70263671875,-8241,304,-84,0,-1,0
165039305,0.0489501953125,0.70947265625,0.023681640625,-0.70263671875,-8242,306,-76,0,-1,0
165049304,0.0489501953125,0.70947265625,0.023681640625,-0.70263671875,-8234,311,-75,0,0,0
165059273,0.0489501953125,0.70947265625,0.023681640625,-0.70263671875,-8236,313,-77,-1,-1,0
165069255,0.0489501953125,0.70947265625,0.02362060546875,-0.70263671875,-8238,312,-69,0,-1,0
165079247,0.0489501953125,0.70947265625,0.02362060546875,-0.70263671875,-8240,316,-68,0,0,-1
165089224,0.0489501953125,0.70947265625,0.02362060546875,-0.70263671875,-8225,310,-70,0,0,-1
165099211,0.0489501953125,0.70947265625,0.023681640625,-0.70263671875,-8220,300,-54,0,-1,-1
165109198,0.0489501953125,0.70947265625,0.023681640625,-0.70263671875,-8230,301,-67,0,0,0
165119178,0.0489501953125,0.70947265625,0.023681640625,-0.70263671875,-8239,306,-60,-1,0,-1
165129169,0.0489501953125,0.70947265625,0.023681640625,-0.70263671875,-8239,309,-68,0,0,0
165139139,0.0489501953125,0.70947265625,0.023681640625,-0.70263671875,-8244,302,-68,-1,-1,0
165149128,0.0489501953125,0.70947265625,0.02362060546875,-0.70263671875,-8249,300,-66,0,-1,0
165159110,0.0489501953125,0.70947265625,0.02362060546875,-0.70263671875,-8239,298,-71,0,0,-1
165169098,0.0489501953125,0.70947265625,0.02362060546875,-0.70263671875,-8228,303,-67,0,-1,-1
165179077,0.0489501953125,0.70947265625,0.02362060546875,-0.70263671875,-8227,298,-74,0,-1,0
165189063,0.0489501953125,0.70947265625,0.023681640625,-0.70263671875,-8223,299,-74,0,0,-1
165199044,0.0489501953125,0.70947265625,0.023681640625,-0.70263671875,-8228,296,-71,0,-1,0
165209026,0.0489501953125,0.70947265625,0.023681640625,-0.70263671875,-8234,294,-68,0,0,0
165219006,0.0489501953125,0.70941162109375,0.023681640625,-0.70263671875,-8238,298,-63,-1,-1,-1
165228986,0.0489501953125,0.70947265625,0.02362060546875,-0.70263671875,-8234,313,-68,0,0,-1
165238975,0.0489501953125,0.70947265625,0.02362060546875,-0.70263671875,-8236,312,-71,0,-1,0
165248954,0.04901123046875,0.70941162109375,0.02362060546875,-0.70269775390625,-8230,311,-70,0,-1,-1
165258942,0.0489501953125,0.70941162109375,0.02362060546875,-0.70269775390625,-8239,315,-70,0,0,-1
165268920,0.04901123046875,0.70941162109375,0.02362060546875,-0.70269775390625,-8238,316,-73,0,-1,-1
165278907,0.0489501953125,0.70941162109375,0.02362060546875,-0.70263671875,-8232,320,-80,0,0,-1
165288887,0.0489501953125,0.70941162109375,0.023681640625,-0.70263671875,-8226,310,-73,-1,0,0
165298873,0.0489501953125,0.70941162109375,0.023681640625,-0.70263671875,-8214,318,-67,0,0,-1
165308854,0.04901123046875,0.70941162109375,0.023681640625,-0.70269775390625,-8217,325,-58,0,0,-1
165318848,0.04901123046875,0.70941162109375,0.02362060546875,-0.70269775390625,-8214,333,-52,0,-1,0
165328829,0.04901123046875,0.70941162109375,0.02362060546875,-0.70269775390625,-8231,326,-56,0,-1,-1
165338803,0.04901123046875,0.70941162109375,0.02362060546875,-0.70269775390625,-8231,326,-65,0,0,-1
165348785,0.04901123046875,0.70941162109375,0.02362060546875,-0.70269775390625,-8226,319,-68,0,0,-1
165358763,0.04901123046875,0.70941162109375,0.02362060546875,-0.70269775390625,-8228,307,-69,0,-1,-1
165368754,0.0489501953125,0.70941162109375,0.023681640625,-0.70269775390625,-8231,302,-78,0,0,-1
165378732,0.0489501953125,0.70941162109375,0.02362060546875,-0.70263671875,-8231,317,-73,0,0,-1
165388717,0.0489501953125,0.70941162109375,0.023681640625,-0.70269775390625,-8235,317,-71,-1,-1,-1
165398700,0.0489501953125,0.70941162109375,0.023681640625,-0.70269775390625,-8240,306,-68,0,-1,0
165408692,0.0489501953125,0.70941162109375,0.023681640625,-0.70269775390625,-8241,307,-64,0,0,-1
165418663,0.0489501953125,0.70941162109375,0.023681640625,-0.70269775390625,-8232,306,-72,0,-1,-1
165428659,0.04888916015625,0.70941162109375,0.023681640625,-0.70269775390625,-8237,303,-67,0,0,-1
165438637,0.0489501953125,0.70941162109375,0.023681640625,-0.70269775390625,-8226,302,-67,-1,-1,0
165448620,0.0489501953125,0.70947265625,0.02362060546875,-0.70263671875,-8223,306,-81,0,0,0
165458613,0.04901123046875,0.70947265625,0.02362060546875,-0.70263671875,-8219,324,-81,0,-1,0
165468589,0.04901123046875,0.70941162109375,0.02362060546875,-0.70269775390625,-8218,320,-85,-1,-1,-1
165478584,0.0489501953125,0.70947265625,0.02362060546875,-0.70263671875,-8225,316,-90,0,0,-1
165488548,0.0489501953125,0.70947265625,0.02362060546875,-0.70263671875,-8222,299,-102,0,0,-1
165498539,0.0489501953125,0.70953369140625,0.02362060546875,-0.70257568359375,-8225,301,-84,0,0,0
165508521,0.0489501953125,0.70953369140625,0.02362060546875,-0.70257568359375,-8219,317,-79,0,0,0
165518502,0.0489501953125,0.70947265625,0.02362060546875,-0.70263671875,-8231,311,-86,0,-1,-1
165528479,0.0489501953125,0.70953369140625,0.0235595703125,-0.70257568359375,-8225,310,-84,0,0,0
165538459,0.0489501953125,0.70953369140625,0.02362060546875,-0.70257568359375,-8210,313,-72,-1,0,-1
165548444,0.0489501953125,0.70953369140625,0.02362060546875,-0.70257568359375,-8226,324,-72,0,0,-1
165558437,0.0489501953125,0.70947265625,0.02362060546875,-0.70263671875,-8240,321,-72,0,-1,0
165568420,0.0489501953125,0.70947265625,0.02362060546875,-0.70263671875,-8237,316,-75,0,-1,-1
165578398,0.0489501953125,0.70947265625,0.02362060546875,-0.70263671875,-8228,319,-70,0,0,-1
165588382,0.0489501953125,0.70947265625,0.02362060546875,-0.70263671875,-8222,300,-77,0,-1,0
165598367,0.0489501953125,0.70947265625,0.02362060546875,-0.70263671875,-8226,291,-69,0,-1,0
165608357,0.0489501953125,0.70947265625,0.02362060546875,-0.70263671875,-8231,290,-68,0,0,0
165618326,0.0489501953125,0.70947265625,0.02362060546875,-0.70263671875,-8242,295,-55,-1,0,0
165628306,0.0489501953125,0.70947265625,0.02362060546875,-0.70263671875,-8249,288,-56,-1,-1,0
165638291,0.0489501953125,0.70947265625,0.02362060546875,-0.70263671875,-8255,288,-69,0,-1,0
165648279,0.04901123046875,0.70941162109375,0.02362060546875,-0.70263671875,-8242,297,-58,-1,-1,-1
165658256,0.04901123046875,0.70947265625,0.02362060546875,-0.70263671875,-8240,308,-65,0,-1,-1
165668247,0.0489501953125,0.70947265625,0.02362060546875,-0.70263671875,-8240,311,-65,0,0,-1
165678226,0.0489501953125,0.70947265625,0.02362060546875,-0.70263671875,-8240,304,-70,0,0,-1
165688210,0.0489501953125,0.70947265625,0.02362060546875,-0.70263671875,-8238,307,-64,0,-1,-1
165698198,0.0489501953125,0.70947265625,0.02362060546875,-0.70263671875,-8243,305,-63,0,0,0
165708183,0.0489501953125,0.70947265625,0.02362060546875,-0.70263671875,-8235,312,-60,0,0,0
165718168,0.0489501953125,0.70947265625,0.02362060546875,-0.70263671875,-8228,310,-42,-1,-1,0
165728144,0.0489501953125,0.70941162109375,0.02362060546875,-0.70263671875,-8226,300,-42,0,0,0
165738125,0.04901123046875,0.70941162109375,0.02362060546875,-0.70263671875,-8224,303,-52,-1,-1,-1
165748107,0.04901123046875,0.70941162109375,0.0235595703125,-0.70263671875,-8223,303,-62,0,0,-1
165758094,0.04901123046875,0.70941162109375,0.02362060546875,-0.70263671875,-8218,300,-65,-1,-1,0
165768071,0.04901123046875,0.70941162109375,0.0235595703125,-0.70269775390625,-8222,302,-53,0,-1,0
165778060,0.04901123046875,0.70941162109375,0.0235595703125,-0.70269775390625,-8223,309,-70,0,-1,0
165788037,0.04901123046875,0.70941162109375,0.0235595703125,-0.70269775390625,-8236,308,-65,-1,-1,-1
165798018,0.04901123046875,0.70941162109375,0.0235595703125,-0.70269775390625,-8231,305,-62,0,-1,-1
165808008,0.04901123046875,0.70941162109375,0.0235595703125,-0.70269775390625,-8236,306,-55,0,0,-1
165817989,0.0489501953125,0.70941162109375,0.02362060546875,-0.70269775390625,-8240,300,-50,0,0,-1
165827973,0.04901123046875,0.70941162109375,0.02362060546875,-0.70269775390625,-8230,310,-52,-1,-1,0
165837966,0.04901123046875,0.70941162109375,0.02362060546875,-0.70269775390625,-8240,309,-57,0,-1,-1
165847937,0.04901123046875,0.7093505859375,0.02362060546875,-0.7027587890625,-8241,312,-46,0,-1,-1
165857925,0.04901123046875,0.7093505859375,0.0235595703125,-0.7027587890625,-8236,312,-62,0,-1,0
165867904,0.04901123046875,0.7093505859375,0.0235595703125,-0.7027587890625,-8227,308,-53,0,-1,-1
165877885,0.04901123046875,0.7093505859375,0.0235595703125,-0.7027587890625,-8232,305,-55,-1,-1,0
165887877,0.04901123046875,0.7093505859375,0.0235595703125,-0.7027587890625,-8238,305,-63,0,0,-1
165897862,0.04901123046875,0.7093505859375,0.0235595703125,-0.70269775390625,-8236,294,-74,0,0,0
165907849,0.04901123046875,0.70941162109375,0.0235595703125,-0.70269775390625,-8232,305,-72,0,0,-1
165917834,0.04901123046875,0.7093505859375,0.0235595703125,-0.7027587890625,-8222,300,-75,0,-1,-1
165927802,0.04901123046875,0.7093505859375,0.0235595703125,-0.7027587890625,-8227,310,-68,0,-1,0
165937786,0.0489501953125,0.7093505859375,0.0235595703125,-0.7027587890625,-8228,295,-67,0,-1,-1
165947774,0.0489501953125,0.7093505859375,0.0235595703125,-0.7027587890625,-8229,304,-67,0,0,-1
165957752,0.0489501953125,0.7093505859375,0.0235595703125,-0.7027587890625,-8233,302,-79,0,-1,-1
165967738,0.0489501953125,0.7093505859375,0.0235595703125,-0.7027587890625,-8238,309,-75,0,0,-1
165977725,0.0489501953125,0.7093505859375,0.0235595703125,-0.7027587890625,-8241,302,-71,0,-1,0
165987700,0.0489501953125,0.7093505859375,0.0235595703125,-0.7027587890625,-8243,303,-77,0,-1,0
165997685,0.0489501953125,0.70928955078125,0.0235595703125,-0.70281982421875,-8240,309,-71,0,-1,-1
166007665,0.0489501953125,0.70928955078125,0.02349853515625,-0.70281982421875,-8240,309,-77,0,-1,0
166017656,0.0489501953125,0.7093505859375,0.02349853515625,-0.7027587890625,-8232,310,-81,0,0,-1
166027642,0.0489501953125,0.7093505859375,0.0235595703125,-0.7027587890625,-8230,309,-79,0,-1,-1
166037630,0.0489501953125,0.7093505859375,0.02349853515625,-0.7027587890625,-8227,315,-77,0,-1,-1
166047615,0.0489501953125,0.7093505859375,0.02349853515625,-0.7027587890625,-8231,310,-73,0,0,-1
166057598,0.04888916015625,0.7093505859375,0.0235595703125,-0.7027587890625,-8226,301,-78,0,-1,-1
166067581,0.04888916015625,0.7093505859375,0.0235595703125,-0.7027587890625,-8221,297,-84,0,0,-1
166077553,0.04888916015625,0.7093505859375,0.0235595703125,-0.7027587890625,-8220,304,-88,0,0,0
166087532,0.04888916015625,0.7093505859375,0.0235595703125,-0.7027587890625,-8229,306,-78,-1,-1,-1
166097510,0.04888916015625,0.7093505859375,0.0235595703125,-0.7027587890625,-8228,307,-86,0,-1,-1
166107497,0.048828125,0.7093505859375,0.0235595703125,-0.7027587890625,-8223,303,-75,0,0,-1
166117488,0.048828125,0.7093505859375,0.0235595703125,-0.7027587890625,-8224,304,-84,0,0,0
166127462,0.048828125,0.70941162109375,0.0235595703125,-0.70269775390625,-8244,296,-78,-1,0,-1
166140419,0.048828125,0.70941162109375,0.0235595703125,-0.70269775390625,-8234,297,-80,0,0,0
166147430,0.04888916015625,0.70941162109375,0.0235595703125,-0.70269775390625,-8218,306,-75,-2,-1,0
166157416,0.04888916015625,0.70941162109375,0.0235595703125,-0.70269775390625,-8218,303,-78,0,-1,0
166167408,0.04888916015625,0.70941162109375,0.0235595703125,-0.70269775390625,-8220,301,-77,0,0,-1
166177378,0.04888916015625,0.70941162109375,0.0235595703125,-0.70269775390625,-8218,300,-71,0,0,-1
166187362,0.04888916015625,0.70941162109375,0.0235595703125,-0.70269775390625,-8218,295,-53,0,0,-1
166197347,0.04888916015625,0.70941162109375,0.02362060546875,-0.70269775390625,-8226,300,-57,-1,-1,-1
166207327,0.04888916015625,0.70941162109375,0.0235595703125,-0.70269775390625,-8224,310,-60,0,-1,0
166217310,0.0489501953125,0.70941162109375,0.0235595703125,-0.70269775390625,-8222,314,-60,-1,0,0
166227293,0.0489501953125,0.70941162109375,0.0235595703125,-0.70269775390625,-8235,316,-67,-1,-1,-1
166237287,0.0489501953125,0.70941162109375,0.0235595703125,-0.70269775390625,-8232,306,-64,0,0,-1
166247267,0.0489501953125,0.70941162109375,0.0235595703125,-0.70269775390625,-8243,298,-66,0,0,0
166257252,0.0489501953125,0.70941162109375,0.0235595703125,-0.70269775390625,-8239,287,-66,0,-1,0
166267227,0.0489501953125,0.70941162109375,0.0235595703125,-0.70269775390625,-8237,300,-69,0,-1,0
166277218,0.0489501953125,0.7093505859375,0.0235595703125,-0.7027587890625,-8230,293,-60,0,-1,-1
166287195,0.0489501953125,0.7093505859375,0.0235595703125,-0.7027587890625,-8232,296,-52,0,-1,-1
166297179,0.0489501953125,0.7093505859375,0.0235595703125,-0.7027587890625,-8240,318,-53,0,-1,-1
166307162,0.0489501953125,0.70928955078125,0.02349853515625,-0.70281982421875,-8247,322,-55,0,-1,0
166317145,0.0489501953125,0.7093505859375,0.02349853515625,-0.7027587890625,-8246,328,-67,0,0,0
166327124,0.04901123046875,0.70928955078125,0.02349853515625,-0.70281982421875,-8242,323,-50,-1,-1,0
166337110,0.04901123046875,0.7093505859375,0.02349853515625,-0.7027587890625,-8231,322,-61,0,0,0
166347094,0.04901123046875,0.70928955078125,0.02349853515625,-0.70281982421875,-8220,319,-54,0,-1,-1
166357083,0.04901123046875,0.70928955078125,0.02349853515625,-0.70281982421875,-8226,315,-55,0,0,0
166367060,0.04901123046875,0.7093505859375,0.02349853515625,-0.7027587890625,-8233,308,-65,0,0,-1
166377041,0.04901123046875,0.7093505859375,0.02349853515625,-0.7027587890625,-8226,318,-70,0,-1,-1
166387027,0.04901123046875,0.7093505859375,0.02349853515625,-0.7027587890625,-8227,311,-68,0,0,-1
166397007,0.04901123046875,0.70928955078125,0.0235595703125,-0.7027587890625,-8226,308,-73,0,-1,-1
166406993,0.0489501953125,0.7093505859375,0.0235595703125,-0.7027587890625,-8239,307,-82,0,0,-1
166416975,0.0489501953125,0.7093505859375,0.0235595703125,-0.7027587890625,-8234,307,-69,-1,0,0
166426957,0.0489501953125,0.7093505859375,0.0235595703125,-0.7027587890625,-8229,321,-60,0,-1,-1
166436946,0.04901123046875,0.7093505859375,0.02349853515625,-0.7027587890625,-8223,331,-64,0,0,0
166446926,0.04901123046875,0.70928955078125,0.02349853515625,-0.7027587890625,-8213,336,-63,0,-1,-1
166456906,0.049072265625,0.70928955078125,0.02349853515625,-0.7027587890625,-8219,335,-59,0,-1,0
166466887,0.049072265625,0.70928955078125,0.02349853515625,-0.70281982421875,-8227,331,-57,0,-1,0
166476878,0.049072265625,0.70928955078125,0.02349853515625,-0.70281982421875,-8232,318,-66,0,-1,0
166486857,0.049072265625,0.7093505859375,0.02349853515625,-0.7027587890625,-8236,303,-67,0,0,-1
166496843,0.04901123046875,0.70928955078125,0.02349853515625,-0.70281982421875,-8232,299,-68,0,-1,-1
166506830,0.049072265625,0.70928955078125,0.02349853515625,-0.70281982421875,-8231,306,-67,0,-1,0
166516815,0.049072265625,0.70928955078125,0.0235595703125,-0.70281982421875,-8228,304,-52,0,0,-1
166526790,0.049072265625,0.70928955078125,0.02349853515625,-0.70281982421875,-8228,308,-56,0,0,0
166536774,0.049072265625,0.70928955078125,0.02349853515625,-0.70281982421875,-8235,295,-60,0,0,0
166546762,0.049072265625,0.70928955078125,0.02349853515625,-0.70281982421875,-8236,287,-50,0,-1,0
166556742,0.04901123046875,0.709228515625,0.0235595703125,-0.70281982421875,-8224,286,-55,0,-1,0
166566722,0.04901123046875,0.70928955078125,0.02349853515625,-0.70281982421875,-8227,297,-62,0,0,-1
166576702,0.04901123046875,0.70928955078125,0.02349853515625,-0.70281982421875,-8224,321,-56,0,-1,-1
166586684,0.04901123046875,0.70928955078125,0.0235595703125,-0.70281982421875,-8237,309,-70,0,-1,-1
166596667,0.04901123046875,0.70928955078125,0.02349853515625,-0.70281982421875,-8240,311,-71,0,-1,0
166606660,0.04901123046875,0.709228515625,0.02349853515625,-0.70281982421875,-8230,310,-71,0,0,0
166616639,0.049072265625,0.709228515625,0.02349853515625,-0.702880859375,-8242,299,-54,-1,-1,0
166626630,0.04901123046875,0.709228515625,0.02349853515625,-0.70281982421875,-8234,298,-64,0,0,0
166636613,0.04901123046875,0.709228515625,0.02349853515625,-0.702880859375,-8239,291,-60,-1,-1,0
166646598,0.04901123046875,0.709228515625,0.02349853515625,-0.702880859375,-8235,308,-69,0,-1,-1
166656570,0.04901123046875,0.709228515625,0.0234375,-0.702880859375,-8230,309,-67,0,-1,-1
166666553,0.04901123046875,0.709228515625,0.0234375,-0.702880859375,-8231,306,-58,0,-1,-1
166676529,0.04901123046875,0.709228515625,0.02349853515625,-0.702880859375,-8236,305,-59,0,-1,-1
166686514,0.0489501953125,0.709228515625,0.02349853515625,-0.702880859375,-8223,299,-67,0,-1,-1
166696507,0.0489501953125,0.709228515625,0.02349853515625,-0.702880859375,-8231,290,-60,0,0,0
166706484,0.0489501953125,0.70916748046875,0.02349853515625,-0.70294189453125,-8230,298,-54,0,-1,0
166716461,0.04901123046875,0.70916748046875,0.02349853515625,-0.70294189453125,-8236,298,-60,-1,-1,0
166726451,0.04901123046875,0.70916748046875,0.0234375,-0.70294189453125,-8233,298,-60,0,0,0
166736434,0.04901123046875,0.70916748046875,0.02349853515625,-0.70294189453125,-8235,301,-60,-1,-1,-1
166746420,0.04901123046875,0.70916748046875,0.0234375,-0.70294189453125,-8225,297,-63,0,-1,0
166756406,0.0489501953125,0.709228515625,0.0234375,-0.702880859375,-8225,285,-66,0,0,-1
166766381,0.0489501953125,0.709228515625,0.02349853515625,-0.702880859375,-8236,286,-70,0,0,-1
166776362,0.0489501953125,0.709228515625,0.02349853515625,-0.702880859375,-8236,298,-69,0,0,-1
166786342,0.04901123046875,0.709228515625,0.02349853515625,-0.702880859375,-8232,303,-70,-1,-1,-1
166796328,0.0489501953125,0.709228515625,0.02349853515625,-0.702880859375,-8229,306,-67,0,0,-1
166806320,0.04901123046875,0.709228515625,0.02349853515625,-0.702880859375,-8231,309,-69,0,-1,0
166816302,0.04901123046875,0.709228515625,0.02349853515625,-0.702880859375,-8235,308,-71,0,0,0
166826278,0.04901123046875,0.709228515625,0.02349853515625,-0.702880859375,-8242,311,-63,-1,-1,-1
166836262,0.04901123046875,0.709228515625,0.02349853515625,-0.702880859375,-8244,302,-66,0,-1,0
166846249,0.0489501953125,0.709228515625,0.02349853515625,-0.702880859375,-8234,304,-75,0,0,-1
166856235,0.0489501953125,0.709228515625,0.02349853515625,-0.702880859375,-8237,291,-64,0,0,-1
166866219,0.0489501953125,0.709228515625,0.02349853515625,-0.702880859375,-8227,279,-62,0,-1,0
166876196,0.0489501953125,0.709228515625,0.02349853515625,-0.702880859375,-8229,298,-74,-1,-1,-1
166886179,0.0489501953125,0.709228515625,0.0235595703125,-0.702880859375,-8228,293,-75,0,-1,-1
166896168,0.0489501953125,0.709228515625,0.0235595703125,-0.702880859375,-8235,297,-73,0,0,-1
166906143,0.0489501953125,0.70928955078125,0.0235595703125,-0.70281982421875,-8236,298,-70,0,0,-1
166916122,0.0489501953125,0.70928955078125,0.0235595703125,-0.70281982421875,-8227,304,-59,-1,0,-1
166926106,0.0489501953125,0.70928955078125,0.02362060546875,-0.70281982421875,-8230,297,-59,0,-1,-1
166936096,0.0489501953125,0.709228515625,0.02362060546875,-0.702880859375,-8233,292,-62,0,-1,0
166946074,0.0489501953125,0.709228515625,0.02362060546875,-0.702880859375,-8234,292,-59,0,-1,0
166956060,0.0489501953125,0.709228515625,0.02362060546875,-0.702880859375,-8232,299,-68,-1,-1,0
166966049,0.0489501953125,0.709228515625,0.0235595703125,-0.702880859375,-8232,300,-64,0,-1,-1
166976016,0.0489501953125,0.709228515625,0.02362060546875,-0.702880859375,-8237,306,-64,0,-1,-1
166986009,0.0489501953125,0.709228515625,0.02362060546875,-0.702880859375,-8233,306,-50,0,0,-1
166995990,0.0489501953125,0.709228515625,0.02362060546875,-0.702880859375,-8233,301,-55,0,0,-1
167005977,0.0489501953125,0.709228515625,0.02362060546875,-0.702880859375,-8226,297,-60,0,-1,0
167015957,0.0489501953125,0.709228515625,0.02362060546875,-0.702880859375,-8227,294,-63,0,-1,-1
167025943,0.04888916015625,0.709228515625,0.02362060546875,-0.702880859375,-8232,288,-64,0,0,-1
167035922,0.04888916015625,0.709228515625,0.023681640625,-0.702880859375,-8237,292,-66,0,-1,-1
167045908,0.04888916015625,0.709228515625,0.02362060546875,-0.702880859375,-8232,307,-63,0,0,-1
167055897,0.04888916015625,0.709228515625,0.02362060546875,-0.702880859375,-8235,313,-72,0,-1,0
167065873,0.04888916015625,0.709228515625,0.02362060546875,-0.702880859375,-8229,317,-66,0,-1,0
167075861,0.0489501953125,0.709228515625,0.02362060546875,-0.702880859375,-8245,307,-75,0,0,-1
167085853,0.04888916015625,0.709228515625,0.02362060546875,-0.702880859375,-8239,301,-79,0,-1,-1
167095831,0.04888916015625,0.709228515625,0.02362060546875,-0.702880859375,-8235,309,-75,0,0,-1
167105800,0.04888916015625,0.70928955078125,0.02362060546875,-0.70281982421875,-8232,297,-81,0,0,-1
167115792,0.04888916015625,0.70928955078125,0.02362060546875,-0.70281982421875,-8225,299,-82,0,0,0
167125775,0.048828125,0.70928955078125,0.02362060546875,-0.70281982421875,-8220,300,-73,0,0,0
167135754,0.048828125,0.70928955078125,0.02362060546875,-0.70281982421875,-8219,296,-68,-1,-1,-1
167145736,0.04876708984375,0.70928955078125,0.02362060546875,-0.70281982421875,-8214,293,-72,0,0,-1
167155723,0.04876708984375,0.70928955078125,0.02362060546875,-0.70281982421875,-8222,297,-85,0,-1,0
167165704,0.04876708984375,0.70928955078125,0.02362060546875,-0.70281982421875,-8218,296,-89,0,-1,-1
167175689,0.04876708984375,0.70928955078125,0.02362060546875,-0.70281982421875,-8225,310,-72,0,0,-1
167185661,0.04876708984375,0.70928955078125,0.02362060546875,-0.70281982421875,-8237,302,-82,-1,-1,-1
167195665,0.04876708984375,0.70928955078125,0.02362060546875,-0.70281982421875,-8243,300,-82,0,0,0
167205641,0.04876708984375,0.70928955078125,0.02362060546875,-0.70281982421875,-8234,296,-73,-1,0,-1
167215619,0.04876708984375,0.70928955078125,0.02362060546875,-0.70281982421875,-8246,302,-76,0,0,-1
167225617,0.04876708984375,0.70928955078125,0.02362060546875,-0.70281982421875,-8246,307,-83,0,-1,0
167235605,0.04876708984375,0.70928955078125,0.02362060546875,-0.70281982421875,-8235,310,-82,0,0,-1
167245578,0.048828125,0.70928955078125,0.02362060546875,-0.70281982421875,-8241,306,-93,0,-1,-1
167255564,0.048828125,0.7093505859375,0.02362060546875,-0.7027587890625,-8235,312,-82,0,0,0
167265531,0.04888916015625,0.70928955078125,0.02362060546875,-0.70281982421875,-8235,305,-72,-1,-1,0
167275517,0.04888916015625,0.70928955078125,0.02362060546875,-0.70281982421875,-8223,301,-79,0,-1,-1
167285503,0.04888916015625,0.70928955078125,0.02362060546875,-0.70281982421875,-8230,301,-84,0,-1,0
167295487,0.048828125,0.70928955078125,0.02362060546875,-0.70281982421875,-8223,296,-72,0,0,-1
