subject,Two-hands and jerked
arm,neither
label,0
hz,100.17034452372206
time,5.460698

timestamp_us,q0,q1,q2,q3,ax,ay,az,gx,gy,gz
250260491,0.381591796875,0.5760498046875,-0.5428466796875,-0.4774169921875,-1083,7963,-2110,-1,4,3
250270479,0.38214111328125,0.5760498046875,-0.542724609375,-0.47698974609375,-1082,7956,-2086,-1,4,2
250280461,0.3826904296875,0.576171875,-0.5426025390625,-0.4766845703125,-1081,7958,-2056,-1,4,1
250290449,0.3831787109375,0.57635498046875,-0.542236328125,-0.47637939453125,-1079,7964,-2034,-2,5,-1
250300429,0.38360595703125,0.57666015625,-0.541748046875,-0.4761962890625,-1090,7970,-2005,-2,5,-2
250310412,0.384033203125,0.57696533203125,-0.541259765625,-0.47607421875,-1104,7988,-1993,-2,5,-3
250320398,0.38446044921875,0.5772705078125,-0.54071044921875,-0.47601318359375,-1100,8007,-1986,-3,4,-2
250330374,0.38494873046875,0.57745361328125,-0.540283203125,-0.47589111328125,-1096,8020,-1976,-3,4,-1
250340358,0.385498046875,0.57757568359375,-0.53985595703125,-0.475830078125,-1083,8012,-1965,-3,4,-1
250350350,0.38604736328125,0.57757568359375,-0.53948974609375,-0.47576904296875,-1090,8030,-1943,-4,3,0
250360328,0.3865966796875,0.57757568359375,-0.5390625,-0.47576904296875,-1102,8070,-1944,-4,3,-1
250370306,0.3870849609375,0.57757568359375,-0.53863525390625,-0.47589111328125,-1110,8092,-1944,-4,2,-1
250380293,0.387451171875,0.57763671875,-0.53814697265625,-0.47601318359375,-1124,8104,-1950,-4,2,-2
250390271,0.38775634765625,0.57769775390625,-0.53759765625,-0.476318359375,-1146,8076,-1960,-5,1,-4
250400256,0.38787841796875,0.577880859375,-0.5369873046875,-0.4766845703125,-1129,8025,-1989,-4,1,-5
250410242,0.3878173828125,0.57818603515625,-0.53631591796875,-0.4771728515625,-1111,7945,-2018,-4,0,-7
250420225,0.3875732421875,0.57855224609375,-0.53564453125,-0.4776611328125,-1107,7884,-2057,-4,0,-8
250430207,0.38726806640625,0.57904052734375,-0.534912109375,-0.4781494140625,-1112,7834,-2104,-3,0,-9
250440188,0.386962890625,0.57940673828125,-0.5343017578125,-0.47857666015625,-1137,7804,-2137,-3,-1,-7
250450184,0.38677978515625,0.57977294921875,-0.5338134765625,-0.4788818359375,-1153,7783,-2154,-3,0,-6
250460165,0.3865966796875,0.58001708984375,-0.53338623046875,-0.47918701171875,-1170,7786,-2177,-3,0,-5
250470140,0.386474609375,0.58026123046875,-0.53302001953125,-0.4793701171875,-1157,7797,-2198,-2,0,-5
250480119,0.3863525390625,0.58062744140625,-0.5325927734375,-0.4794921875,-1134,7821,-2213,-2,1,-6
250490099,0.38616943359375,0.58111572265625,-0.5321044921875,-0.4796142578125,-1088,7828,-2229,-1,2,-7
250500081,0.385986328125,0.581787109375,-0.531494140625,-0.4796142578125,-1050,7835,-2260,-1,3,-8
250510064,0.38580322265625,0.58245849609375,-0.5308837890625,-0.4796142578125,-1045,7865,-2280,-1,3,-8
250520051,0.38580322265625,0.5831298828125,-0.5302734375,-0.4794921875,-1041,7891,-2301,-1,4,-6
250530032,0.3858642578125,0.58392333984375,-0.529541015625,-0.47930908203125,-1022,7842,-2292,-1,6,-7
250540014,0.38616943359375,0.5845947265625,-0.5289306640625,-0.4788818359375,-1000,7833,-2271,-1,7,-4
250549996,0.38665771484375,0.58526611328125,-0.52838134765625,-0.47833251953125,-976,7850,-2265,-1,8,-3
250559987,0.38714599609375,0.5859375,-0.52777099609375,-0.47772216796875,-976,7901,-2263,-1,9,-4
250569961,0.3876953125,0.5867919921875,-0.5269775390625,-0.47711181640625,-972,7948,-2239,-1,10,-6
250579947,0.38812255859375,0.587890625,-0.52593994140625,-0.4765625,-991,8005,-2209,-1,12,-8
250589927,0.38873291015625,0.58905029296875,-0.52471923828125,-0.4759521484375,-1038,8064,-2184,-2,13,-8
250599912,0.38946533203125,0.5902099609375,-0.5235595703125,-0.47528076171875,-1072,8117,-2164,-2,14,-6
250609894,0.39044189453125,0.5911865234375,-0.5224609375,-0.47442626953125,-1125,8123,-2106,-3,15,-3
250619878,0.3916015625,0.592041015625,-0.5213623046875,-0.4736328125,-1174,8077,-2007,-3,15,-3
250629860,0.3927001953125,0.5928955078125,-0.5201416015625,-0.47296142578125,-1235,8011,-1902,-3,15,-4
250639841,0.3936767578125,0.59381103515625,-0.518798828125,-0.47247314453125,-1296,7938,-1815,-4,14,-5
250649825,0.39447021484375,0.59490966796875,-0.517333984375,-0.47210693359375,-1378,7892,-1763,-4,14,-8
250659809,0.39495849609375,0.5960693359375,-0.5157470703125,-0.47198486328125,-1480,7877,-1737,-3,12,-10
250669793,0.39520263671875,0.59722900390625,-0.5140380859375,-0.47210693359375,-1594,7880,-1705,-3,11,-11
250679771,0.395263671875,0.598388671875,-0.51239013671875,-0.47235107421875,-1708,7862,-1657,-3,9,-11
250689764,0.39520263671875,0.59942626953125,-0.510986328125,-0.47265625,-1806,7826,-1608,-2,7,-10
250699746,0.39508056640625,0.60015869140625,-0.5098876953125,-0.47296142578125,-1884,7806,-1560,-1,4,-7
250709738,0.39495849609375,0.6005859375,-0.50927734375,-0.47320556640625,-1950,7813,-1519,1,2,-3
250719719,0.3948974609375,0.6007080078125,-0.5091552734375,-0.47332763671875,-2000,7872,-1516,1,0,1
250729699,0.39471435546875,0.60052490234375,-0.50927734375,-0.4735107421875,-2015,7963,-1516,2,-3,3
250739681,0.3944091796875,0.60028076171875,-0.509521484375,-0.47381591796875,-2025,8069,-1538,2,-4,1
250749663,0.3939208984375,0.60009765625,-0.50958251953125,-0.474365234375,-1991,8173,-1583,1,-6,-2
250759642,0.39324951171875,0.60009765625,-0.50946044921875,-0.47509765625,-1894,8288,-1670,0,-6,-6
250769624,0.392578125,0.60009765625,-0.50921630859375,-0.475830078125,-1757,8390,-1794,-1,-6,-7
250779606,0.3922119140625,0.60003662109375,-0.50897216796875,-0.4765625,-1575,8507,-1927,-3,-5,-6
250789586,0.39227294921875,0.5997314453125,-0.5087890625,-0.47705078125,-1363,8605,-2069,-6,-4,-3
250799575,0.3929443359375,0.59918212890625,-0.5087890625,-0.4771728515625,-1134,8658,-2190,-7,-1,2
250809561,0.394287109375,0.598388671875,-0.50897216796875,-0.47686767578125,-932,8637,-2247,-9,3,7
250819542,0.396240234375,0.59735107421875,-0.50927734375,-0.4761962890625,-776,8528,-2199,-10,6,12
250829520,0.39862060546875,0.5963134765625,-0.5096435546875,-0.47515869140625,-672,8370,-2088,-10,9,15
250839504,0.401123046875,0.5953369140625,-0.5098876953125,-0.4739990234375,-618,8175,-1926,-9,11,15
250849486,0.4034423828125,0.5947265625,-0.50982666015625,-0.47283935546875,-623,7968,-1755,-7,13,12
250859469,0.40545654296875,0.59454345703125,-0.509521484375,-0.47161865234375,-672,7790,-1606,-5,14,8
250869453,0.40704345703125,0.59490966796875,-0.5089111328125,-0.47052001953125,-750,7635,-1507,-2,15,3
250879440,0.408203125,0.59576416015625,-0.50799560546875,-0.46942138671875,-822,7542,-1472,0,16,-2
250889425,0.40899658203125,0.596923828125,-0.50689697265625,-0.4683837890625,-899,7506,-1473,1,16,-5
250899408,0.4095458984375,0.59832763671875,-0.50579833984375,-0.46734619140625,-989,7524,-1515,3,16,-6
250909391,0.40997314453125,0.599853515625,-0.50469970703125,-0.46624755859375,-1082,7571,-1585,3,16,-6
250919367,0.41046142578125,0.60125732421875,-0.5037841796875,-0.46502685546875,-1201,7629,-1658,4,16,-4
250929350,0.410888671875,0.60260009765625,-0.50299072265625,-0.4637451171875,-1339,7686,-1722,4,16,-1
250939341,0.411376953125,0.60382080078125,-0.5023193359375,-0.46246337890625,-1483,7746,-1764,4,15,0
250949320,0.41180419921875,0.6048583984375,-0.5018310546875,-0.46124267578125,-1600,7804,-1773,4,14,1
250959301,0.4122314453125,0.60577392578125,-0.50140380859375,-0.4600830078125,-1662,7856,-1763,5,12,2
250969293,0.41265869140625,0.60662841796875,-0.50103759765625,-0.458984375,-1710,7913,-1734,4,12,2
250979271,0.4130859375,0.60736083984375,-0.5006103515625,-0.45806884765625,-1740,7951,-1721,4,11,1
250989257,0.41339111328125,0.608154296875,-0.5001220703125,-0.45733642578125,-1735,8000,-1717,3,10,-1
250999240,0.41357421875,0.60906982421875,-0.49932861328125,-0.45684814453125,-1707,8066,-1743,2,9,-5
251009221,0.41357421875,0.610107421875,-0.498291015625,-0.45660400390625,-1667,8105,-1784,1,8,-9
251019207,0.41351318359375,0.6112060546875,-0.49700927734375,-0.45648193359375,-1620,8095,-1831,0,9,-11
251029187,0.4134521484375,0.61236572265625,-0.4957275390625,-0.4564208984375,-1582,8058,-1869,-1,8,-10
251039176,0.4134521484375,0.61334228515625,-0.49462890625,-0.456298828125,-1552,8005,-1878,-1,8,-8
251049158,0.4136962890625,0.6141357421875,-0.49371337890625,-0.4560546875,-1534,7937,-1862,-1,8,-5
251059130,0.41400146484375,0.61474609375,-0.492919921875,-0.45574951171875,-1509,7852,-1824,-1,8,-4
251069112,0.4144287109375,0.61541748046875,-0.4920654296875,-0.45538330078125,-1447,7753,-1821,-1,9,-4
251079096,0.41473388671875,0.6162109375,-0.4912109375,-0.4549560546875,-1369,7651,-1813,-1,9,-6
251089084,0.41497802734375,0.61724853515625,-0.49017333984375,-0.4544677734375,-1320,7562,-1831,0,11,-8
251099062,0.4151611328125,0.61846923828125,-0.489013671875,-0.453857421875,-1289,7501,-1840,1,12,-8
251109051,0.4154052734375,0.6197509765625,-0.4879150390625,-0.453125,-1290,7445,-1841,2,13,-7
251119029,0.4156494140625,0.62103271484375,-0.4869384765625,-0.45208740234375,-1324,7412,-1834,3,14,-5
251129011,0.41595458984375,0.62237548828125,-0.48614501953125,-0.450927734375,-1348,7401,-1855,5,15,-3
251138997,0.41632080078125,0.6236572265625,-0.48541259765625,-0.44952392578125,-1349,7401,-1861,6,15,-2
251148985,0.41668701171875,0.625,-0.48486328125,-0.44793701171875,-1341,7402,-1899,7,16,-2
251158962,0.41693115234375,0.62646484375,-0.4842529296875,-0.4462890625,-1349,7405,-1928,7,17,-3
251168944,0.41717529296875,0.62811279296875,-0.4835205078125,-0.44464111328125,-1371,7416,-1962,8,17,-4
251178927,0.417236328125,0.62982177734375,-0.48272705078125,-0.4429931640625,-1381,7456,-2006,9,17,-6
251188912,0.41705322265625,0.6318359375,-0.48162841796875,-0.44146728515625,-1389,7480,-2059,9,18,-9
251198895,0.4166259765625,0.63409423828125,-0.4803466796875,-0.43994140625,-1372,7494,-2127,10,19,-13
251208878,0.416015625,0.63665771484375,-0.478759765625,-0.43853759765625,-1342,7522,-2191,11,19,-17
251218859,0.41522216796875,0.6395263671875,-0.4769287109375,-0.43719482421875,-1293,7555,-2232,11,20,-21
251228843,0.414306640625,0.642578125,-0.47479248046875,-0.43585205078125,-1240,7578,-2259,12,21,-24
251238827,0.41339111328125,0.6458740234375,-0.47235107421875,-0.4345703125,-1184,7625,-2287,12,22,-27
251248809,0.41253662109375,0.64923095703125,-0.4697265625,-0.4332275390625,-1133,7666,-2303,11,24,-27
251258792,0.411865234375,0.652587890625,-0.46710205078125,-0.431640625,-1047,7717,-2335,11,26,-27
251268775,0.41143798828125,0.65594482421875,-0.46441650390625,-0.4298095703125,-948,7772,-2384,10,29,-25
251278766,0.4114990234375,0.65911865234375,-0.4619140625,-0.4276123046875,-832,7835,-2469,9,31,-21
251288749,0.4119873046875,0.6622314453125,-0.4595947265625,-0.4249267578125,-717,7893,-2563,8,34,-17
251298731,0.41290283203125,0.66522216796875,-0.45721435546875,-0.42181396484375,-599,7975,-2641,7,37,-15
251308710,0.4141845703125,0.66827392578125,-0.45465087890625,-0.41845703125,-528,8087,-2727,5,41,-15
251318691,0.41583251953125,0.6715087890625,-0.4515380859375,-0.41510009765625,-472,8202,-2781,3,45,-18
251328675,0.4176025390625,0.6749267578125,-0.44775390625,-0.4117431640625,-441,8312,-2840,0,49,-23
251338659,0.419677734375,0.67864990234375,-0.4432373046875,-0.408447265625,-402,8392,-2905,-4,52,-27
251348641,0.42193603515625,0.6826171875,-0.43804931640625,-0.4051513671875,-367,8433,-2948,-6,56,-31
251358621,0.4244384765625,0.68670654296875,-0.43212890625,-0.40191650390625,-338,8458,-3002,-10,60,-34
251368605,0.4273681640625,0.69091796875,-0.4256591796875,-0.3985595703125,-302,8434,-3052,-13,64,-37
251378587,0.4305419921875,0.69512939453125,-0.41864013671875,-0.39508056640625,-299,8391,-3102,-17,67,-37
251388571,0.43414306640625,0.69940185546875,-0.41119384765625,-0.3914794921875,-316,8345,-3137,-20,71,-38
251398554,0.43817138671875,0.7034912109375,-0.4034423828125,-0.3876953125,-351,8297,-3174,-24,75,-37
251408542,0.442626953125,0.70745849609375,-0.3953857421875,-0.38372802734375,-405,8310,-3216,-27,78,-35
251418520,0.44769287109375,0.71112060546875,-0.38726806640625,-0.3792724609375,-441,8347,-3290,-30,82,-31
251428505,0.45330810546875,0.71453857421875,-0.379150390625,-0.37432861328125,-442,8409,-3366,-34,86,-27
251438486,0.45947265625,0.7177734375,-0.3709716796875,-0.368896484375,-428,8470,-3452,-36,90,-24
251448468,0.466064453125,0.7208251953125,-0.36248779296875,-0.3629150390625,-362,8512,-3541,-39,95,-23
251458452,0.47296142578125,0.72406005859375,-0.35345458984375,-0.3565673828125,-242,8497,-3656,-41,100,-25
251468433,0.47998046875,0.7274169921875,-0.3436279296875,-0.34979248046875,-79,8455,-3778,-44,107,-30
251478426,0.487060546875,0.7310791015625,-0.33294677734375,-0.3426513671875,117,8402,-3928,-45,113,-35
251488410,0.4942626953125,0.7349853515625,-0.3212890625,-0.3350830078125,276,8408,-4064,-47,120,-41
251498393,0.50146484375,0.73907470703125,-0.30865478515625,-0.3271484375,331,8501,-4214,-49,127,-44
251508370,0.50897216796875,0.7430419921875,-0.29541015625,-0.318603515625,486,8520,-4340,-51,134,-45
251518353,0.51666259765625,0.7470703125,-0.2813720703125,-0.3094482421875,571,8615,-4476,-54,141,-47
251528335,0.52459716796875,0.7508544921875,-0.2666015625,-0.29974365234375,610,8738,-4646,-58,147,-47
251538318,0.5328369140625,0.75445556640625,-0.251220703125,-0.2894287109375,628,8813,-4825,-62,154,-47
251548302,0.541259765625,0.75775146484375,-0.23504638671875,-0.2784423828125,653,8813,-4957,-66,161,-49
251558284,0.5498046875,0.76080322265625,-0.2177734375,-0.2672119140625,711,8760,-5067,-69,167,-55
251568267,0.55828857421875,0.763671875,-0.19921875,-0.25567626953125,785,8655,-5167,-73,174,-62
251578256,0.5667724609375,0.76617431640625,-0.17950439453125,-0.24383544921875,842,8494,-5296,-78,180,-66
251588239,0.57537841796875,0.76812744140625,-0.1588134765625,-0.23150634765625,858,8265,-5406,-84,187,-68
251598221,0.58416748046875,0.76947021484375,-0.13739013671875,-0.21844482421875,788,8000,-5484,-89,194,-66
251608206,0.59283447265625,0.77020263671875,-0.11529541015625,-0.20501708984375,228,7499,-5465,-92,198,-65
251618187,0.600830078125,0.770263671875,-0.0928955078125,-0.1922607421875,-433,7125,-5312,-90,194,-63
251628178,0.60845947265625,0.76959228515625,-0.0712890625,-0.1796875,-1124,6954,-5110,-89,187,-55
251638160,0.615478515625,0.76837158203125,-0.05059814453125,-0.16778564453125,-1775,6918,-4849,-85,177,-53
251648139,0.62176513671875,0.76666259765625,-0.0303955078125,-0.156982421875,-2257,6992,-4571,-81,167,-57
251658115,0.6273193359375,0.76458740234375,-0.010498046875,-0.147216796875,-2667,7123,-4268,-77,158,-62
251668095,0.63226318359375,0.76220703125,0.00885009765625,-0.1383056640625,-3105,7230,-4015,-73,151,-60
251678081,0.63671875,0.75958251953125,0.0272216796875,-0.1297607421875,-3518,7299,-3816,-70,143,-54
251688063,0.64068603515625,0.75677490234375,0.04449462890625,-0.1214599609375,-3890,7356,-3618,-67,135,-49
251698051,0.644287109375,0.75384521484375,0.06072998046875,-0.11346435546875,-4300,7415,-3432,-64,129,-43
251708030,0.64764404296875,0.750732421875,0.07586669921875,-0.10565185546875,-4742,7444,-3287,-62,122,-35
251718011,0.6507568359375,0.74749755859375,0.0897216796875,-0.09783935546875,-5173,7428,-3212,-60,116,-25
251727996,0.65374755859375,0.744384765625,0.10198974609375,-0.08978271484375,-5509,7395,-3194,-59,108,-13
251737987,0.65655517578125,0.74127197265625,0.11285400390625,-0.0814208984375,-5708,7333,-3135,-56,103,-5
251747964,0.65924072265625,0.7381591796875,0.12286376953125,-0.0732421875,-5802,7246,-3041,-54,97,-3
251757945,0.66162109375,0.7349853515625,0.13262939453125,-0.06585693359375,-5879,7144,-2930,-52,91,-7
251767928,0.6636962890625,0.7318115234375,0.14251708984375,-0.05963134765625,-6086,7034,-2840,-48,85,-14
251777912,0.6654052734375,0.72857666015625,0.1524658203125,-0.054931640625,-6427,6895,-2706,-44,77,-20
251787896,0.6668701171875,0.7254638671875,0.16204833984375,-0.0516357421875,-6796,6743,-2475,-39,66,-22
251797879,0.66815185546875,0.72235107421875,0.1707763671875,-0.04949951171875,-7084,6558,-2180,-33,55,-21
251807861,0.6693115234375,0.7196044921875,0.17816162109375,-0.04827880859375,-7206,6370,-1856,-28,43,-19
251817843,0.6702880859375,0.71722412109375,0.18414306640625,-0.04779052734375,-7190,6223,-1575,-22,32,-15
251827826,0.67108154296875,0.71527099609375,0.1888427734375,-0.04791259765625,-7066,6136,-1380,-17,21,-13
251837809,0.67169189453125,0.713623046875,0.19244384765625,-0.0487060546875,-6900,6131,-1234,-13,12,-12
251847793,0.67218017578125,0.71234130859375,0.19512939453125,-0.050048828125,-6661,6199,-1118,-9,4,-10
251857768,0.672607421875,0.71136474609375,0.197021484375,-0.05181884765625,-6354,6364,-979,-6,-2,-10
251867756,0.67303466796875,0.7105712890625,0.197998046875,-0.0537109375,-5952,6606,-826,-4,-7,-7
251877740,0.6734619140625,0.7099609375,0.19805908203125,-0.0552978515625,-5488,6895,-721,-2,-10,-3
251887720,0.674072265625,0.70953369140625,0.19732666015625,-0.05633544921875,-5046,7219,-608,-3,-11,3
251897701,0.67486572265625,0.70916748046875,0.19580078125,-0.05670166015625,-4642,7528,-522,-5,-12,11
251907683,0.67584228515625,0.7088623046875,0.193603515625,-0.05621337890625,-4274,7740,-446,-6,-10,18
251917665,0.677001953125,0.70855712890625,0.19091796875,-0.054931640625,-3939,7876,-375,-8,-9,24
251927649,0.67822265625,0.7083740234375,0.1878662109375,-0.05303955078125,-3590,7986,-304,-8,-7,28
251937635,0.679443359375,0.70819091796875,0.184814453125,-0.05072021484375,-3251,8068,-239,-9,-5,29
251947614,0.6806640625,0.70794677734375,0.18194580078125,-0.0482177734375,-2937,8097,-173,-9,-3,27
251957603,0.6817626953125,0.70758056640625,0.17974853515625,-0.04595947265625,-2633,7991,-124,-9,0,20
251967582,0.6827392578125,0.70697021484375,0.17889404296875,-0.04443359375,-2329,7785,-98,-9,3,6
251977565,0.68341064453125,0.7061767578125,0.1796875,-0.04400634765625,-2161,7563,-79,-8,6,-10
251987545,0.68377685546875,0.7052001953125,0.181884765625,-0.04449462890625,-2033,7281,-79,-6,9,-22
251997527,0.683837890625,0.7042236328125,0.1851806640625,-0.045654296875,-1915,7087,-119,-4,12,-32
252007509,0.6834716796875,0.70330810546875,0.189453125,-0.04736328125,-1854,6880,-114,-1,15,-40
252017499,0.68280029296875,0.7025146484375,0.1943359375,-0.04925537109375,-1808,6710,-108,2,18,-43
252027476,0.68182373046875,0.70196533203125,0.19921875,-0.05072021484375,-1795,6594,-99,4,21,-39
252037466,0.68060302734375,0.7017822265625,0.203857421875,-0.051513671875,-1825,6513,-89,7,24,-32
252047452,0.6790771484375,0.7020263671875,0.20806884765625,-0.0513916015625,-1848,6499,-65,10,28,-24
252057430,0.67730712890625,0.70257568359375,0.21209716796875,-0.050537109375,-1868,6513,-39,12,32,-20
252067422,0.67529296875,0.70330810546875,0.21636962890625,-0.04925537109375,-1905,6577,-33,14,36,-19
252077404,0.673095703125,0.70404052734375,0.22100830078125,-0.0477294921875,-1959,6666,-26,14,40,-21
252087389,0.67071533203125,0.7047119140625,0.2264404296875,-0.04620361328125,-2019,6738,-43,14,44,-27
252097365,0.66815185546875,0.7052001953125,0.23284912109375,-0.04498291015625,-2105,6755,-64,15,49,-34
252107350,0.665283203125,0.7054443359375,0.24029541015625,-0.04400634765625,-2197,6724,-104,15,53,-43
252117330,0.66217041015625,0.7054443359375,0.24884033203125,-0.04339599609375,-2307,6652,-140,16,58,-50
252127314,0.65875244140625,0.70526123046875,0.25836181640625,-0.04296875,-2404,6568,-187,16,62,-57
252137297,0.655029296875,0.70489501953125,0.26861572265625,-0.0426025390625,-2512,6464,-259,17,67,-61
252147280,0.65106201171875,0.704345703125,0.279541015625,-0.042236328125,-2628,6350,-327,17,71,-65
252157263,0.646728515625,0.7037353515625,0.2908935546875,-0.0416259765625,-2723,6215,-413,18,75,-66
252167243,0.64208984375,0.703125,0.3026123046875,-0.040771484375,-2831,6114,-516,18,79,-66
252177234,0.63714599609375,0.70245361328125,0.31451416015625,-0.03948974609375,-2980,6032,-649,19,83,-64
252187218,0.63189697265625,0.701904296875,0.3262939453125,-0.03765869140625,-3132,5946,-796,19,87,-59
252197206,0.6263427734375,0.7017822265625,0.33746337890625,-0.034912109375,-3314,5865,-954,20,89,-48
252209995,0.62054443359375,0.70208740234375,0.3477783203125,-0.0311279296875,-3493,5779,-1102,21,92,-36
252217174,0.61444091796875,0.70281982421875,0.357421875,-0.02655029296875,-3672,5700,-1218,23,93,-27
252227155,0.6080322265625,0.70379638671875,0.36663818359375,-0.02154541015625,-3838,5632,-1383,25,96,-23
252237126,0.6011962890625,0.70477294921875,0.3760986328125,-0.0167236328125,-3971,5560,-1598,27,96,-26
252247110,0.59393310546875,0.70556640625,0.38623046875,-0.0128173828125,-4335,5329,-2008,30,94,-35
252257094,0.58612060546875,0.70611572265625,0.39703369140625,-0.01055908203125,-4648,5226,-2330,36,89,-44
252267077,0.57830810546875,0.706787109375,0.4072265625,-0.00897216796875,-4835,5333,-2570,39,83,-42
252277059,0.57061767578125,0.70770263671875,0.41644287109375,-0.00726318359375,-4904,5632,-2822,40,78,-37
252287042,0.56304931640625,0.70867919921875,0.425048828125,-0.0054931640625,-4935,6021,-3147,38,75,-36
252297024,0.5557861328125,0.709228515625,0.43353271484375,-0.00384521484375,-4935,6394,-3455,35,72,-41
252307012,0.5489501953125,0.70904541015625,0.44244384765625,-0.00262451171875,-4926,6678,-3692,31,70,-48
252316996,0.54278564453125,0.70806884765625,0.4515380859375,-0.00164794921875,-4923,6867,-3805,25,68,-53
252326982,0.5372314453125,0.7066650390625,0.4603271484375,-0.00054931640625,-4928,6955,-3842,19,65,-50
252336958,0.5322265625,0.7052001953125,0.46826171875,0.0009765625,-5019,7022,-3932,16,62,-42
252346942,0.52764892578125,0.7041015625,0.47503662109375,0.002685546875,-5157,7050,-4050,14,56,-32
252356925,0.5235595703125,0.70361328125,0.4803466796875,0.004638671875,-5293,7132,-4174,13,49,-19
252366907,0.5198974609375,0.70355224609375,0.48431396484375,0.0067138671875,-5429,7227,-4282,12,43,-10
252376890,0.51690673828125,0.70355224609375,0.4874267578125,0.00860595703125,-5525,7334,-4363,9,36,-9
252386878,0.5145263671875,0.703125,0.4906005859375,0.0098876953125,-5552,7403,-4445,6,30,-15
252396857,0.51275634765625,0.7020263671875,0.49395751953125,0.010498046875,-5502,7465,-4547,3,24,-22
252406837,0.51153564453125,0.70050048828125,0.49737548828125,0.01068115234375,-5422,7468,-4652,-1,19,-26
252416817,0.51080322265625,0.69873046875,0.50054931640625,0.0106201171875,-5338,7412,-4710,-4,14,-25
252426801,0.5106201171875,0.69708251953125,0.50311279296875,0.0106201171875,-5259,7307,-4702,-7,10,-20
252436784,0.5108642578125,0.69586181640625,0.5045166015625,0.01092529296875,-5163,7176,-4675,-9,6,-9
252446767,0.51141357421875,0.6953125,0.50469970703125,0.0118408203125,-5019,7063,-4699,-10,2,4
252456751,0.5120849609375,0.695556640625,0.503662109375,0.01336669921875,-4872,6968,-4742,-11,-1,16
252466732,0.512939453125,0.696533203125,0.50140380859375,0.01544189453125,-4714,6866,-4766,-12,-3,27
252476708,0.5137939453125,0.69805908203125,0.498291015625,0.01788330078125,-4583,6714,-4722,-11,-5,36
252486690,0.5146484375,0.7000732421875,0.4945068359375,0.02044677734375,-4463,6511,-4610,-9,-7,41
252496674,0.5155029296875,0.7022705078125,0.4903564453125,0.0228271484375,-4388,6279,-4407,-7,-9,44
252506657,0.516357421875,0.70452880859375,0.486083984375,0.02471923828125,-4328,6052,-4174,-4,-11,43
252516644,0.51702880859375,0.7069091796875,0.48187255859375,0.026123046875,-4253,5844,-3965,0,-13,41
252526624,0.5174560546875,0.70941162109375,0.47772216796875,0.02703857421875,-4161,5695,-3817,4,-14,39
252536608,0.51751708984375,0.7120361328125,0.4736328125,0.02752685546875,-4034,5571,-3719,8,-16,37
252546590,0.5172119140625,0.71478271484375,0.46978759765625,0.02752685546875,-3901,5479,-3661,13,-16,34
252556573,0.5164794921875,0.7177734375,0.466064453125,0.027099609375,-3761,5408,-3622,18,-17,32
252566556,0.5152587890625,0.72100830078125,0.46246337890625,0.02630615234375,-3637,5381,-3619,23,-17,31
252576542,0.51361083984375,0.724609375,0.458740234375,0.02532958984375,-3505,5401,-3619,28,-17,32
252586527,0.511474609375,0.7286376953125,0.4547119140625,0.0242919921875,-3394,5477,-3649,32,-17,36
252596510,0.50897216796875,0.733154296875,0.4503173828125,0.0234375,-3289,5625,-3723,36,-16,40
252606492,0.506103515625,0.73797607421875,0.4456787109375,0.022705078125,-3184,5826,-3846,39,-16,41
252616475,0.5030517578125,0.74267578125,0.44134521484375,0.02178955078125,-3088,6027,-3996,40,-15,37
252626459,0.49981689453125,0.7470703125,0.4376220703125,0.02056884765625,-3014,6221,-4167,41,-14,29
252636449,0.4964599609375,0.75103759765625,0.43475341796875,0.0189208984375,-2959,6391,-4337,41,-13,21
252646431,0.49298095703125,0.754638671875,0.4324951171875,0.01702880859375,-2914,6524,-4483,41,-11,16
252656413,0.48944091796875,0.758056640625,0.43060302734375,0.01513671875,-2894,6577,-4571,41,-10,13
252666398,0.4859619140625,0.76129150390625,0.42889404296875,0.01312255859375,-2905,6533,-4569,41,-9,12
252676373,0.48248291015625,0.764404296875,0.4273681640625,0.0111083984375,-2919,6463,-4510,41,-8,11
252686357,0.47906494140625,0.7674560546875,0.42584228515625,0.00909423828125,-2934,6388,-4431,40,-8,11
252696339,0.47576904296875,0.7703857421875,0.42431640625,0.0072021484375,-2924,6349,-4372,39,-7,12
252706322,0.47259521484375,0.77337646484375,0.42242431640625,0.00555419921875,-2900,6382,-4362,38,-8,15
252716305,0.469482421875,0.77655029296875,0.41998291015625,0.0042724609375,-2878,6405,-4424,37,-8,21
252726293,0.46649169921875,0.78009033203125,0.41680908203125,0.00341796875,-2859,6456,-4515,35,-9,28
252736271,0.46368408203125,0.78375244140625,0.41302490234375,0.0029296875,-2885,6480,-4607,34,-10,34
252746256,0.4610595703125,0.78753662109375,0.4088134765625,0.00244140625,-2947,6483,-4626,33,-12,38
252756245,0.45867919921875,0.79144287109375,0.4039306640625,0.00201416015625,-2868,6505,-4624,33,-14,43
252766227,0.456298828125,0.79559326171875,0.39837646484375,0.00201416015625,-2471,6539,-4646,32,-17,47
252776210,0.45391845703125,0.800048828125,0.39215087890625,0.00244140625,-2252,6656,-4680,32,-18,51
252786190,0.4517822265625,0.80450439453125,0.385498046875,0.002685546875,-2233,6789,-4727,32,-20,56
252796184,0.44970703125,0.8089599609375,0.3785400390625,0.0028076171875,-2211,6833,-4766,32,-20,57
252806165,0.44769287109375,0.8131103515625,0.37188720703125,0.00262451171875,-2191,6849,-4754,31,-22,51
252816140,0.4459228515625,0.81683349609375,0.36590576171875,0.001953125,-2227,6838,-4769,30,-23,44
252826118,0.4442138671875,0.82025146484375,0.36029052734375,0.000732421875,-2291,6814,-4806,29,-24,41
252836103,0.44268798828125,0.82342529296875,0.35479736328125,-0.00048828125,-2075,6931,-4540,28,-25,39
252846084,0.441650390625,0.82611083984375,0.34979248046875,-0.00146484375,-1865,7297,-4326,28,-23,27
252856068,0.4405517578125,0.82818603515625,0.3463134765625,-0.00286865234375,-1706,7646,-4425,26,-21,15
252866051,0.43951416015625,0.82958984375,0.34423828125,-0.00469970703125,-1524,8126,-4472,25,-20,-1
252876029,0.43878173828125,0.8299560546875,0.3441162109375,-0.007080078125,-1391,8664,-4397,23,-18,-23
252886012,0.43841552734375,0.8291015625,0.3466796875,-0.0106201171875,-1392,9103,-4339,22,-16,-49
252895996,0.43798828125,0.8270263671875,0.35186767578125,-0.015380859375,-1563,9330,-4511,20,-15,-73
252905986,0.43719482421875,0.82421875,0.359130859375,-0.0213623046875,-2044,9419,-5018,19,-14,-89
252915964,0.4361572265625,0.82073974609375,0.36773681640625,-0.028564453125,-2998,9545,-5748,18,-16,-98
252925946,0.435302734375,0.81671142578125,0.3768310546875,-0.037109375,-4216,9766,-6534,16,-21,-102
252935931,0.43487548828125,0.8126220703125,0.38507080078125,-0.04608154296875,-5246,10077,-7300,14,-28,-93
252945913,0.4351806640625,0.80914306640625,0.39093017578125,-0.0543212890625,-5994,10458,-8005,10,-35,-70
252955899,0.4364013671875,0.806884765625,0.39324951171875,-0.0611572265625,-6618,10888,-8647,5,-41,-38
252965878,0.438720703125,0.80584716796875,0.3919677734375,-0.06640625,-7222,11254,-9166,-2,-48,-4
252975862,0.44244384765625,0.80560302734375,0.3875732421875,-0.07061767578125,-7747,11443,-9465,-10,-55,22
252985842,0.44720458984375,0.8055419921875,0.38140869140625,-0.074462890625,-8102,11381,-9566,-17,-62,34
252995825,0.45294189453125,0.80499267578125,0.3748779296875,-0.07879638671875,-8333,11153,-9542,-24,-70,31
253005809,0.459228515625,0.8035888671875,0.3690185546875,-0.0841064453125,-8459,10858,-9468,-31,-77,20
253015791,0.46612548828125,0.80126953125,0.3638916015625,-0.09027099609375,-8425,10539,-9331,-36,-83,10
253025770,0.4735107421875,0.79833984375,0.3590087890625,-0.0970458984375,-8285,10244,-9178,-41,-89,5
253035763,0.48138427734375,0.79498291015625,0.35400390625,-0.10394287109375,-8122,9993,-9030,-46,-93,5
253045747,0.48968505859375,0.79150390625,0.34844970703125,-0.110595703125,-7935,9774,-8904,-51,-95,10
253055723,0.49847412109375,0.78778076171875,0.34234619140625,-0.11676025390625,-7677,9470,-8680,-56,-97,14
253065707,0.5074462890625,0.78375244140625,0.33624267578125,-0.12274169921875,-7306,8913,-8263,-59,-97,12
253075690,0.516357421875,0.779052734375,0.3311767578125,-0.12933349609375,-6892,8141,-7700,-61,-96,0
253085672,0.52484130859375,0.7735595703125,0.32769775390625,-0.13671875,-6299,7288,-6942,-60,-94,-16
253095654,0.53289794921875,0.7674560546875,0.32550048828125,-0.1446533203125,-5435,6370,-6093,-59,-91,-30
253105636,0.5404052734375,0.7613525390625,0.3240966796875,-0.15240478515625,-4328,5415,-5226,-55,-85,-34
253115622,0.54736328125,0.75567626953125,0.32244873046875,-0.15911865234375,-3112,4460,-4359,-52,-79,-28
253125604,0.55389404296875,0.7508544921875,0.31988525390625,-0.16424560546875,-1860,3504,-3553,-47,-70,-14
253135595,0.5599365234375,0.74725341796875,0.31622314453125,-0.16729736328125,-671,2571,-2819,-42,-59,4
253145573,0.5654296875,0.74481201171875,0.3115234375,-0.16839599609375,367,1705,-2142,-37,-49,20
253155555,0.5703125,0.7435302734375,0.30609130859375,-0.167724609375,1296,973,-1553,-30,-38,35
253165542,0.57452392578125,0.74359130859375,0.299560546875,-0.1649169921875,2121,322,-1067,-23,-25,54
253175521,0.5780029296875,0.74505615234375,0.29180908203125,-0.15985107421875,2745,-289,-644,-16,-14,75
253185501,0.5806884765625,0.7479248046875,0.282958984375,-0.15264892578125,3125,-824,-270,-7,-2,94
253195490,0.5823974609375,0.75189208984375,0.2733154296875,-0.143798828125,3294,-1185,47,2,8,108
253205469,0.5831298828125,0.756591796875,0.2635498046875,-0.13409423828125,3293,-1383,331,11,17,111
253215454,0.58270263671875,0.7615966796875,0.25469970703125,-0.12432861328125,3137,-1353,571,19,25,102
253225433,0.5810546875,0.76654052734375,0.24774169921875,-0.11553955078125,2847,-1121,778,27,31,82
253235425,0.57830810546875,0.77099609375,0.2435302734375,-0.1082763671875,2455,-738,921,33,37,54
253245408,0.57440185546875,0.77484130859375,0.24273681640625,-0.10308837890625,2000,-265,968,39,42,20
253255392,0.56939697265625,0.7779541015625,0.2457275390625,-0.10040283203125,1408,326,840,44,46,-18
253265363,0.56317138671875,0.7802734375,0.2528076171875,-0.10028076171875,655,997,497,48,50,-56
253275350,0.5557861328125,0.78173828125,0.263427734375,-0.1024169921875,-91,1794,-20,52,53,-89
253285330,0.54754638671875,0.78253173828125,0.276611328125,-0.10614013671875,-864,2613,-637,54,55,-112
253295312,0.53887939453125,0.78277587890625,0.2908935546875,-0.11041259765625,-1565,3409,-1276,53,56,-119
253305296,0.530029296875,0.78289794921875,0.304931640625,-0.1143798828125,-2306,4045,-1924,52,57,-113
253315279,0.5213623046875,0.7830810546875,0.31787109375,-0.11773681640625,-3113,4569,-2564,50,56,-100
253325263,0.512939453125,0.7835693359375,0.3292236328125,-0.12042236328125,-3963,4914,-3216,48,53,-83
253335245,0.50482177734375,0.78448486328125,0.338623046875,-0.1224365234375,-4778,5088,-3834,47,49,-63
253345241,0.4970703125,0.7861328125,0.345703125,-0.123779296875,-5457,5158,-4341,47,43,-41
253355225,0.48974609375,0.78863525390625,0.3502197265625,-0.1243896484375,-5923,5136,-4708,49,38,-18
253365211,0.4827880859375,0.79205322265625,0.352294921875,-0.12408447265625,-6169,5024,-4979,50,34,4
253375187,0.4759521484375,0.79644775390625,0.35205078125,-0.122802734375,-6213,4879,-5238,53,32,24
253385178,0.46893310546875,0.80169677734375,0.35015869140625,-0.12091064453125,-6212,4766,-5511,56,30,37
253395164,0.46173095703125,0.80731201171875,0.34765625,-0.1190185546875,-6165,4679,-5715,60,28,39
253405139,0.45404052734375,0.81268310546875,0.34552001953125,-0.1177978515625,-6038,4604,-5821,64,27,30
253415115,0.4456787109375,0.817626953125,0.34478759765625,-0.11767578125,-5910,4427,-5912,69,26,11
253425101,0.43634033203125,0.8218994140625,0.34613037109375,-0.119140625,-5840,4181,-6010,74,26,-10
253435079,0.42608642578125,0.8255615234375,0.3492431640625,-0.12176513671875,-5665,3968,-6038,80,27,-28
253445063,0.4150390625,0.828857421875,0.3536376953125,-0.12493896484375,-5379,3769,-5976,86,29,-40
253455051,0.4033203125,0.83197021484375,0.358642578125,-0.128173828125,-5012,3588,-5817,90,32,-45
253465030,0.39105224609375,0.835205078125,0.36370849609375,-0.1309814453125,-4573,3477,-5604,94,37,-46
253475013,0.3782958984375,0.83843994140625,0.36895751953125,-0.13323974609375,-4226,3342,-5446,97,42,-47
253484996,0.36480712890625,0.841552734375,0.37469482421875,-0.13519287109375,-4055,3160,-5381,99,49,-50
253494985,0.35064697265625,0.84454345703125,0.3807373046875,-0.13677978515625,-3983,2996,-5381,102,55,-51
253504964,0.33599853515625,0.8477783203125,0.386474609375,-0.13751220703125,-3817,2925,-5420,104,62,-45
253514946,0.3211669921875,0.8515625,0.3909912109375,-0.1368408203125,-3622,2922,-5502,105,68,-30
253524928,0.30621337890625,0.856201171875,0.39361572265625,-0.1346435546875,-3484,2943,-5625,105,74,-11
253534915,0.2911376953125,0.861572265625,0.39447021484375,-0.13134765625,-3479,2828,-5847,107,79,7
253544893,0.275634765625,0.86749267578125,0.3939208984375,-0.12750244140625,-3666,2623,-6148,109,83,19
253554878,0.25958251953125,0.87347412109375,0.39276123046875,-0.12371826171875,-3950,2322,-6503,112,84,23
253564858,0.24285888671875,0.87921142578125,0.39166259765625,-0.12042236328125,-4260,1970,-6817,117,84,20
253574843,0.22552490234375,0.88458251953125,0.390869140625,-0.11773681640625,-4530,1655,-7076,122,84,15
253584827,0.207763671875,0.88934326171875,0.39044189453125,-0.115478515625,-4685,1533,-7266,125,83,8
253594808,0.1900634765625,0.8936767578125,0.3902587890625,-0.11328125,-4716,1637,-7362,126,82,3
253604794,0.1727294921875,0.89739990234375,0.39044189453125,-0.11090087890625,-4660,1925,-7441,125,83,-2
253614771,0.15606689453125,0.900634765625,0.390869140625,-0.10797119140625,-4514,2288,-7554,120,84,-6
253624763,0.14013671875,0.90338134765625,0.39154052734375,-0.10430908203125,-4339,2593,-7762,113,86,-8
253634744,0.125,0.90576171875,0.39227294921875,-0.099853515625,-4139,2837,-8018,105,89,-7
253644722,0.1107177734375,0.907958984375,0.392822265625,-0.09442138671875,-3986,2993,-8312,95,93,-5
253654713,0.0975341796875,0.91009521484375,0.3929443359375,-0.0880126953125,-3873,3158,-8584,85,96,0
253664691,0.0858154296875,0.9119873046875,0.39276123046875,-0.080810546875,-3859,3232,-8797,73,99,3
253674674,0.0751953125,0.91375732421875,0.392333984375,-0.0732421875,-3902,3128,-9055,62,99,6
253684656,0.06561279296875,0.9154052734375,0.3916015625,-0.0653076171875,-3880,2912,-9385,52,98,10
253694640,0.05694580078125,0.91717529296875,0.39013671875,-0.05706787109375,-3743,2661,-9694,44,96,18
253704624,0.04913330078125,0.919189453125,0.38763427734375,-0.04876708984375,-3557,2416,-9953,37,93,27
253714608,0.04217529296875,0.9215087890625,0.38385009765625,-0.040283203125,-3290,2305,-10105,31,90,39
253724590,0.03607177734375,0.9241943359375,0.37884521484375,-0.0316162109375,-2957,2227,-10199,26,87,49
253734571,0.03045654296875,0.92706298828125,0.372802734375,-0.0228271484375,-2606,2066,-10313,22,86,57
253744555,0.025146484375,0.93011474609375,0.3660888671875,-0.01416015625,-2238,1818,-10426,18,84,62
253754542,0.0198974609375,0.9329833984375,0.359130859375,-0.0054931640625,-1901,1454,-10545,17,82,62
253764521,0.0142822265625,0.93572998046875,0.35235595703125,0.002685546875,-1594,983,-10699,18,80,61
253774506,0.00836181640625,0.93829345703125,0.345458984375,0.01055908203125,-1235,607,-10768,20,78,62
253784489,0.0023193359375,0.94091796875,0.3380126953125,0.01849365234375,-795,450,-10700,22,77,67
253794476,-0.00360107421875,0.9437255859375,0.32958984375,0.02630615234375,-403,492,-10538,23,75,76
253804458,-0.00927734375,0.94677734375,0.31988525390625,0.0340576171875,2,647,-10347,24,73,87
253814435,-0.014892578125,0.949951171875,0.30914306640625,0.04193115234375,461,701,-10174,24,73,94
253824426,-0.0208740234375,0.95306396484375,0.2978515625,0.0498046875,907,527,-10113,24,72,97
253834410,-0.02740478515625,0.95587158203125,0.28662109375,0.05767822265625,1343,250,-10133,26,73,94
253844394,-0.03424072265625,0.95819091796875,0.276123046875,0.06573486328125,1804,54,-10132,28,75,87
253854371,-0.04095458984375,0.9600830078125,0.26641845703125,0.07415771484375,2233,18,-10067,27,77,81
253864354,-0.0472412109375,0.96160888671875,0.25714111328125,0.08294677734375,2562,119,-9986,25,78,77
253874337,-0.0528564453125,0.962890625,0.248046875,0.09197998046875,2927,284,-9950,21,78,76
253884319,-0.057861328125,0.9639892578125,0.23870849609375,0.101318359375,3368,374,-9956,16,79,78
253894302,-0.06231689453125,0.9649658203125,0.22906494140625,0.111083984375,3855,386,-9984,10,80,78
253904284,-0.066162109375,0.96563720703125,0.2198486328125,0.12139892578125,4361,307,-9984,4,82,72
253914266,-0.0693359375,0.9658203125,0.2117919921875,0.13226318359375,4855,160,-9937,-2,85,59
253924244,-0.07183837890625,0.96533203125,0.2054443359375,0.14385986328125,5314,29,-9877,-7,88,43
253934235,-0.073486328125,0.96435546875,0.200439453125,0.15618896484375,5696,-68,-9725,-13,92,31
253944218,-0.07427978515625,0.9630126953125,0.19598388671875,0.16900634765625,5909,-159,-9530,-20,95,26
253954206,-0.07440185546875,0.96148681640625,0.1917724609375,0.18206787109375,5970,-304,-9314,-26,97,23
253964189,-0.0740966796875,0.95977783203125,0.18768310546875,0.1949462890625,5851,-612,-9109,-30,97,20
253974174,-0.07366943359375,0.95794677734375,0.18389892578125,0.207275390625,5519,-998,-8951,-32,96,15
253984158,-0.07293701171875,0.9560546875,0.1810302734375,0.21868896484375,5044,-1223,-8786,-32,92,7
253994128,-0.07159423828125,0.9539794921875,0.1793212890625,0.229248046875,4472,-1261,-8500,-32,85,-3
254004105,-0.06976318359375,0.951904296875,0.17889404296875,0.23846435546875,3807,-1198,-8155,-30,76,-13
254014089,-0.06756591796875,0.95001220703125,0.17962646484375,0.24615478515625,3076,-1132,-7764,-28,64,-21
254024072,-0.0653076171875,0.94830322265625,0.1812744140625,0.251953125,2356,-1118,-7350,-23,50,-27
254034054,-0.0633544921875,0.947021484375,0.18365478515625,0.25567626953125,1619,-1216,-6981,-17,35,-31
254044035,-0.0621337890625,0.94610595703125,0.186767578125,0.2569580078125,857,-1414,-6706,-8,18,-33
254054017,-0.0618896484375,0.94573974609375,0.1905517578125,0.25555419921875,90,-1663,-6511,4,0,-35
254063998,-0.06292724609375,0.9459228515625,0.1949462890625,0.25128173828125,-734,-2026,-6432,19,-19,-36
254073986,-0.0653076171875,0.94671630859375,0.20013427734375,0.24371337890625,-1552,-2390,-6493,34,-41,-37
254083964,-0.0692138671875,0.94793701171875,0.20587158203125,0.23272705078125,-2233,-2686,-6642,52,-64,-36
254093948,-0.07452392578125,0.9495849609375,0.21185302734375,0.21868896484375,-2705,-2836,-6823,69,-86,-32
254103930,-0.0810546875,0.9515380859375,0.217529296875,0.20147705078125,-3057,-2820,-7060,84,-109,-22
254113914,-0.08868408203125,0.953857421875,0.22216796875,0.18121337890625,-3343,-2704,-7384,98,-130,-8
254123902,-0.09722900390625,0.9564208984375,0.2254638671875,0.15771484375,-3623,-2512,-7762,110,-152,7
254133886,-0.10626220703125,0.958984375,0.2275390625,0.1312255859375,-3898,-2280,-8208,120,-174,19
254143868,-0.1153564453125,0.96112060546875,0.22900390625,0.1019287109375,-4165,-1974,-8737,128,-195,24
254153853,-0.1241455078125,0.96258544921875,0.23028564453125,0.070068359375,-4356,-1602,-9266,134,-215,25
254163835,-0.13214111328125,0.963134765625,0.2314453125,0.03607177734375,-4427,-1175,-9750,136,-235,27
254173818,-0.13922119140625,0.96270751953125,0.23187255859375,0.00030517578125,-4338,-690,-10127,135,-253,34
254183799,-0.1446533203125,0.96136474609375,0.23114013671875,-0.0367431640625,-4148,-67,-10350,130,-270,45
254193784,-0.14825439453125,0.959228515625,0.2286376953125,-0.07470703125,-3947,329,-10610,121,-283,59
254203771,-0.15008544921875,0.95623779296875,0.22369384765625,-0.11395263671875,-3886,304,-10961,109,-296,80
254213758,-0.14971923828125,0.952392578125,0.21612548828125,-0.15411376953125,-3847,164,-11300,95,-308,102
254223740,-0.14703369140625,0.947509765625,0.20648193359375,-0.194580078125,-3742,-4,-11575,80,-317,119
254233718,-0.14178466796875,0.9415283203125,0.1954345703125,-0.2347412109375,-3504,-134,-11707,63,-325,131
254243702,-0.13397216796875,0.9344482421875,0.18353271484375,-0.27398681640625,-3151,-216,-11678,43,-328,141
254253684,-0.12322998046875,0.9263916015625,0.171142578125,-0.31195068359375,-2930,-156,-11574,21,-327,147
254263664,-0.109619140625,0.9171142578125,0.15899658203125,-0.3486328125,-3001,9,-11445,-2,-326,146
254273644,-0.09368896484375,0.90667724609375,0.1480712890625,-0.38372802734375,-3255,112,-11304,-25,-321,137
254283626,-0.0760498046875,0.89495849609375,0.138916015625,-0.41705322265625,-3581,16,-11219,-46,-317,128
254293609,-0.05712890625,0.8822021484375,0.1312255859375,-0.44854736328125,-3929,-205,-11232,-64,-312,122
254303593,-0.03704833984375,0.8685302734375,0.12432861328125,-0.478271484375,-4208,-413,-11296,-78,-307,121
254313576,-0.015869140625,0.85418701171875,0.11785888671875,-0.50616455078125,-4356,-524,-11357,-90,-302,124
254323559,0.0064697265625,0.83929443359375,0.1112060546875,-0.53216552734375,-4353,-463,-11378,-100,-294,129
254333543,0.03009033203125,0.82391357421875,0.10430908203125,-0.5562744140625,-4307,-294,-11220,-109,-286,135
254343525,0.0546875,0.8079833984375,0.09716796875,-0.57855224609375,-4385,-271,-10871,-119,-276,141
254353512,0.07977294921875,0.79150390625,0.09039306640625,-0.59912109375,-4677,-441,-10414,-128,-265,144
254363494,0.1048583984375,0.774658203125,0.0843505859375,-0.61785888671875,-5079,-642,-9909,-134,-252,141
254373478,0.12945556640625,0.75750732421875,0.07958984375,-0.6348876953125,-5391,-715,-9372,-140,-240,131
254383462,0.15313720703125,0.74029541015625,0.07623291015625,-0.650146484375,-5521,-652,-8761,-143,-226,118
254393449,0.17578125,0.72308349609375,0.07440185546875,-0.663818359375,-5450,-464,-8023,-145,-211,104
254403434,0.1973876953125,0.70611572265625,0.07403564453125,-0.67596435546875,-5284,-267,-7170,-147,-195,91
254413415,0.21771240234375,0.68951416015625,0.07525634765625,-0.68670654296875,-5190,-140,-6307,-148,-178,76
254423400,0.23602294921875,0.67333984375,0.078369140625,-0.6962890625,-5231,-192,-5408,-147,-162,56
254433376,0.25146484375,0.657470703125,0.08404541015625,-0.70526123046875,-5513,-409,-4571,-143,-148,29
254443362,0.263427734375,0.64215087890625,0.0921630859375,-0.71392822265625,-5831,-532,-3831,-137,-136,-2
254453338,0.27215576171875,0.62738037109375,0.10223388671875,-0.722412109375,-5950,-610,-3167,-129,-124,-30
254463322,0.2786865234375,0.61328125,0.11309814453125,-0.73040771484375,-5836,-639,-2485,-121,-112,-42
254473306,0.28448486328125,0.60003662109375,0.1236572265625,-0.73736572265625,-5603,-575,-1747,-115,-97,-40
254483293,0.2906494140625,0.588134765625,0.13323974609375,-0.74285888671875,-5446,-502,-954,-109,-82,-28
254493269,0.297607421875,0.57769775390625,0.141845703125,-0.7467041015625,-5401,-458,-211,-104,-66,-13
254503256,0.304931640625,0.5687255859375,0.1497802734375,-0.74908447265625,-5495,-477,446,-101,-50,-3
254513241,0.31195068359375,0.56121826171875,0.15771484375,-0.750244140625,-5754,-515,965,-96,-37,-1
254523224,0.31817626953125,0.554931640625,0.165771484375,-0.75054931640625,-6007,-562,1394,-91,-24,-4
254533208,0.323486328125,0.54974365234375,0.174072265625,-0.750244140625,-6238,-629,1782,-87,-12,-7
254543195,0.32830810546875,0.54559326171875,0.182373046875,-0.7491455078125,-6508,-722,2158,-82,-1,-5
254553181,0.33251953125,0.54241943359375,0.19061279296875,-0.74755859375,-6949,-740,2574,-78,7,-8
254563160,0.33502197265625,0.53936767578125,0.199951171875,-0.7462158203125,-7412,-908,2925,-76,12,-26
254573131,0.33599853515625,0.53619384765625,0.21014404296875,-0.7452392578125,-7834,-1159,3119,-74,14,-37
254583114,0.3358154296875,0.53326416015625,0.220703125,-0.744384765625,-8200,-1440,3210,-69,16,-44
254593097,0.33447265625,0.5301513671875,0.23126220703125,-0.7440185546875,-8515,-1736,3243,-63,14,-52
254603080,0.33197021484375,0.52685546875,0.2415771484375,-0.74420166015625,-8749,-2001,3252,-56,11,-58
254613064,0.32904052734375,0.5234375,0.25103759765625,-0.7447509765625,-8906,-2213,3227,-49,7,-57
254623051,0.32684326171875,0.5205078125,0.25909423828125,-0.74505615234375,-8995,-2320,3121,-43,5,-42
254633029,0.326171875,0.518310546875,0.26513671875,-0.7447509765625,-8997,-2334,3004,-37,4,-21
254643012,0.32720947265625,0.51702880859375,0.269287109375,-0.74371337890625,-8939,-2175,2862,-33,3,-2
254652999,0.32952880859375,0.51629638671875,0.27215576171875,-0.74212646484375,-8852,-1974,2787,-31,3,10
254662985,0.33221435546875,0.51568603515625,0.2744140625,-0.74053955078125,-8785,-1766,2793,-29,2,12
254672961,0.3345947265625,0.51483154296875,0.27667236328125,-0.73919677734375,-8759,-1543,2819,-28,0,6
254682949,0.3359375,0.51361083984375,0.27935791015625,-0.73846435546875,-8798,-1313,2819,-27,-1,-7
254692925,0.33587646484375,0.51177978515625,0.2828369140625,-0.7384033203125,-8893,-1104,2771,-26,-3,-24
254702907,0.33447265625,0.50921630859375,0.287109375,-0.73919677734375,-8991,-903,2685,-25,-7,-40
254712890,0.3319091796875,0.5059814453125,0.29193115234375,-0.74066162109375,-9121,-783,2609,-25,-11,-52
254722878,0.3287353515625,0.50213623046875,0.297119140625,-0.74267578125,-9281,-756,2602,-24,-15,-59
254732859,0.3253173828125,0.49755859375,0.30224609375,-0.7451171875,-9409,-856,2714,-24,-19,-62
254742843,0.3218994140625,0.4923095703125,0.3072509765625,-0.748046875,-9522,-1060,2916,-24,-25,-63
254752827,0.3184814453125,0.486328125,0.3121337890625,-0.75146484375,-9580,-1214,3122,-24,-30,-66
254762810,0.31488037109375,0.47967529296875,0.31695556640625,-0.75518798828125,-9532,-1291,3268,-24,-35,-70
254772794,0.31146240234375,0.4725341796875,0.321533203125,-0.7591552734375,-9438,-1337,3356,-24,-40,-69
254782775,0.30865478515625,0.4652099609375,0.32550048828125,-0.76312255859375,-9250,-1336,3401,-23,-44,-63
254792767,0.3070068359375,0.4580078125,0.32855224609375,-0.766845703125,-8994,-1309,3444,-23,-48,-51
254802749,0.306640625,0.45098876953125,0.3306884765625,-0.77020263671875,-8778,-1288,3498,-23,-50,-38
254812732,0.30731201171875,0.44427490234375,0.332275390625,-0.77313232421875,-8600,-1244,3523,-24,-51,-29
254822708,0.30877685546875,0.43768310546875,0.33355712890625,-0.7757568359375,-8453,-1139,3535,-25,-53,-24
254832691,0.3106689453125,0.4310302734375,0.3345947265625,-0.77825927734375,-8362,-1044,3548,-26,-55,-22
254842673,0.31256103515625,0.42413330078125,0.33587646484375,-0.78076171875,-8342,-905,3437,-29,-58,-25
254852657,0.31439208984375,0.41668701171875,0.33758544921875,-0.7833251953125,-8346,-773,3301,-33,-63,-30
254862640,0.31695556640625,0.4088134765625,0.33935546875,-0.78564453125,-8327,-734,3205,-38,-66,-22
254872624,0.3214111328125,0.401123046875,0.34063720703125,-0.7872314453125,-8283,-710,3084,-42,-69,-3
254882608,0.3280029296875,0.39398193359375,0.34124755859375,-0.78790283203125,-8266,-664,2939,-46,-72,17
254892588,0.3365478515625,0.386962890625,0.34136962890625,-0.7877197265625,-8188,-629,2814,-52,-76,31
254902572,0.34625244140625,0.37957763671875,0.34149169921875,-0.7869873046875,-8023,-687,2783,-58,-80,38
254912555,0.35662841796875,0.37152099609375,0.3419189453125,-0.78607177734375,-7759,-886,2814,-63,-83,42
254922542,0.36749267578125,0.3629150390625,0.342529296875,-0.7847900390625,-7405,-1222,2883,-67,-84,48
254932520,0.3792724609375,0.35418701171875,0.34307861328125,-0.782958984375,-6976,-1594,2911,-70,-85,59
254942504,0.392333984375,0.3458251953125,0.34307861328125,-0.78021240234375,-6571,-1974,3008,-69,-84,76
254952487,0.406982421875,0.3382568359375,0.34234619140625,-0.7763671875,-6146,-2284,3072,-69,-81,96
254962469,0.422607421875,0.33160400390625,0.34088134765625,-0.771484375,-5561,-2288,3048,-67,-76,108
254972453,0.43798828125,0.32574462890625,0.33929443359375,-0.76611328125,-5059,-1979,2834,-66,-70,103
254982434,0.45172119140625,0.3201904296875,0.33831787109375,-0.76092529296875,-4652,-1576,2583,-66,-63,87
254992426,0.46356201171875,0.31451416015625,0.338134765625,-0.7562255859375,-4442,-1259,2434,-66,-58,69
255002408,0.4736328125,0.30859375,0.3388671875,-0.7520751953125,-4358,-1071,2400,-66,-53,54
255012392,0.482421875,0.3023681640625,0.340087890625,-0.7484130859375,-4321,-984,2451,-65,-50,43
255022369,0.49005126953125,0.2957763671875,0.341796875,-0.74530029296875,-4294,-951,2581,-65,-49,32
255032354,0.49652099609375,0.28875732421875,0.34393310546875,-0.74285888671875,-4214,-959,2776,-65,-47,20
255042337,0.501708984375,0.28118896484375,0.34649658203125,-0.74102783203125,-4054,-942,2928,-65,-45,8
255052320,0.5057373046875,0.27325439453125,0.3494873046875,-0.7398681640625,-3838,-880,2949,-65,-43,-4
255062296,0.50885009765625,0.26513671875,0.3529052734375,-0.73907470703125,-3648,-786,2905,-65,-41,-12
255072279,0.51153564453125,0.25726318359375,0.3565673828125,-0.73822021484375,-3562,-692,2835,-66,-38,-14
255082261,0.514404296875,0.24969482421875,0.36029052734375,-0.737060546875,-3654,-653,2816,-66,-37,-9
255092242,0.51776123046875,0.24261474609375,0.364013671875,-0.7352294921875,-3832,-660,2798,-67,-36,-2
255102238,0.5216064453125,0.23590087890625,0.36767578125,-0.73284912109375,-4038,-743,2766,-67,-35,5
255112220,0.52593994140625,0.22943115234375,0.37127685546875,-0.72998046875,-4294,-881,2834,-67,-36,10
255122206,0.53057861328125,0.22296142578125,0.37457275390625,-0.7269287109375,-4596,-1096,2997,-66,-37,13
255132191,0.53521728515625,0.21649169921875,0.377685546875,-0.72381591796875,-4896,-1363,3249,-65,-38,14
255142174,0.53955078125,0.209716796875,0.380615234375,-0.7210693359375,-5103,-1686,3452,-63,-40,9
255152160,0.54296875,0.2025146484375,0.38360595703125,-0.718994140625,-5221,-1968,3531,-60,-40,-1
255162126,0.54510498046875,0.19512939453125,0.38665771484375,-0.71783447265625,-5292,-2198,3499,-56,-39,-14
255172108,0.5457763671875,0.1873779296875,0.389892578125,-0.71759033203125,-5391,-2428,3507,-52,-37,-29
255182092,0.5447998046875,0.17938232421875,0.393310546875,-0.718505859375,-5621,-2686,3646,-48,-34,-45
255192075,0.5421142578125,0.17108154296875,0.39691162109375,-0.7205810546875,-5940,-3005,3906,-45,-32,-62
255202058,0.5374755859375,0.1622314453125,0.4007568359375,-0.7239990234375,-6255,-3329,4148,-42,-29,-82
255212040,0.53106689453125,0.1527099609375,0.4049072265625,-0.72845458984375,-6514,-3713,4341,-40,-28,-99
255222024,0.5233154296875,0.1427001953125,0.40924072265625,-0.73370361328125,-6706,-4138,4510,-39,-27,-111
255232009,0.51446533203125,0.1322021484375,0.4136962890625,-0.7393798828125,-6865,-4593,4667,-37,-27,-120
255241996,0.504638671875,0.121337890625,0.41802978515625,-0.74554443359375,-7081,-5089,4842,-36,-27,-129
255251980,0.493896484375,0.11016845703125,0.42230224609375,-0.7520751953125,-7366,-5559,5000,-34,-27,-138
255261959,0.48248291015625,0.098876953125,0.4263916015625,-0.75872802734375,-7536,-5902,5117,-33,-28,-143
255271943,0.4708251953125,0.087158203125,0.4300537109375,-0.765380859375,-7541,-6109,5240,-33,-31,-147
255281925,0.458984375,0.07476806640625,0.433349609375,-0.77197265625,-7341,-6229,5364,-34,-35,-150
255291908,0.4468994140625,0.0615234375,0.43609619140625,-0.77862548828125,-7022,-6274,5467,-35,-41,-155
255301890,0.43450927734375,0.0472412109375,0.43841552734375,-0.78533935546875,-6595,-6293,5531,-36,-47,-161
255311878,0.42169189453125,0.031982421875,0.440185546875,-0.79205322265625,-6107,-6306,5578,-36,-53,-166
255321856,0.40838623046875,0.0157470703125,0.4412841796875,-0.79888916015625,-5588,-6332,5626,-35,-59,-173
255331840,0.3946533203125,-0.0013427734375,0.4415283203125,-0.8057861328125,-5076,-6356,5677,-32,-65,-178
255341822,0.38079833984375,-0.0189208984375,0.44091796875,-0.81256103515625,-4548,-6352,5688,-29,-71,-179
255351808,0.36737060546875,-0.03680419921875,0.4393310546875,-0.81890869140625,-3955,-6309,5636,-25,-76,-173
255361792,0.35516357421875,-0.054443359375,0.4368896484375,-0.82464599609375,-3347,-6252,5571,-20,-82,-160
255371772,0.3447265625,-0.071533203125,0.43353271484375,-0.82952880859375,-2746,-6218,5458,-15,-86,-142
255381762,0.33636474609375,-0.08770751953125,0.4295654296875,-0.83343505859375,-2223,-6210,5311,-9,-90,-122
255391745,0.330322265625,-0.1026611328125,0.42498779296875,-0.83648681640625,-1834,-6286,5174,-2,-92,-100
255401723,0.32672119140625,-0.11627197265625,0.4200439453125,-0.838623046875,-1505,-6354,5017,4,-93,-76
255411705,0.3258056640625,-0.12847900390625,0.414794921875,-0.83984375,-1167,-6375,4865,10,-94,-50
255421687,0.3272705078125,-0.13934326171875,0.4093017578125,-0.8402099609375,-777,-6368,4748,15,-94,-27
255431670,0.3309326171875,-0.1490478515625,0.40350341796875,-0.83990478515625,-343,-6398,4704,19,-94,-6
255441656,0.33648681640625,-0.15771484375,0.3975830078125,-0.83892822265625,78,-6471,4706,24,-93,13
255451635,0.34368896484375,-0.1654052734375,0.39166259765625,-0.83734130859375,452,-6596,4734,26,-91,29
255461620,0.35235595703125,-0.17193603515625,0.38592529296875,-0.8350830078125,701,-6706,4741,29,-89,44
255471602,0.36212158203125,-0.1776123046875,0.38031005859375,-0.832275390625,914,-6746,4748,30,-87,56
255481586,0.372802734375,-0.18255615234375,0.3748779296875,-0.8289794921875,1102,-6774,4787,30,-85,65
255491569,0.3839111328125,-0.18701171875,0.36962890625,-0.8251953125,1310,-6754,4848,29,-82,71
255501551,0.39501953125,-0.19122314453125,0.3646240234375,-0.82122802734375,1502,-6725,4937,27,-79,72
255511533,0.40576171875,-0.1951904296875,0.35986328125,-0.81719970703125,1694,-6702,5015,25,-75,70
255521518,0.41558837890625,-0.19915771484375,0.3553466796875,-0.813232421875,1880,-6703,5087,22,-71,64
255531501,0.42437744140625,-0.203125,0.35101318359375,-0.8095703125,2029,-6704,5168,20,-67,56
255541483,0.4320068359375,-0.20709228515625,0.34686279296875,-0.80633544921875,2143,-6699,5213,18,-62,47
255551468,0.4383544921875,-0.2110595703125,0.34295654296875,-0.8035888671875,2240,-6651,5238,16,-57,37
255561452,0.4434814453125,-0.215087890625,0.33917236328125,-0.80126953125,2316,-6540,5247,14,-52,28
255571431,0.447509765625,-0.21917724609375,0.33551025390625,-0.7994384765625,2373,-6423,5252,11,-48,19
255581430,0.4505615234375,-0.2232666015625,0.33209228515625,-0.79803466796875,2420,-6335,5277,9,-45,11
255591408,0.4527587890625,-0.22735595703125,0.3287353515625,-0.79705810546875,2467,-6241,5310,8,-41,5
255601378,0.4542236328125,-0.2314453125,0.32568359375,-0.79632568359375,2518,-6161,5313,5,-37,0
255611361,0.455078125,-0.2353515625,0.32281494140625,-0.7957763671875,2540,-6070,5308,4,-34,-4
255621343,0.45556640625,-0.23907470703125,0.32025146484375,-0.79547119140625,2561,-6003,5306,3,-30,-6
255631327,0.45587158203125,-0.2425537109375,0.31787109375,-0.795166015625,2559,-5907,5301,1,-28,-6
255641311,0.4560546875,-0.245849609375,0.31585693359375,-0.79486083984375,2522,-5797,5283,0,-25,-6
255651293,0.456298828125,-0.24884033203125,0.31402587890625,-0.79449462890625,2482,-5704,5264,-1,-23,-4
255661272,0.45672607421875,-0.2515869140625,0.3125,-0.79400634765625,2437,-5629,5266,-2,-22,-1
255671259,0.45733642578125,-0.25408935546875,0.311279296875,-0.7933349609375,2391,-5571,5250,-3,-20,2
255681237,0.45819091796875,-0.25634765625,0.310302734375,-0.79248046875,2349,-5529,5236,-4,-19,5
255691230,0.459228515625,-0.25836181640625,0.3095703125,-0.79156494140625,2301,-5521,5234,-4,-17,7
255701212,0.46044921875,-0.2601318359375,0.30902099609375,-0.79046630859375,2240,-5544,5243,-4,-16,10
255711193,0.4619140625,-0.26153564453125,0.30865478515625,-0.789306640625,2164,-5560,5256,-3,-15,13
255721189,0.46368408203125,-0.26275634765625,0.30841064453125,-0.7879638671875,2080,-5574,5254,-3,-14,15
