subject,Two-hands and jerked
arm,neither
label,0
hz,100.17071647637782
time,5.161189

timestamp_us,q0,q1,q2,q3,ax,ay,az,gx,gy,gz
251191353,0.61572265625,-0.738037109375,0.015380859375,0.27557373046875,-3717,-7315,-707,3,4,-6
251201337,0.61614990234375,-0.73785400390625,0.01544189453125,0.2750244140625,-3750,-7313,-724,3,3,-5
251211320,0.6165771484375,-0.73773193359375,0.0155029296875,0.27459716796875,-3768,-7341,-731,3,2,-4
251221301,0.616943359375,-0.73748779296875,0.01556396484375,0.27435302734375,-3773,-7354,-723,3,0,-3
251231285,0.6173095703125,-0.7371826171875,0.01556396484375,0.27435302734375,-3768,-7362,-703,3,-1,-2
251241263,0.61767578125,-0.73681640625,0.01556396484375,0.27435302734375,-3735,-7368,-695,4,-2,-2
251251246,0.61810302734375,-0.7364501953125,0.0155029296875,0.27447509765625,-3688,-7356,-676,3,-3,-2
251261233,0.61859130859375,-0.73602294921875,0.01531982421875,0.274658203125,-3630,-7322,-650,4,-3,-2
251271214,0.6190185546875,-0.73553466796875,0.01513671875,0.27496337890625,-3594,-7290,-615,4,-4,-1
251281205,0.619384765625,-0.73504638671875,0.0150146484375,0.27532958984375,-3553,-7271,-594,4,-5,0
251291188,0.6197509765625,-0.73455810546875,0.014892578125,0.27587890625,-3514,-7265,-555,3,-5,1
251301173,0.62005615234375,-0.73406982421875,0.014892578125,0.27655029296875,-3468,-7250,-510,3,-6,3
251311155,0.6202392578125,-0.73358154296875,0.014892578125,0.27734375,-3410,-7207,-434,2,-6,4
251321119,0.620361328125,-0.733154296875,0.014892578125,0.27825927734375,-3353,-7144,-388,1,-7,5
251331103,0.620361328125,-0.7327880859375,0.01495361328125,0.279296875,-3309,-7110,-354,0,-7,6
251341087,0.62017822265625,-0.732421875,0.01513671875,0.28045654296875,-3293,-7077,-343,-1,-7,8
251351066,0.619873046875,-0.732177734375,0.01544189453125,0.28179931640625,-3299,-7050,-337,-2,-7,10
251361051,0.61932373046875,-0.73199462890625,0.01605224609375,0.283447265625,-3341,-7021,-351,-2,-8,13
251371033,0.61865234375,-0.73187255859375,0.0167236328125,0.28521728515625,-3377,-7000,-344,-4,-8,15
251381015,0.61773681640625,-0.7318115234375,0.01739501953125,0.2872314453125,-3391,-6947,-352,-6,-9,16
251390999,0.61663818359375,-0.73193359375,0.01806640625,0.289306640625,-3438,-6924,-394,-7,-9,16
251400987,0.6153564453125,-0.73211669921875,0.0185546875,0.29144287109375,-3456,-6910,-449,-8,-10,15
251410964,0.614013671875,-0.73248291015625,0.01873779296875,0.29345703125,-3463,-6905,-501,-10,-11,13
251420947,0.61273193359375,-0.73291015625,0.0185546875,0.295166015625,-3431,-6925,-547,-11,-11,10
251430931,0.6114501953125,-0.7333984375,0.017822265625,0.29656982421875,-3397,-6943,-583,-12,-11,5
251440914,0.61029052734375,-0.7340087890625,0.01666259765625,0.297607421875,-3364,-6979,-608,-13,-11,1
251450897,0.60919189453125,-0.734619140625,0.01507568359375,0.29833984375,-3343,-7025,-628,-14,-12,-3
251460878,0.60809326171875,-0.73529052734375,0.0133056640625,0.2989501953125,-3360,-7086,-686,-14,-12,-5
251470860,0.60699462890625,-0.73602294921875,0.01141357421875,0.2994384765625,-3363,-7188,-750,-15,-11,-5
251480842,0.60589599609375,-0.73675537109375,0.00958251953125,0.29998779296875,-3370,-7314,-792,-15,-11,-4
251490826,0.604736328125,-0.7374267578125,0.00799560546875,0.3006591796875,-3356,-7424,-804,-14,-11,-2
251500810,0.6036376953125,-0.738037109375,0.00640869140625,0.3013916015625,-3319,-7520,-819,-13,-11,-1
251510796,0.60260009765625,-0.73858642578125,0.00506591796875,0.30218505859375,-3309,-7582,-824,-12,-11,0
251520774,0.60162353515625,-0.73907470703125,0.003662109375,0.3028564453125,-3317,-7653,-849,-12,-10,-1
251530768,0.60076904296875,-0.73956298828125,0.00244140625,0.30352783203125,-3378,-7773,-886,-11,-10,0
251540750,0.59991455078125,-0.739990234375,0.00128173828125,0.30426025390625,-3431,-7959,-948,-9,-10,0
251550731,0.599365234375,-0.740234375,-6.103515625e-05,0.3046875,-3423,-8085,-950,-7,-9,-3
251560707,0.59906005859375,-0.7403564453125,-0.001220703125,0.30499267578125,-3357,-8166,-943,-5,-8,-2
251570695,0.598876953125,-0.7403564453125,-0.0020751953125,0.30535888671875,-3208,-8212,-905,-3,-7,2
251580676,0.59857177734375,-0.740234375,-0.0018310546875,0.30615234375,-3145,-8267,-837,-1,-4,15
251590660,0.5982666015625,-0.73992919921875,-0.00042724609375,0.30755615234375,-3215,-8307,-765,2,-3,20
251600641,0.59796142578125,-0.73944091796875,0.00146484375,0.30926513671875,-3392,-8360,-778,5,-3,23
251610625,0.5977783203125,-0.73876953125,0.003662109375,0.31121826171875,-3616,-8382,-887,8,-4,24
251620608,0.59765625,-0.73809814453125,0.005615234375,0.31304931640625,-3829,-8454,-1041,10,-5,20
251630592,0.59820556640625,-0.73724365234375,0.0064697265625,0.31402587890625,-3953,-8591,-1068,11,-6,5
251640575,0.5999755859375,-0.736083984375,0.00531005859375,0.31329345703125,-3993,-8712,-967,14,-5,-20
251650559,0.603271484375,-0.73455810546875,0.001708984375,0.310546875,-4051,-8764,-770,17,-5,-51
251660542,0.6082763671875,-0.732666015625,-0.00482177734375,0.30523681640625,-4050,-8733,-551,21,-4,-87
251670524,0.61505126953125,-0.7303466796875,-0.0147705078125,0.296875,-3933,-8623,-384,25,-4,-129
251680508,0.6234130859375,-0.72747802734375,-0.02838134765625,0.28515625,-3744,-8479,-240,28,-4,-172
251690492,0.6331787109375,-0.72393798828125,-0.04559326171875,0.26995849609375,-3503,-8305,-109,31,-3,-215
251700475,0.64404296875,-0.71942138671875,-0.06597900390625,0.25146484375,-3232,-8138,-35,33,-1,-253
251710461,0.65545654296875,-0.71392822265625,-0.08892822265625,0.22979736328125,-2834,-7932,-61,36,2,-285
251720449,0.66656494140625,-0.70751953125,-0.11285400390625,0.20574951171875,-2182,-7627,-243,38,10,-296
251730437,0.676513671875,-0.700927734375,-0.1341552734375,0.1817626953125,-1515,-7379,-252,36,23,-265
251740419,0.6851806640625,-0.6944580078125,-0.1513671875,0.159423828125,-1011,-7226,-160,35,35,-235
251750402,0.69305419921875,-0.68780517578125,-0.1663818359375,0.13739013671875,-734,-7066,-104,34,44,-227
251760382,0.7003173828125,-0.68096923828125,-0.18072509765625,0.11480712890625,-564,-6903,-201,33,49,-231
251770364,0.706787109375,-0.67388916015625,-0.19500732421875,0.09124755859375,-457,-6692,-422,31,52,-237
251780350,0.71221923828125,-0.66650390625,-0.209716796875,0.06683349609375,-407,-6497,-759,27,54,-247
251790330,0.71661376953125,-0.65869140625,-0.2255859375,0.041259765625,-425,-6306,-1017,23,51,-265
251800317,0.719970703125,-0.649658203125,-0.24365234375,0.013916015625,-389,-6157,-1165,20,44,-293
251810299,0.7220458984375,-0.6390380859375,-0.2646484375,-0.0157470703125,-163,-6077,-1208,18,36,-325
251820293,0.72265625,-0.6263427734375,-0.28857421875,-0.04742431640625,223,-6052,-1175,17,27,-355
251830271,0.7215576171875,-0.6114501953125,-0.314697265625,-0.08074951171875,734,-6078,-1046,18,19,-380
251840256,0.71868896484375,-0.59442138671875,-0.3421630859375,-0.11456298828125,1333,-6100,-923,20,10,-393
251850242,0.7139892578125,-0.575927734375,-0.36981201171875,-0.1475830078125,2054,-6095,-867,23,2,-390
251860220,0.70794677734375,-0.55670166015625,-0.3963623046875,-0.1783447265625,2834,-6061,-860,27,-4,-371
251870205,0.70135498046875,-0.537841796875,-0.42047119140625,-0.20501708984375,3660,-5979,-867,33,-10,-330
251880192,0.6953125,-0.52044677734375,-0.4410400390625,-0.226318359375,4460,-5826,-837,39,-13,-273
251890175,0.69061279296875,-0.50579833984375,-0.457275390625,-0.24102783203125,5245,-5546,-741,44,-17,-199
251900159,0.68817138671875,-0.494873046875,-0.46875,-0.2486572265625,5920,-5092,-544,48,-19,-117
251910128,0.688232421875,-0.488037109375,-0.47552490234375,-0.2491455078125,6437,-4596,-285,52,-22,-35
251920108,0.6905517578125,-0.485107421875,-0.47833251953125,-0.2430419921875,6774,-4178,-47,56,-26,35
251930089,0.69427490234375,-0.48492431640625,-0.478515625,-0.2320556640625,6968,-3930,167,59,-32,80
251940071,0.69842529296875,-0.48614501953125,-0.477783203125,-0.21826171875,7042,-3836,276,62,-40,98
251950054,0.7020263671875,-0.48736572265625,-0.4776611328125,-0.20361328125,7062,-3836,277,65,-48,94
251960040,0.70465087890625,-0.48785400390625,-0.4791259765625,-0.18951416015625,7086,-3864,215,66,-57,76
251970022,0.70611572265625,-0.4871826171875,-0.482421875,-0.1767578125,7161,-3858,138,65,-63,56
251980006,0.70672607421875,-0.48577880859375,-0.487060546875,-0.165283203125,7294,-3821,89,63,-68,43
251989994,0.706787109375,-0.48406982421875,-0.4921875,-0.154541015625,7475,-3789,104,59,-69,38
251999976,0.70672607421875,-0.48248291015625,-0.4970703125,-0.14410400390625,7625,-3792,179,56,-68,40
252009952,0.70648193359375,-0.4813232421875,-0.5013427734375,-0.133544921875,7665,-3796,231,52,-66,43
252019940,0.70623779296875,-0.48046875,-0.50518798828125,-0.12322998046875,7648,-3798,292,49,-64,45
252029926,0.705810546875,-0.47979736328125,-0.5087890625,-0.11334228515625,7621,-3783,353,45,-61,43
252039907,0.70526123046875,-0.47906494140625,-0.51214599609375,-0.1041259765625,7616,-3794,429,41,-59,40
252049889,0.70465087890625,-0.47833251953125,-0.51531982421875,-0.09552001953125,7598,-3828,464,38,-55,37
252059877,0.7039794921875,-0.4776611328125,-0.51824951171875,-0.0875244140625,7534,-3845,447,35,-52,35
252069856,0.70318603515625,-0.4771728515625,-0.52105712890625,-0.08001708984375,7421,-3880,387,32,-49,33
252079837,0.7022705078125,-0.47698974609375,-0.52349853515625,-0.0726318359375,7294,-3942,307,29,-47,36
252089820,0.7012939453125,-0.47784423828125,-0.52508544921875,-0.064453125,7190,-4041,269,26,-47,51
252099803,0.7003173828125,-0.48046875,-0.52520751953125,-0.05419921875,7085,-4161,221,24,-47,79
252109785,0.69915771484375,-0.4854736328125,-0.52325439453125,-0.0411376953125,6946,-4300,155,20,-49,114
252119768,0.69769287109375,-0.492919921875,-0.519287109375,-0.02520751953125,6805,-4487,104,17,-51,149
252129758,0.69561767578125,-0.50250244140625,-0.51336669921875,-0.00665283203125,6677,-4750,5,13,-53,179
252139742,0.6927490234375,-0.513916015625,-0.50579833984375,0.01416015625,6538,-5053,-114,9,-56,206
252149717,0.68890380859375,-0.52691650390625,-0.49639892578125,0.03729248046875,6405,-5433,-258,6,-60,234
252159700,0.68377685546875,-0.54168701171875,-0.48486328125,0.06298828125,6227,-5904,-391,2,-63,266
252169679,0.67718505859375,-0.5579833984375,-0.4708251953125,0.09136962890625,5902,-6457,-525,-1,-66,298
252179660,0.6688232421875,-0.57568359375,-0.4542236328125,0.122314453125,5379,-6973,-698,-5,-69,328
252189642,0.65838623046875,-0.59417724609375,-0.43524169921875,0.1551513671875,4788,-7395,-857,-9,-72,353
252199627,0.64581298828125,-0.61285400390625,-0.4141845703125,0.18927001953125,4168,-7710,-981,-13,-73,372
252212995,0.6309814453125,-0.63153076171875,-0.39093017578125,0.22412109375,3523,-7919,-1048,-19,-74,391
252219594,0.61395263671875,-0.64971923828125,-0.3656005859375,0.2593994140625,2842,-8039,-1043,-24,-73,407
252229576,0.59454345703125,-0.66729736328125,-0.337890625,0.2950439453125,2114,-8105,-1008,-27,-71,424
252239557,0.572998046875,-0.6837158203125,-0.3082275390625,0.33038330078125,1344,-8088,-928,-30,-68,435
252249542,0.5496826171875,-0.69866943359375,-0.277099609375,0.36456298828125,565,-7968,-829,-33,-63,435
252259524,0.52593994140625,-0.71142578125,-0.24658203125,0.39556884765625,-161,-7701,-735,-36,-53,405
252269505,0.50341796875,-0.72174072265625,-0.2196044921875,0.42120361328125,-830,-7374,-675,-39,-42,345
252279489,0.48388671875,-0.72967529296875,-0.197998046875,0.44073486328125,-1474,-7039,-597,-41,-31,270
252289472,0.46826171875,-0.7354736328125,-0.1824951171875,0.45440673828125,-2113,-6720,-551,-41,-21,191
252299455,0.45709228515625,-0.7396240234375,-0.17352294921875,0.46246337890625,-2744,-6456,-516,-40,-12,109
252309434,0.45074462890625,-0.74224853515625,-0.1710205078125,0.46539306640625,-3304,-6288,-488,-37,-4,31
252319426,0.4488525390625,-0.74365234375,-0.17449951171875,0.4637451171875,-3687,-6228,-469,-34,4,-39
252329404,0.45098876953125,-0.74383544921875,-0.18292236328125,0.4581298828125,-3886,-6251,-464,-30,10,-97
252339382,0.45635986328125,-0.7427978515625,-0.19537353515625,0.44921875,-3950,-6350,-461,-26,15,-144
252349364,0.4644775390625,-0.74053955078125,-0.21124267578125,0.4373779296875,-3926,-6510,-477,-22,20,-186
252359350,0.47503662109375,-0.7366943359375,-0.23028564453125,0.422607421875,-3864,-6691,-498,-18,24,-229
252369333,0.48809814453125,-0.73089599609375,-0.25311279296875,0.4044189453125,-3714,-6898,-537,-15,28,-281
252379316,0.5037841796875,-0.7222900390625,-0.28033447265625,0.3819580078125,-3364,-7074,-610,-11,31,-340
252389300,0.5218505859375,-0.710205078125,-0.3123779296875,0.3544921875,-2744,-7195,-738,-9,35,-404
252399283,0.54156494140625,-0.6939697265625,-0.348876953125,0.3216552734375,-2024,-7249,-897,-7,38,-465
252409267,0.5615234375,-0.6732177734375,-0.3880615234375,0.28436279296875,-1228,-7315,-1010,-6,40,-509
252419246,0.5804443359375,-0.6484375,-0.427978515625,0.24395751953125,-348,-7385,-1086,-4,41,-533
252429238,0.5970458984375,-0.62054443359375,-0.466552734375,0.20196533203125,616,-7491,-1277,-4,41,-532
252439222,0.6103515625,-0.59161376953125,-0.5015869140625,0.1607666015625,1621,-7653,-1499,-7,40,-501
252449205,0.6201171875,-0.564208984375,-0.53106689453125,0.12298583984375,2530,-7733,-1716,-10,39,-440
252459195,0.62652587890625,-0.541015625,-0.5535888671875,0.09130859375,3319,-7705,-1915,-13,36,-349
252469178,0.63031005859375,-0.5242919921875,-0.56854248046875,0.06781005859375,4010,-7576,-2052,-15,32,-239
252479164,0.63250732421875,-0.5152587890625,-0.575927734375,0.05328369140625,4583,-7293,-2062,-15,29,-122
252489140,0.63372802734375,-0.51373291015625,-0.57635498046875,0.04742431640625,5070,-6931,-1972,-14,27,-14
252499116,0.634521484375,-0.5184326171875,-0.5711669921875,0.048828125,5417,-6619,-1837,-12,25,74
252509096,0.63494873046875,-0.52764892578125,-0.5615234375,0.05584716796875,5574,-6456,-1718,-9,24,136
252519080,0.63494873046875,-0.53961181640625,-0.548828125,0.0670166015625,5544,-6463,-1632,-5,22,179
252529066,0.6343994140625,-0.5533447265625,-0.5335693359375,0.0814208984375,5344,-6595,-1608,0,19,211
252539051,0.63323974609375,-0.56829833984375,-0.5159912109375,0.098876953125,5061,-6828,-1612,5,16,243
252549033,0.63116455078125,-0.5843505859375,-0.49591064453125,0.11944580078125,4716,-7080,-1633,11,12,275
252559016,0.6280517578125,-0.60101318359375,-0.47320556640625,0.142822265625,4293,-7336,-1624,17,8,305
252568998,0.6236572265625,-0.61798095703125,-0.44793701171875,0.1688232421875,3791,-7621,-1622,23,4,332
252578988,0.6180419921875,-0.63421630859375,-0.42095947265625,0.196533203125,3182,-7860,-1563,28,-2,345
252588963,0.6112060546875,-0.6490478515625,-0.39312744140625,0.22491455078125,2559,-8048,-1426,32,-8,346
252598944,0.6036376953125,-0.6617431640625,-0.36553955078125,0.25311279296875,1929,-8215,-1205,36,-14,336
252608929,0.59576416015625,-0.6719970703125,-0.339111328125,0.2801513671875,1248,-8310,-968,40,-20,315
252618910,0.58782958984375,-0.67974853515625,-0.31494140625,0.30523681640625,672,-8255,-897,41,-25,282
252628892,0.58087158203125,-0.68499755859375,-0.295166015625,0.32598876953125,421,-8096,-1134,39,-25,224
252638877,0.5767822265625,-0.6873779296875,-0.281982421875,0.339599609375,266,-7940,-1223,37,-16,134
252648858,0.57733154296875,-0.68634033203125,-0.27667236328125,0.3450927734375,-87,-7908,-986,35,-6,26
252658845,0.58233642578125,-0.68206787109375,-0.27935791015625,0.34295654296875,-444,-7842,-762,33,0,-75
252668821,0.59112548828125,-0.67474365234375,-0.28961181640625,0.33367919921875,-679,-7797,-649,31,3,-168
252678804,0.60302734375,-0.66448974609375,-0.30645751953125,0.3177490234375,-732,-7814,-605,30,8,-248
252688791,0.61676025390625,-0.65155029296875,-0.32745361328125,0.29638671875,-640,-7863,-558,30,15,-303
252698771,0.63128662109375,-0.636474609375,-0.3504638671875,0.2711181640625,-418,-7926,-482,29,22,-336
252708763,0.6455078125,-0.61993408203125,-0.3736572265625,0.2437744140625,-102,-8003,-378,28,28,-347
252718745,0.65863037109375,-0.60260009765625,-0.39556884765625,0.21588134765625,257,-8076,-256,27,31,-339
252728732,0.6702880859375,-0.5853271484375,-0.41522216796875,0.1890869140625,661,-8137,-150,26,33,-316
252738710,0.68017578125,-0.56903076171875,-0.431884765625,0.16448974609375,1098,-8146,-71,25,34,-281
252748696,0.6883544921875,-0.554443359375,-0.44525146484375,0.1431884765625,1575,-8087,-12,24,34,-237
252758678,0.69512939453125,-0.5421142578125,-0.455078125,0.125732421875,2020,-7977,28,24,33,-189
252768662,0.70068359375,-0.5323486328125,-0.4615478515625,0.11260986328125,2435,-7834,58,24,31,-137
252778645,0.70513916015625,-0.5252685546875,-0.46478271484375,0.10400390625,2814,-7657,89,24,28,-85
252788627,0.70880126953125,-0.52093505859375,-0.46502685546875,0.10003662109375,3157,-7463,109,25,25,-33
252798612,0.7115478515625,-0.5194091796875,-0.46234130859375,0.1007080078125,3418,-7305,133,26,20,18
252808594,0.7135009765625,-0.52056884765625,-0.45684814453125,0.10601806640625,3589,-7196,139,26,16,68
252818578,0.71435546875,-0.52447509765625,-0.44854736328125,0.11590576171875,3691,-7113,149,25,12,118
252828561,0.71405029296875,-0.53082275390625,-0.4375,0.13018798828125,3736,-7086,159,24,7,166
252838544,0.71246337890625,-0.5391845703125,-0.42388916015625,0.14837646484375,3707,-7081,193,24,3,207
252848528,0.70953369140625,-0.548828125,-0.4083251953125,0.16943359375,3605,-7083,210,23,-2,236
252858510,0.70538330078125,-0.5587158203125,-0.39190673828125,0.1915283203125,3445,-7093,213,20,-5,243
252868490,0.7005615234375,-0.56787109375,-0.376220703125,0.21258544921875,3233,-7089,223,17,-7,226
252878473,0.69580078125,-0.57537841796875,-0.3629150390625,0.23040771484375,2971,-7067,243,12,-8,186
252888456,0.6917724609375,-0.5809326171875,-0.35296630859375,0.24371337890625,2684,-7048,287,7,-7,135
252898437,0.68890380859375,-0.58453369140625,-0.3465576171875,0.25213623046875,2393,-7080,375,1,-5,82
252908423,0.6873779296875,-0.58642578125,-0.343505859375,0.256103515625,2112,-7156,484,-2,-2,34
252918410,0.68701171875,-0.58697509765625,-0.343017578125,0.2564697265625,1900,-7252,594,-5,1,-2
252928381,0.6875,-0.58648681640625,-0.344482421875,0.2542724609375,1756,-7341,681,-7,2,-29
252938364,0.6885986328125,-0.5853271484375,-0.347412109375,0.25018310546875,1701,-7387,710,-7,3,-46
252948350,0.68994140625,-0.5836181640625,-0.3511962890625,0.2449951171875,1701,-7389,721,-8,3,-58
252958330,0.69140625,-0.5816650390625,-0.35546875,0.2392578125,1741,-7355,713,-8,3,-62
252968311,0.69287109375,-0.57958984375,-0.3599853515625,0.2332763671875,1812,-7334,700,-8,2,-63
252978294,0.6942138671875,-0.57745361328125,-0.36444091796875,0.2275390625,1888,-7323,696,-8,1,-61
252988277,0.69549560546875,-0.57537841796875,-0.36871337890625,0.2220458984375,1981,-7317,688,-7,1,-59
252998260,0.69677734375,-0.57318115234375,-0.37298583984375,0.2166748046875,2079,-7306,663,-6,0,-60
253008241,0.6981201171875,-0.57061767578125,-0.3775634765625,0.21087646484375,2203,-7270,639,-6,0,-66
253018233,0.69976806640625,-0.56756591796875,-0.38275146484375,0.2042236328125,2376,-7163,594,-5,1,-76
253028218,0.70166015625,-0.56378173828125,-0.388916015625,0.19635009765625,2540,-7065,518,-5,1,-91
253038205,0.70391845703125,-0.55914306640625,-0.39605712890625,0.18701171875,2710,-6967,448,-4,2,-107
253048189,0.70648193359375,-0.5535888671875,-0.40423583984375,0.1761474609375,2863,-6895,374,-4,3,-125
253058173,0.709228515625,-0.54705810546875,-0.413330078125,0.16387939453125,3008,-6848,305,-3,3,-140
253068156,0.71209716796875,-0.5396728515625,-0.42303466796875,0.150634765625,3163,-6769,255,-1,3,-151
253078130,0.7149658203125,-0.53155517578125,-0.43310546875,0.13677978515625,3355,-6666,191,1,3,-157
253088111,0.7176513671875,-0.52288818359375,-0.4432373046875,0.12261962890625,3607,-6578,104,3,3,-161
253098094,0.72021484375,-0.513916015625,-0.4532470703125,0.1085205078125,3922,-6546,8,5,3,-159
253108077,0.72247314453125,-0.5050048828125,-0.46258544921875,0.09503173828125,4308,-6543,-122,7,4,-149
253118062,0.724609375,-0.49652099609375,-0.470703125,0.0828857421875,4754,-6403,-31,9,5,-132
253128051,0.7265625,-0.48919677734375,-0.4769287109375,0.07281494140625,5197,-6270,167,7,7,-102
253138027,0.72833251953125,-0.4837646484375,-0.4808349609375,0.06549072265625,5558,-6123,437,6,9,-68
253148010,0.72991943359375,-0.48028564453125,-0.4825439453125,0.0609130859375,5783,-5993,764,5,10,-36
253157996,0.73126220703125,-0.4788818359375,-0.48211669921875,0.05926513671875,5893,-5964,1062,3,11,-3
253167984,0.73236083984375,-0.4793701171875,-0.479736328125,0.06036376953125,5927,-6066,1378,2,10,27
253177960,0.7332763671875,-0.4815673828125,-0.4757080078125,0.06414794921875,5918,-6215,1675,2,9,54
253187944,0.73382568359375,-0.48504638671875,-0.47039794921875,0.0701904296875,5929,-6340,1933,1,7,77
253197925,0.734130859375,-0.48944091796875,-0.46417236328125,0.07781982421875,5950,-6441,2134,1,6,93
253207908,0.734130859375,-0.494384765625,-0.45733642578125,0.08660888671875,5908,-6555,2271,1,4,103
253217891,0.73388671875,-0.49945068359375,-0.4503173828125,0.09588623046875,5844,-6702,2346,2,2,106
253227877,0.7333984375,-0.50433349609375,-0.44354248046875,0.10516357421875,5753,-6828,2350,3,1,103
253237859,0.7327880859375,-0.5086669921875,-0.43743896484375,0.11383056640625,5648,-6918,2303,2,-1,94
253247839,0.732177734375,-0.51226806640625,-0.43218994140625,0.12127685546875,5556,-6987,2196,4,-1,79
253257826,0.73175048828125,-0.5150146484375,-0.42791748046875,0.1273193359375,5456,-6960,2070,4,0,63
253267807,0.7314453125,-0.51708984375,-0.4244384765625,0.13201904296875,5365,-6854,1945,3,1,53
253277790,0.731201171875,-0.51910400390625,-0.42120361328125,0.1361083984375,5276,-6779,1846,1,3,50
253287769,0.73077392578125,-0.521484375,-0.4176025390625,0.14007568359375,5177,-6791,1744,-2,5,54
253297763,0.7301025390625,-0.52459716796875,-0.41326904296875,0.14471435546875,5009,-6813,1665,-4,7,64
253307746,0.72906494140625,-0.52862548828125,-0.407958984375,0.15032958984375,4780,-6807,1614,-7,8,77
253317721,0.7274169921875,-0.53363037109375,-0.4017333984375,0.15692138671875,4549,-6754,1543,-11,8,92
253327705,0.7249755859375,-0.5399169921875,-0.39459228515625,0.164794921875,4314,-6676,1425,-16,7,109
253337689,0.72149658203125,-0.54766845703125,-0.38623046875,0.17413330078125,4057,-6568,1259,-23,7,131
253347671,0.716796875,-0.55706787109375,-0.37646484375,0.1849365234375,3725,-6442,1096,-31,7,151
253357654,0.71075439453125,-0.5677490234375,-0.3656005859375,0.1968994140625,3343,-6310,966,-40,6,167
253367637,0.70355224609375,-0.57940673828125,-0.35418701171875,0.2093505859375,2909,-6195,837,-48,5,175
253377620,0.69512939453125,-0.5916748046875,-0.342529296875,0.22216796875,2444,-6143,708,-56,2,180
253387601,0.685546875,-0.60443115234375,-0.33056640625,0.2353515625,1981,-6143,575,-62,-1,187
253397582,0.6748046875,-0.61761474609375,-0.3179931640625,0.2490234375,1565,-6179,422,-67,-1,196
253407564,0.66326904296875,-0.63092041015625,-0.304931640625,0.2628173828125,1178,-6236,312,-70,-1,198
253417551,0.65155029296875,-0.6435546875,-0.2923583984375,0.275390625,843,-6311,247,-71,1,185
253427530,0.640625,-0.65484619140625,-0.2816162109375,0.28533935546875,568,-6414,232,-70,5,150
253437518,0.63177490234375,-0.6640625,-0.2742919921875,0.29095458984375,357,-6525,247,-67,11,95
253447500,0.62591552734375,-0.670654296875,-0.27203369140625,0.29058837890625,161,-6645,283,-63,18,18
253457481,0.62359619140625,-0.67425537109375,-0.27618408203125,0.283203125,-69,-6788,265,-59,24,-71
253467461,0.62457275390625,-0.67462158203125,-0.28692626953125,0.26910400390625,-284,-6967,161,-55,27,-156
253477449,0.6280517578125,-0.67181396484375,-0.303466796875,0.24932861328125,-377,-7149,23,-50,26,-228
253487430,0.63311767578125,-0.66571044921875,-0.32452392578125,0.22515869140625,-335,-7371,-119,-44,24,-283
253497422,0.638916015625,-0.656494140625,-0.34857177734375,0.19818115234375,-205,-7711,-273,-36,20,-320
253507404,0.64483642578125,-0.64453125,-0.3740234375,0.16998291015625,41,-8050,-339,-26,14,-339
253517382,0.650634765625,-0.6298828125,-0.39984130859375,0.141845703125,415,-8278,-340,-14,7,-346
253527362,0.65576171875,-0.6134033203125,-0.42486572265625,0.11492919921875,871,-8305,-440,-3,1,-335
253537350,0.6595458984375,-0.59698486328125,-0.44757080078125,0.0911865234375,1310,-8225,-630,5,-7,-299
253547325,0.6617431640625,-0.5823974609375,-0.46649169921875,0.07269287109375,1778,-8170,-812,9,-16,-239
253557308,0.66241455078125,-0.57171630859375,-0.48016357421875,0.0615234375,2281,-8133,-936,11,-26,-150
253567293,0.6617431640625,-0.56707763671875,-0.4866943359375,0.06005859375,2801,-8046,-946,13,-36,-31
253577280,0.659912109375,-0.56927490234375,-0.48553466796875,0.0689697265625,3225,-7918,-944,15,-44,88
253587258,0.65673828125,-0.5765380859375,-0.478515625,0.08563232421875,3500,-7753,-957,16,-51,169
253597244,0.6522216796875,-0.58636474609375,-0.468505859375,0.10650634765625,3590,-7590,-1018,14,-58,207
253607230,0.64642333984375,-0.59661865234375,-0.4578857421875,0.1285400390625,3531,-7453,-1137,11,-64,212
253617214,0.63958740234375,-0.60626220703125,-0.44818115234375,0.150146484375,3415,-7340,-1246,7,-71,201
253627194,0.63201904296875,-0.6148681640625,-0.4398193359375,0.17034912109375,3305,-7238,-1327,2,-75,185
253637187,0.6240234375,-0.62255859375,-0.43280029296875,0.1890869140625,3228,-7171,-1333,-3,-76,169
253647166,0.6158447265625,-0.62939453125,-0.4266357421875,0.206298828125,3145,-7169,-1260,-8,-75,156
253657154,0.60772705078125,-0.635498046875,-0.42132568359375,0.22198486328125,3080,-7234,-1124,-11,-73,141
253667123,0.60009765625,-0.6405029296875,-0.417236328125,0.23577880859375,3054,-7338,-941,-13,-70,120
253677107,0.59344482421875,-0.64398193359375,-0.414794921875,0.24713134765625,3048,-7470,-683,-13,-65,91
253687091,0.58837890625,-0.6453857421875,-0.414794921875,0.25531005859375,3087,-7598,-386,-12,-59,50
253697074,0.58551025390625,-0.6444091796875,-0.41778564453125,0.25970458984375,3167,-7654,-85,-10,-51,3
253707053,0.5848388671875,-0.64093017578125,-0.42376708984375,0.260009765625,3275,-7642,182,-7,-41,-44
253717033,0.58624267578125,-0.63519287109375,-0.4324951171875,0.25640869140625,3393,-7639,362,-5,-31,-89
253727016,0.58935546875,-0.627685546875,-0.4432373046875,0.24932861328125,3557,-7653,405,-4,-20,-123
253737000,0.59356689453125,-0.61920166015625,-0.454833984375,0.23956298828125,3774,-7650,285,-3,-9,-142
253746992,0.5982666015625,-0.61065673828125,-0.466064453125,0.2281494140625,4043,-7575,11,-4,4,-145
253756974,0.6029052734375,-0.602783203125,-0.4759521484375,0.21588134765625,4402,-7372,-439,-5,16,-136
253766951,0.60736083984375,-0.59600830078125,-0.48443603515625,0.20306396484375,4945,-7069,-1141,-7,28,-124
253776934,0.611328125,-0.590576171875,-0.491455078125,0.18963623046875,5654,-6752,-2113,-10,40,-109
253786916,0.61474609375,-0.5865478515625,-0.4971923828125,0.17578125,6394,-6520,-3181,-14,51,-96
253796898,0.61761474609375,-0.5838623046875,-0.50140380859375,0.16204833984375,7007,-6423,-4225,-17,58,-80
253806884,0.619873046875,-0.58294677734375,-0.5035400390625,0.14971923828125,7362,-6473,-5102,-18,63,-55
253816869,0.6214599609375,-0.583984375,-0.50323486328125,0.1396484375,7465,-6540,-5688,-19,65,-25
253826854,0.62261962890625,-0.58673095703125,-0.500732421875,0.1319580078125,7261,-6605,-5962,-19,64,1
253836833,0.62322998046875,-0.5906982421875,-0.49664306640625,0.1263427734375,6816,-6738,-6049,-20,61,17
253846815,0.6234130859375,-0.5953369140625,-0.491943359375,0.122314453125,6125,-7015,-6001,-20,55,25
253856798,0.623046875,-0.6002197265625,-0.487060546875,0.11981201171875,5276,-7451,-5879,-19,46,29
253866784,0.62225341796875,-0.60504150390625,-0.4822998046875,0.118896484375,4354,-7988,-5633,-17,35,31
253876770,0.62109375,-0.609619140625,-0.477783203125,0.1197509765625,3400,-8600,-5264,-13,22,32
253886756,0.61968994140625,-0.61358642578125,-0.473876953125,0.12225341796875,2414,-9193,-4797,-8,8,30
253896738,0.61810302734375,-0.61669921875,-0.4708251953125,0.1260986328125,1523,-9693,-4185,-3,-5,26
253906712,0.61676025390625,-0.61871337890625,-0.46875,0.130859375,800,-10173,-3410,2,-16,20
253916692,0.61578369140625,-0.61962890625,-0.46728515625,0.13623046875,163,-10660,-2515,6,-23,13
253926676,0.61529541015625,-0.61956787109375,-0.46630859375,0.141845703125,-447,-11017,-1522,9,-26,5
253936663,0.615478515625,-0.61834716796875,-0.46624755859375,0.14654541015625,-1006,-11165,-549,9,-25,-13
253946641,0.61627197265625,-0.6160888671875,-0.46728515625,0.1494140625,-1531,-11240,200,7,-20,-33
253956625,0.6173095703125,-0.61376953125,-0.4683837890625,0.1512451171875,-2076,-11312,671,6,-14,-35
253966606,0.61810302734375,-0.612548828125,-0.468017578125,0.154052734375,-2612,-11246,909,6,-10,-15
253976595,0.61846923828125,-0.61297607421875,-0.46551513671875,0.15850830078125,-3108,-11008,1028,6,-6,10
253986575,0.618408203125,-0.61468505859375,-0.46142578125,0.1639404296875,-3534,-10580,1006,5,-2,27
253996562,0.617919921875,-0.6173095703125,-0.4564208984375,0.169677734375,-3830,-10042,822,3,1,37
254006542,0.6170654296875,-0.62066650390625,-0.45074462890625,0.17572021484375,-3933,-9465,524,3,2,48
254016527,0.61578369140625,-0.62432861328125,-0.44476318359375,0.1822509765625,-3770,-8790,141,5,-1,56
254026507,0.61419677734375,-0.627685546875,-0.43939208984375,0.18896484375,-3214,-8006,-242,8,-7,58
254036492,0.61260986328125,-0.62994384765625,-0.435546875,0.1954345703125,-2178,-7091,-461,11,-18,52
254046474,0.611328125,-0.63031005859375,-0.43414306640625,0.20123291015625,-659,-6159,-432,15,-31,38
254056457,0.61077880859375,-0.62823486328125,-0.4356689453125,0.2060546875,1210,-5320,-241,21,-46,19
254066449,0.61065673828125,-0.6236572265625,-0.44049072265625,0.2099609375,3165,-4504,-177,26,-62,-2
254076427,0.61053466796875,-0.6171875,-0.4483642578125,0.21295166015625,4965,-3733,-429,30,-76,-22
254086409,0.61004638671875,-0.6092529296875,-0.4586181640625,0.21533203125,6494,-3082,-941,34,-87,-34
254096391,0.60888671875,-0.6007080078125,-0.4700927734375,0.21783447265625,7771,-2650,-1560,35,-95,-36
254106371,0.60711669921875,-0.59222412109375,-0.481689453125,0.22064208984375,8835,-2476,-2152,35,-98,-31
254116354,0.6048583984375,-0.584228515625,-0.49273681640625,0.22369384765625,9632,-2526,-2695,33,-96,-25
254126336,0.6024169921875,-0.5767822265625,-0.503173828125,0.22637939453125,10080,-2767,-3164,29,-88,-25
254136320,0.60015869140625,-0.5699462890625,-0.51275634765625,0.2281494140625,10166,-3175,-3444,24,-77,-29
254146302,0.59857177734375,-0.56341552734375,-0.52154541015625,0.228515625,9906,-3678,-3542,19,-61,-37
254156285,0.59783935546875,-0.55755615234375,-0.52911376953125,0.2275390625,9335,-4260,-3418,13,-44,-43
254166268,0.5980224609375,-0.55255126953125,-0.53515625,0.2252197265625,8537,-4859,-3069,7,-24,-46
254176256,0.59912109375,-0.5487060546875,-0.53936767578125,0.2216796875,7608,-5392,-2547,-1,-4,-46
254186240,0.600830078125,-0.54632568359375,-0.54180908203125,0.21685791015625,6597,-5869,-2014,-11,15,-44
254196222,0.6029052734375,-0.54559326171875,-0.54248046875,0.21099853515625,5496,-6355,-1528,-22,33,-39
254206205,0.6051025390625,-0.5467529296875,-0.5413818359375,0.20452880859375,4334,-6874,-1159,-31,48,-30
254216192,0.6070556640625,-0.550048828125,-0.53826904296875,0.1981201171875,3167,-7394,-945,-38,61,-16
254226182,0.608642578125,-0.555419921875,-0.53302001953125,0.19219970703125,2054,-7865,-892,-44,72,2
254236162,0.60980224609375,-0.5626220703125,-0.52593994140625,0.18695068359375,1075,-8232,-1013,-47,80,20
254246131,0.6104736328125,-0.5712890625,-0.5174560546875,0.18231201171875,217,-8488,-1315,-49,85,32
254256114,0.610595703125,-0.5806884765625,-0.50823974609375,0.177978515625,-564,-8705,-1746,-50,87,38
254266097,0.6102294921875,-0.59027099609375,-0.4990234375,0.17388916015625,-1270,-8900,-2252,-49,85,38
254276083,0.609375,-0.5994873046875,-0.4903564453125,0.169921875,-1833,-9093,-2747,-48,79,32
254286068,0.60821533203125,-0.6077880859375,-0.4827880859375,0.16619873046875,-2211,-9284,-3163,-44,69,24
254296051,0.60687255859375,-0.6148681640625,-0.47662353515625,0.1627197265625,-2393,-9433,-3422,-40,58,15
254306036,0.60546875,-0.6207275390625,-0.47186279296875,0.1597900390625,-2375,-9540,-3570,-34,45,8
254316018,0.60400390625,-0.625244140625,-0.46844482421875,0.15753173828125,-2135,-9530,-3582,-28,32,3
254326001,0.60260009765625,-0.62860107421875,-0.46630859375,0.156005859375,-1735,-9408,-3486,-22,20,0
254335990,0.60113525390625,-0.63092041015625,-0.46527099609375,0.15521240234375,-1250,-9179,-3352,-17,8,-2
254345963,0.599609375,-0.63238525390625,-0.46533203125,0.15509033203125,-650,-8904,-3226,-13,-3,-4
254355943,0.59796142578125,-0.63311767578125,-0.46636962890625,0.1553955078125,81,-8679,-3170,-9,-12,-6
254365927,0.59619140625,-0.63336181640625,-0.468017578125,0.1561279296875,893,-8529,-3162,-6,-18,-4
254375916,0.59442138671875,-0.63330078125,-0.469970703125,0.15728759765625,1701,-8384,-3150,-3,-23,0
254385896,0.59271240234375,-0.633056640625,-0.471923828125,0.15899658203125,2494,-8169,-3136,0,-26,4
254395878,0.5911865234375,-0.632568359375,-0.473876953125,0.1607666015625,3316,-7834,-3064,2,-27,6
254405862,0.5899658203125,-0.63165283203125,-0.4761962890625,0.1619873046875,4208,-7324,-2968,3,-26,3
254415845,0.589111328125,-0.630126953125,-0.4791259765625,0.16217041015625,5251,-6675,-2820,3,-24,-3
254425823,0.58880615234375,-0.62799072265625,-0.4827880859375,0.16070556640625,6482,-5991,-2647,1,-19,-12
254435808,0.58905029296875,-0.62542724609375,-0.4869384765625,0.15753173828125,7747,-5331,-2481,-2,-13,-17
254445786,0.58966064453125,-0.622802734375,-0.490966796875,0.15301513671875,8892,-4792,-2339,-5,-4,-18
254455773,0.590576171875,-0.62066650390625,-0.49420166015625,0.1475830078125,9837,-4390,-2245,-9,6,-15
254465766,0.591796875,-0.61920166015625,-0.49639892578125,0.14129638671875,10634,-4068,-2182,-13,18,-10
254475748,0.59344482421875,-0.61846923828125,-0.4974365234375,0.13397216796875,11333,-3764,-2163,-17,31,-6
254485723,0.59539794921875,-0.6182861328125,-0.49749755859375,0.1253662109375,11796,-3479,-2162,-22,44,-5
254495706,0.59771728515625,-0.61865234375,-0.49664306640625,0.1153564453125,11939,-3292,-2188,-27,59,-9
254505691,0.6002197265625,-0.61962890625,-0.494873046875,0.10430908203125,11737,-3356,-2256,-32,71,-11
254515674,0.60284423828125,-0.6212158203125,-0.49200439453125,0.09259033203125,11312,-3686,-2345,-37,82,-11
254525657,0.60552978515625,-0.6234130859375,-0.48809814453125,0.08056640625,10642,-4151,-2467,-40,91,-12
254535640,0.60821533203125,-0.6258544921875,-0.48345947265625,0.068115234375,9759,-4659,-2646,-42,98,-16
254545622,0.61090087890625,-0.6282958984375,-0.478515625,0.05523681640625,8758,-5196,-2894,-43,104,-25
254555606,0.61346435546875,-0.630615234375,-0.47357177734375,0.0418701171875,7663,-5820,-3232,-43,108,-33
254565590,0.6158447265625,-0.63299560546875,-0.46826171875,0.028564453125,6443,-6614,-3626,-44,112,-37
254575575,0.617919921875,-0.6357421875,-0.4622802734375,0.015869140625,5198,-7535,-4041,-44,113,-35
254585557,0.61968994140625,-0.63909912109375,-0.45556640625,0.00433349609375,3933,-8524,-4393,-44,111,-30
254595542,0.62127685546875,-0.64300537109375,-0.44781494140625,-0.0057373046875,2779,-9484,-4631,-43,109,-19
254605524,0.6226806640625,-0.64764404296875,-0.43890380859375,-0.01416015625,1749,-10341,-4737,-43,106,-6
254615508,0.6240234375,-0.65289306640625,-0.4288330078125,-0.0208740234375,689,-11144,-4800,-41,102,7
254625488,0.62530517578125,-0.65869140625,-0.417724609375,-0.0257568359375,-498,-11909,-4893,-37,99,18
254635473,0.62646484375,-0.664794921875,-0.406005859375,-0.02886962890625,-1646,-12483,-4981,-33,93,25
254645456,0.6275634765625,-0.670654296875,-0.394287109375,-0.03094482421875,-2645,-12835,-4951,-28,87,26
254655437,0.628662109375,-0.67584228515625,-0.38336181640625,-0.03265380859375,-3506,-12997,-4814,-25,80,19
254665429,0.62969970703125,-0.68011474609375,-0.37384033203125,-0.03466796875,-4244,-13031,-4619,-22,74,5
254675413,0.63055419921875,-0.6834716796875,-0.3658447265625,-0.037109375,-4866,-13022,-4425,-19,68,-8
254685394,0.6314697265625,-0.6864013671875,-0.35858154296875,-0.03900146484375,-5310,-12955,-4236,-15,61,-7
254695379,0.632568359375,-0.6893310546875,-0.3509521484375,-0.03955078125,-5530,-12766,-4026,-10,55,6
254705358,0.63397216796875,-0.69232177734375,-0.34259033203125,-0.03826904296875,-5584,-12453,-3759,-4,48,25
254715343,0.63580322265625,-0.6953125,-0.33331298828125,-0.03515625,-5497,-12013,-3443,2,42,42
254725324,0.63800048828125,-0.6981201171875,-0.32354736328125,-0.0306396484375,-5332,-11489,-3075,8,36,53
254735305,0.64044189453125,-0.70050048828125,-0.31390380859375,-0.02532958984375,-5127,-10897,-2751,14,31,57
254745293,0.6429443359375,-0.70233154296875,-0.30487060546875,-0.0196533203125,-4857,-10289,-2494,18,25,55
254755270,0.6455078125,-0.70355224609375,-0.296875,-0.013916015625,-4520,-9699,-2290,22,19,51
254765256,0.6480712890625,-0.7042236328125,-0.2899169921875,-0.0081787109375,-4105,-9178,-2198,26,12,47
254775242,0.6505126953125,-0.70440673828125,-0.28399658203125,-0.0023193359375,-3633,-8791,-2184,30,6,44
254785223,0.65289306640625,-0.70416259765625,-0.27911376953125,0.00360107421875,-3119,-8426,-2203,33,-1,39
254795205,0.6552734375,-0.70330810546875,-0.2755126953125,0.009521484375,-2613,-8056,-2205,36,-8,32
254805190,0.65753173828125,-0.70184326171875,-0.273681640625,0.01507568359375,-2058,-7604,-2098,37,-17,21
254815174,0.65972900390625,-0.699462890625,-0.27398681640625,0.0198974609375,-1204,-7003,-1775,38,-26,9
254825158,0.66204833984375,-0.69635009765625,-0.2760009765625,0.0242919921875,-13,-6366,-1265,38,-35,6
254835128,0.66436767578125,-0.69293212890625,-0.27862548828125,0.02911376953125,1407,-5787,-719,38,-42,16
254845113,0.66656494140625,-0.689697265625,-0.28076171875,0.03515625,2866,-5301,-295,37,-47,34
254855097,0.66839599609375,-0.68670654296875,-0.28265380859375,0.04180908203125,4429,-4764,103,36,-51,43
254865079,0.6702880859375,-0.6834716796875,-0.2852783203125,0.04779052734375,6149,-4143,701,33,-52,40
254875063,0.6722412109375,-0.6793212890625,-0.2896728515625,0.0518798828125,7992,-3497,1444,28,-53,24
254885042,0.67431640625,-0.67425537109375,-0.29644775390625,0.0533447265625,9794,-2961,2129,24,-53,1
254895026,0.6761474609375,-0.66845703125,-0.3052978515625,0.05242919921875,11403,-2520,2562,19,-53,-19
254905006,0.677490234375,-0.66265869140625,-0.3153076171875,0.05023193359375,12720,-2119,2788,15,-53,-27
254914994,0.67822265625,-0.65716552734375,-0.325439453125,0.04754638671875,13692,-1779,2842,10,-52,-26
254924976,0.67828369140625,-0.65234375,-0.335205078125,0.04510498046875,14405,-1640,2749,4,-52,-20
254934956,0.6776123046875,-0.64849853515625,-0.3441162109375,0.043212890625,14930,-1757,2501,0,-52,-10
254944946,0.67620849609375,-0.64593505859375,-0.35174560546875,0.04248046875,15290,-2171,2100,-5,-51,6
254954922,0.67413330078125,-0.64471435546875,-0.3577880859375,0.04296875,15426,-2736,1582,-10,-49,22
254964906,0.671630859375,-0.64471435546875,-0.3624267578125,0.044189453125,15332,-3329,1043,-14,-44,30
254974888,0.6689453125,-0.64520263671875,-0.36639404296875,0.04498291015625,15004,-3906,496,-17,-37,26
254984870,0.666259765625,-0.6456298828125,-0.37054443359375,0.0443115234375,14483,-4468,-44,-19,-29,9
254994853,0.663818359375,-0.6455078125,-0.37542724609375,0.041748046875,13773,-5004,-573,-19,-21,-12
255004834,0.66162109375,-0.644775390625,-0.3809814453125,0.03729248046875,12887,-5473,-1041,-18,-14,-34
255014819,0.6597900390625,-0.64337158203125,-0.3870849609375,0.03143310546875,11899,-5917,-1429,-17,-8,-51
255024801,0.658203125,-0.641357421875,-0.3934326171875,0.02490234375,10882,-6353,-1757,-14,-4,-61
255034784,0.656982421875,-0.63916015625,-0.3994140625,0.0185546875,9832,-6767,-2047,-10,-2,-62
255044768,0.65606689453125,-0.63690185546875,-0.4046630859375,0.012939453125,8729,-7132,-2246,-6,0,-60
255054755,0.655517578125,-0.63470458984375,-0.40911865234375,0.008056640625,7555,-7518,-2346,-2,2,-57
255064742,0.6553955078125,-0.6324462890625,-0.412841796875,0.00396728515625,6328,-7919,-2429,2,4,-56
255074717,0.65557861328125,-0.630126953125,-0.4161376953125,0.000244140625,5134,-8281,-2495,5,7,-58
255084700,0.65618896484375,-0.62744140625,-0.41925048828125,-0.00347900390625,4012,-8611,-2480,8,10,-63
255094683,0.65716552734375,-0.624267578125,-0.42236328125,-0.00738525390625,2959,-8934,-2412,11,12,-70
255104671,0.658447265625,-0.62066650390625,-0.42559814453125,-0.01171875,2000,-9178,-2269,13,14,-78
255114652,0.659912109375,-0.61663818359375,-0.42901611328125,-0.01629638671875,1184,-9315,-2006,13,15,-83
255124636,0.66162109375,-0.61248779296875,-0.43206787109375,-0.02105712890625,498,-9327,-1620,12,16,-81
255134618,0.6634521484375,-0.6087646484375,-0.434326171875,-0.02557373046875,-156,-9403,-1140,9,19,-75
255144602,0.66522216796875,-0.60589599609375,-0.435302734375,-0.02947998046875,-817,-9646,-728,3,21,-65
255154584,0.66680908203125,-0.60418701171875,-0.43505859375,-0.03277587890625,-1427,-10006,-424,-3,25,-55
255164564,0.6680908203125,-0.603515625,-0.43377685546875,-0.035888671875,-1938,-10466,-227,-9,28,-49
255174549,0.6690673828125,-0.60406494140625,-0.43133544921875,-0.03839111328125,-2379,-11001,-97,-15,30,-36
255184531,0.669921875,-0.60595703125,-0.4271240234375,-0.03948974609375,-2799,-11480,23,-19,32,-16
255194518,0.6707763671875,-0.609375,-0.4210205078125,-0.038818359375,-3172,-11813,175,-21,33,8
255204497,0.6717529296875,-0.614013671875,-0.412841796875,-0.0362548828125,-3510,-11948,332,-22,33,34
255214480,0.6727294921875,-0.619873046875,-0.4027099609375,-0.031494140625,-3820,-11923,389,-21,33,61
255224463,0.67364501953125,-0.6265869140625,-0.39111328125,-0.02471923828125,-4081,-11798,328,-18,31,82
255234449,0.67431640625,-0.6337890625,-0.378662109375,-0.01611328125,-4327,-11638,93,-14,26,97
255244436,0.67462158203125,-0.64093017578125,-0.36614990234375,-0.006103515625,-4446,-11501,-281,-9,18,104
255254417,0.6744384765625,-0.6475830078125,-0.35455322265625,0.004638671875,-4375,-11353,-741,-3,9,103
255264408,0.6739501953125,-0.65350341796875,-0.34423828125,0.0157470703125,-4079,-11178,-1202,2,-1,99
255274381,0.67315673828125,-0.65850830078125,-0.33551025390625,0.027099609375,-3621,-10901,-1663,8,-11,94
255284363,0.67205810546875,-0.66253662109375,-0.32855224609375,0.038330078125,-3050,-10488,-2063,12,-22,86
255294350,0.670654296875,-0.6656494140625,-0.3236083984375,0.04931640625,-2387,-9941,-2378,15,-34,76
255304330,0.66900634765625,-0.66766357421875,-0.3211669921875,0.0596923828125,-1443,-9246,-2668,17,-45,62
255314313,0.66705322265625,-0.66845703125,-0.32159423828125,0.06884765625,10,-8368,-2747,18,-57,46
255324295,0.665283203125,-0.6678466796875,-0.32501220703125,0.076416015625,2179,-7323,-2416,18,-67,34
255334279,0.66400146484375,-0.66571044921875,-0.330322265625,0.0826416015625,4832,-6307,-1696,18,-72,32
255344261,0.6630859375,-0.66302490234375,-0.33599853515625,0.0882568359375,7424,-5546,-1054,16,-73,41
255354240,0.661865234375,-0.66094970703125,-0.34088134765625,0.093994140625,9522,-5075,-760,12,-69,54
255364234,0.66009521484375,-0.6600341796875,-0.344482421875,0.10015869140625,11043,-4794,-692,8,-64,67
255374217,0.657958984375,-0.6600341796875,-0.34661865234375,0.10650634765625,12043,-4670,-738,4,-56,76
255384205,0.6556396484375,-0.6607666015625,-0.34771728515625,0.112548828125,12489,-4708,-858,0,-48,78
255394189,0.65325927734375,-0.661865234375,-0.3482666015625,0.1177978515625,12420,-4975,-1057,-3,-40,70
255404173,0.6510009765625,-0.66302490234375,-0.34893798828125,0.1219482421875,11932,-5412,-1301,-4,-33,55
255414154,0.64910888671875,-0.66375732421875,-0.3499755859375,0.12481689453125,11166,-5932,-1508,-4,-28,37
255424123,0.647705078125,-0.66387939453125,-0.351806640625,0.1263427734375,10234,-6489,-1622,-2,-24,17
255434112,0.64691162109375,-0.66314697265625,-0.35455322265625,0.126708984375,9242,-7002,-1659,0,-21,-2
255444086,0.64654541015625,-0.6617431640625,-0.35797119140625,0.126220703125,8226,-7435,-1653,3,-19,-17
255454070,0.6466064453125,-0.65972900390625,-0.3619384765625,0.12518310546875,7226,-7747,-1655,5,-18,-28
255464053,0.6468505859375,-0.65728759765625,-0.36639404296875,0.1239013671875,6253,-7955,-1652,8,-19,-36
255474036,0.64727783203125,-0.6544189453125,-0.37115478515625,0.12255859375,5342,-8071,-1589,10,-21,-42
255484021,0.647705078125,-0.65130615234375,-0.37615966796875,0.12158203125,4518,-8114,-1493,12,-24,-44
255494005,0.64825439453125,-0.64801025390625,-0.38104248046875,0.12115478515625,3840,-8095,-1362,14,-26,-42
255503991,0.64874267578125,-0.644775390625,-0.38543701171875,0.1217041015625,3250,-8066,-1231,17,-29,-33
255513974,0.649169921875,-0.64178466796875,-0.38916015625,0.12347412109375,2753,-7999,-1156,20,-32,-24
255523950,0.6495361328125,-0.63885498046875,-0.392578125,0.1260986328125,2353,-7973,-1141,23,-34,-19
255533934,0.6497802734375,-0.6358642578125,-0.3958740234375,0.12933349609375,2046,-7974,-1189,25,-37,-16
255543916,0.6500244140625,-0.63299560546875,-0.3988037109375,0.13311767578125,1816,-7991,-1256,27,-37,-10
255553903,0.65008544921875,-0.6304931640625,-0.40118408203125,0.13763427734375,1639,-7969,-1300,27,-38,-1
255563889,0.64996337890625,-0.62847900390625,-0.4027099609375,0.1429443359375,1494,-7891,-1282,27,-37,9
255573870,0.649658203125,-0.62689208984375,-0.4034423828125,0.14886474609375,1375,-7818,-1203,25,-36,19
255583864,0.649169921875,-0.6259765625,-0.4033203125,0.1552734375,1262,-7737,-1113,23,-34,28
255593841,0.64849853515625,-0.62554931640625,-0.40234375,0.162109375,1157,-7693,-1053,21,-32,35
255603824,0.64752197265625,-0.62567138671875,-0.40087890625,0.1690673828125,1067,-7707,-1046,19,-30,41
255613809,0.64642333984375,-0.6260986328125,-0.39892578125,0.17608642578125,978,-7773,-1077,18,-28,44
255623793,0.6451416015625,-0.62677001953125,-0.39678955078125,0.1829833984375,909,-7824,-1102,16,-26,45
255633771,0.64398193359375,-0.62744140625,-0.39471435546875,0.189453125,861,-7829,-1138,15,-24,42
255643763,0.642822265625,-0.62786865234375,-0.39288330078125,0.19537353515625,824,-7823,-1165,15,-23,36
255653748,0.64190673828125,-0.6280517578125,-0.3914794921875,0.20062255859375,791,-7774,-1190,15,-22,29
255663725,0.64117431640625,-0.62786865234375,-0.39068603515625,0.205078125,793,-7688,-1220,14,-21,21
255673708,0.640625,-0.6273193359375,-0.3905029296875,0.208740234375,856,-7592,-1216,14,-20,13
255683692,0.640380859375,-0.6263427734375,-0.3909912109375,0.2115478515625,947,-7472,-1216,13,-20,5
255693675,0.64031982421875,-0.625,-0.39202880859375,0.21380615234375,1077,-7330,-1191,14,-19,-1
255703652,0.640380859375,-0.6234130859375,-0.3934326171875,0.21563720703125,1209,-7205,-1157,13,-20,-5
255713635,0.64044189453125,-0.6217041015625,-0.39501953125,0.21728515625,1336,-7101,-1140,13,-20,-6
255723618,0.64044189453125,-0.6201171875,-0.39666748046875,0.218994140625,1444,-7048,-1140,12,-20,-5
255733608,0.6402587890625,-0.61871337890625,-0.3980712890625,0.220947265625,1540,-7042,-1155,12,-21,0
255743585,0.6397705078125,-0.6175537109375,-0.39923095703125,0.22344970703125,1605,-7087,-1181,11,-22,6
255753568,0.63897705078125,-0.61688232421875,-0.39990234375,0.22650146484375,1655,-7164,-1238,10,-23,13
255763552,0.63775634765625,-0.6165771484375,-0.400146484375,0.23016357421875,1702,-7252,-1299,10,-25,21
255773542,0.63616943359375,-0.61669921875,-0.4000244140625,0.23455810546875,1724,-7341,-1361,8,-27,28
255783519,0.6341552734375,-0.61712646484375,-0.3995361328125,0.2393798828125,1736,-7451,-1424,7,-28,34
255793504,0.6318359375,-0.617919921875,-0.39892578125,0.24462890625,1750,-7571,-1447,5,-30,38
255803486,0.6292724609375,-0.61883544921875,-0.398193359375,0.25006103515625,1779,-7666,-1458,4,-30,41
255813470,0.62652587890625,-0.61981201171875,-0.3975830078125,0.25531005859375,1820,-7784,-1445,2,-30,40
255823449,0.62384033203125,-0.620849609375,-0.39703369140625,0.2603759765625,1840,-7908,-1407,0,-30,38
255833436,0.62115478515625,-0.6217041015625,-0.396728515625,0.2650146484375,1826,-8044,-1386,-1,-29,34
255843417,0.61865234375,-0.62249755859375,-0.39666748046875,0.26922607421875,1775,-8156,-1385,-1,-28,29
255853399,0.61627197265625,-0.623046875,-0.39691162109375,0.27288818359375,1714,-8226,-1373,-2,-27,24
255863378,0.61407470703125,-0.62335205078125,-0.397705078125,0.276123046875,1662,-8255,-1337,-3,-27,17
255873361,0.61212158203125,-0.62322998046875,-0.39898681640625,0.2786865234375,1632,-8238,-1274,-3,-27,10
255883343,0.61041259765625,-0.622802734375,-0.40081787109375,0.28076171875,1605,-8193,-1185,-3,-27,2
255893323,0.6090087890625,-0.62200927734375,-0.40313720703125,0.28228759765625,1589,-8137,-1076,-4,-27,-4
255903303,0.6077880859375,-0.62091064453125,-0.4058837890625,0.28338623046875,1566,-8141,-1000,-4,-26,-9
255913293,0.606689453125,-0.61962890625,-0.40875244140625,0.28436279296875,1521,-8190,-968,-3,-27,-11
255923270,0.6055908203125,-0.61834716796875,-0.41162109375,0.28546142578125,1458,-8247,-949,-3,-28,-11
255933256,0.60430908203125,-0.6170654296875,-0.4144287109375,0.286865234375,1387,-8267,-924,-2,-29,-9
255943244,0.60296630859375,-0.61572265625,-0.4171142578125,0.28863525390625,1316,-8249,-871,-1,-31,-6
255953231,0.6015625,-0.61431884765625,-0.41973876953125,0.290771484375,1284,-8181,-782,0,-33,-4
255963212,0.60015869140625,-0.61279296875,-0.4222412109375,0.293212890625,1303,-8121,-633,1,-34,-3
255973205,0.598876953125,-0.61114501953125,-0.42462158203125,0.2958984375,1336,-8071,-461,2,-35,0
255983184,0.59747314453125,-0.609619140625,-0.42669677734375,0.29888916015625,1351,-8063,-308,2,-35,3
255993166,0.5960693359375,-0.608154296875,-0.42840576171875,0.30218505859375,1367,-8085,-194,3,-35,8
256003143,0.59454345703125,-0.60687255859375,-0.42974853515625,0.3057861328125,1368,-8130,-110,3,-34,11
256013120,0.59295654296875,-0.60577392578125,-0.43084716796875,0.30963134765625,1349,-8159,-55,4,-34,14
256023103,0.59130859375,-0.6046142578125,-0.43182373046875,0.3134765625,1305,-8168,-38,5,-34,14
256033087,0.5897216796875,-0.60345458984375,-0.432861328125,0.31732177734375,1292,-8165,-53,5,-34,13
256043072,0.58831787109375,-0.60211181640625,-0.43402099609375,0.32086181640625,1289,-8142,-79,6,-32,10
256053054,0.5870361328125,-0.6007080078125,-0.43536376953125,0.32403564453125,1302,-8132,-147,6,-31,6
256063037,0.58587646484375,-0.59918212890625,-0.43695068359375,0.326904296875,1318,-8141,-253,6,-30,4
256073021,0.58477783203125,-0.59759521484375,-0.43853759765625,0.32952880859375,1320,-8167,-382,6,-29,2
256083005,0.583740234375,-0.5960693359375,-0.440185546875,0.33197021484375,1322,-8171,-528,6,-29,1
256092996,0.58270263671875,-0.59454345703125,-0.44183349609375,0.33428955078125,1335,-8142,-679,7,-27,2
256102981,0.5816650390625,-0.59307861328125,-0.44342041015625,0.3365478515625,1364,-8105,-797,6,-27,2
256112958,0.5806884765625,-0.5916748046875,-0.4449462890625,0.33868408203125,1406,-8081,-922,7,-25,2
256122942,0.5797119140625,-0.59039306640625,-0.4464111328125,0.3406982421875,1459,-8066,-1044,6,-24,3
256132923,0.5787353515625,-0.5892333984375,-0.44769287109375,0.3426513671875,1520,-8045,-1135,6,-23,4
256142907,0.57769775390625,-0.5882568359375,-0.4488525390625,0.3446044921875,1571,-8032,-1222,6,-21,6
256152890,0.57666015625,-0.58746337890625,-0.44976806640625,0.34649658203125,1608,-7993,-1283,5,-20,8
256162877,0.57562255859375,-0.58685302734375,-0.45050048828125,0.34832763671875,1630,-7920,-1316,5,-18,9
256172857,0.5745849609375,-0.5863037109375,-0.451171875,0.35003662109375,1647,-7810,-1325,4,-17,9
256182839,0.57373046875,-0.5858154296875,-0.4517822265625,0.35150146484375,1665,-7711,-1325,4,-15,7
256192820,0.57293701171875,-0.58526611328125,-0.452392578125,0.35284423828125,1657,-7616,-1289,3,-14,6
256202804,0.572265625,-0.584716796875,-0.453125,0.35394287109375,1611,-7565,-1199,2,-13,3
256215995,0.5716552734375,-0.5841064453125,-0.4539794921875,0.3548583984375,1550,-7537,-1100,1,-13,1
256222771,0.57110595703125,-0.58343505859375,-0.455078125,0.35546875,1512,-7524,-975,-1,-13,-2
256232749,0.57061767578125,-0.5826416015625,-0.456298828125,0.35595703125,1476,-7486,-861,-2,-13,-3
256242731,0.57012939453125,-0.5819091796875,-0.45751953125,0.3564453125,1451,-7455,-731,-3,-13,-3
256252708,0.56951904296875,-0.581298828125,-0.458740234375,0.3568115234375,1447,-7430,-610,-5,-12,-2
256262697,0.56878662109375,-0.58087158203125,-0.4598388671875,0.357177734375,1452,-7438,-503,-5,-11,0
256272675,0.5679931640625,-0.58074951171875,-0.460693359375,0.357666015625,1444,-7459,-431,-7,-11,2
256282657,0.56707763671875,-0.580810546875,-0.4613037109375,0.35821533203125,1406,-7510,-380,-7,-9,5
256292641,0.5660400390625,-0.58111572265625,-0.46173095703125,0.35870361328125,1335,-7594,-360,-8,-8,6
256302623,0.56500244140625,-0.58160400390625,-0.4620361328125,0.3592529296875,1248,-7702,-349,-8,-7,7
256312610,0.56396484375,-0.5821533203125,-0.46209716796875,0.35986328125,1131,-7809,-347,-8,-6,7
256322593,0.56292724609375,-0.58270263671875,-0.462158203125,0.36053466796875,1018,-7919,-365,-8,-6,7
256332576,0.5618896484375,-0.583251953125,-0.4622802734375,0.361083984375,918,-8011,-395,-7,-6,6
256342558,0.56103515625,-0.58367919921875,-0.46246337890625,0.361572265625,847,-8096,-440,-7,-6,4
256352542,0.56011962890625,-0.58404541015625,-0.462646484375,0.362060546875,775,-8195,-495,-7,-6,4
