subject,Two-hands and jerked
arm,neither
label,0
hz,100.1703435357218
time,5.560528

timestamp_us,q0,q1,q2,q3,ax,ay,az,gx,gy,gz
238101237,0.70062255859375,0.22113037109375,0.6136474609375,-0.2890625,-8079,-913,1453,10,4,-1
238111226,0.699951171875,0.2220458984375,0.6136474609375,-0.29010009765625,-8127,-880,1470,12,4,-2
238121207,0.69921875,0.2230224609375,0.61358642578125,-0.291259765625,-8202,-834,1470,13,4,-2
238131187,0.698486328125,0.22418212890625,0.6134033203125,-0.29241943359375,-8292,-794,1469,15,3,-1
238141186,0.69781494140625,0.22552490234375,0.61309814453125,-0.29364013671875,-8357,-795,1474,16,3,0
238151166,0.69720458984375,0.2269287109375,0.6126708984375,-0.294921875,-8405,-792,1478,17,2,0
238161142,0.69659423828125,0.22845458984375,0.612060546875,-0.29632568359375,-8407,-816,1462,18,1,0
238171120,0.69598388671875,0.23004150390625,0.6114501953125,-0.29791259765625,-8397,-833,1457,20,1,0
238181104,0.6953125,0.231689453125,0.6107177734375,-0.29962158203125,-8339,-843,1425,21,0,-1
238191083,0.694580078125,0.23333740234375,0.6099853515625,-0.301513671875,-8293,-828,1387,22,0,-1
238201066,0.69384765625,0.23516845703125,0.60919189453125,-0.30340576171875,-8254,-796,1345,23,0,-1
238211054,0.693115234375,0.2371826171875,0.60833740234375,-0.3052978515625,-8225,-767,1304,24,0,0
238221034,0.6923828125,0.2392578125,0.607421875,-0.30712890625,-8207,-749,1272,25,-1,1
238231021,0.691650390625,0.241455078125,0.6064453125,-0.3089599609375,-8172,-736,1255,26,0,1
238241001,0.69091796875,0.24371337890625,0.60540771484375,-0.31085205078125,-8136,-711,1235,26,-1,1
238250991,0.6900634765625,0.24603271484375,0.60443115234375,-0.3128662109375,-8105,-675,1223,27,0,0
238260965,0.6890869140625,0.2484130859375,0.60345458984375,-0.31500244140625,-8070,-625,1189,28,1,0
238270949,0.68804931640625,0.25079345703125,0.6025390625,-0.317138671875,-8045,-588,1156,29,1,-1
238280929,0.68695068359375,0.253173828125,0.6015625,-0.31939697265625,-8011,-556,1121,29,1,-2
238290913,0.685791015625,0.25567626953125,0.60064697265625,-0.3216552734375,-7995,-517,1075,30,1,-2
238300896,0.6845703125,0.25823974609375,0.5997314453125,-0.3238525390625,-7973,-500,1028,30,1,-1
238310883,0.68341064453125,0.26092529296875,0.5987548828125,-0.32598876953125,-7958,-479,976,30,1,1
238320864,0.6822509765625,0.26373291015625,0.59771728515625,-0.3280029296875,-7967,-445,941,31,1,2
238330846,0.68109130859375,0.26666259765625,0.5966796875,-0.33001708984375,-7949,-409,915,31,1,2
238340831,0.679931640625,0.26959228515625,0.5955810546875,-0.33203125,-7939,-377,880,32,2,2
238350815,0.6785888671875,0.27239990234375,0.5946044921875,-0.33416748046875,-7903,-363,847,32,2,0
238360798,0.67724609375,0.27520751953125,0.59356689453125,-0.33648681640625,-7864,-334,801,32,2,-1
238370784,0.6756591796875,0.27801513671875,0.5926513671875,-0.33880615234375,-7817,-320,756,33,2,-2
238380769,0.67413330078125,0.2808837890625,0.59173583984375,-0.34124755859375,-7766,-308,715,33,3,-2
238390751,0.6724853515625,0.28375244140625,0.59088134765625,-0.34356689453125,-7737,-292,686,34,3,-2
238400733,0.6707763671875,0.28680419921875,0.5899658203125,-0.34588623046875,-7711,-271,662,34,4,-1
238410717,0.6690673828125,0.2899169921875,0.589111328125,-0.34808349609375,-7674,-238,654,34,5,0
238420699,0.667236328125,0.29302978515625,0.58831787109375,-0.35028076171875,-7599,-213,624,34,6,-1
238430683,0.665283203125,0.29632568359375,0.587646484375,-0.3524169921875,-7559,-182,613,34,8,0
238440662,0.66326904296875,0.299560546875,0.58697509765625,-0.35455322265625,-7526,-153,609,34,9,-1
238450644,0.66107177734375,0.3028564453125,0.58648681640625,-0.356689453125,-7487,-148,595,35,11,-2
238460625,0.65875244140625,0.30615234375,0.58612060546875,-0.3587646484375,-7471,-147,551,35,12,-1
238470607,0.65625,0.30963134765625,0.5858154296875,-0.36090087890625,-7492,-204,439,36,13,-2
238480592,0.65338134765625,0.3131103515625,0.58563232421875,-0.3634033203125,-7520,-220,360,40,13,-5
238490575,0.65032958984375,0.3167724609375,0.58526611328125,-0.3662109375,-7540,-145,393,42,14,-6
238500558,0.647216796875,0.320556640625,0.5848388671875,-0.36907958984375,-7581,-8,426,42,15,-8
238510542,0.64410400390625,0.32427978515625,0.5845947265625,-0.37176513671875,-7606,143,417,40,16,-8
238520524,0.6409912109375,0.32781982421875,0.58447265625,-0.37420654296875,-7612,245,420,38,17,-8
238530508,0.63800048828125,0.331298828125,0.58447265625,-0.37628173828125,-7626,293,392,35,18,-5
238540496,0.63525390625,0.33489990234375,0.58447265625,-0.37762451171875,-7656,316,352,32,19,0
238550475,0.63262939453125,0.3387451171875,0.5845947265625,-0.37841796875,-7752,301,299,30,20,5
238560456,0.6302490234375,0.34271240234375,0.5845947265625,-0.3787841796875,-7870,262,246,28,21,8
238570437,0.6278076171875,0.34661865234375,0.58477783203125,-0.37908935546875,-7972,152,210,27,21,8
238580429,0.625244140625,0.3502197265625,0.5849609375,-0.379638671875,-8039,15,189,28,21,5
238590412,0.62249755859375,0.35357666015625,0.5853271484375,-0.38055419921875,-8066,-134,167,28,20,1
238600399,0.6195068359375,0.356689453125,0.585693359375,-0.3819580078125,-8061,-255,148,30,20,-2
238610370,0.6163330078125,0.35968017578125,0.58612060546875,-0.38360595703125,-8036,-359,114,31,20,-4
238620353,0.613037109375,0.3626708984375,0.5865478515625,-0.38543701171875,-8009,-405,72,33,20,-5
238630337,0.60968017578125,0.36578369140625,0.58685302734375,-0.3873291015625,-8026,-411,10,33,20,-5
238640319,0.6063232421875,0.36907958984375,0.58709716796875,-0.38909912109375,-8075,-378,-43,34,20,-3
238650302,0.6031494140625,0.3724365234375,0.587158203125,-0.3907470703125,-8145,-334,-66,34,19,-2
238660286,0.5999755859375,0.375732421875,0.587158203125,-0.39251708984375,-8197,-311,-83,34,18,-3
238670270,0.5968017578125,0.37890625,0.58709716796875,-0.39434814453125,-8227,-288,-92,34,18,-4
238680256,0.5936279296875,0.382080078125,0.58697509765625,-0.396240234375,-8225,-286,-92,34,17,-4
238690242,0.59039306640625,0.38519287109375,0.58685302734375,-0.39813232421875,-8199,-271,-120,35,17,-4
238700225,0.58721923828125,0.38836669921875,0.58673095703125,-0.4000244140625,-8190,-239,-153,34,18,-4
238710208,0.583984375,0.3914794921875,0.586669921875,-0.40185546875,-8197,-206,-197,34,18,-4
238720190,0.58074951171875,0.3946533203125,0.586669921875,-0.40350341796875,-8207,-160,-237,33,18,-4
238730180,0.5775146484375,0.397705078125,0.586669921875,-0.405029296875,-8245,-117,-256,32,19,-4
238740162,0.57440185546875,0.40069580078125,0.586669921875,-0.406494140625,-8292,-48,-240,31,19,-4
238750139,0.5714111328125,0.4036865234375,0.58673095703125,-0.40771484375,-8364,22,-230,29,20,-3
238760117,0.5684814453125,0.4066162109375,0.5867919921875,-0.40875244140625,-8456,107,-210,27,20,-2
238770100,0.5657958984375,0.40948486328125,0.5869140625,-0.40948486328125,-8553,176,-219,25,21,-1
238780086,0.56329345703125,0.412353515625,0.5870361328125,-0.409912109375,-8659,221,-216,23,20,0
238790067,0.56097412109375,0.4150390625,0.58709716796875,-0.41021728515625,-8746,241,-204,21,19,1
238800052,0.5587158203125,0.41748046875,0.5872802734375,-0.4105224609375,-8847,222,-203,19,19,0
238810037,0.55657958984375,0.419677734375,0.5875244140625,-0.410888671875,-8936,211,-174,17,18,-1
238820013,0.55450439453125,0.42156982421875,0.58782958984375,-0.4112548828125,-8987,179,-127,16,17,-3
238830000,0.5526123046875,0.42327880859375,0.58819580078125,-0.41168212890625,-9040,163,-110,14,16,-3
238839987,0.55084228515625,0.42474365234375,0.5885009765625,-0.412109375,-9081,146,-86,13,15,-3
238849963,0.5491943359375,0.42608642578125,0.5887451171875,-0.4124755859375,-9107,124,-84,12,13,-3
238859948,0.54766845703125,0.42730712890625,0.58905029296875,-0.412841796875,-9116,88,-103,11,12,-4
238869930,0.5462646484375,0.42828369140625,0.58935546875,-0.4132080078125,-9132,65,-116,10,11,-4
238879913,0.5450439453125,0.42919921875,0.58966064453125,-0.41351318359375,-9145,54,-132,8,10,-3
238889895,0.54400634765625,0.4300537109375,0.58984375,-0.41375732421875,-9162,49,-164,7,9,-2
238899878,0.543212890625,0.4307861328125,0.58990478515625,-0.41387939453125,-9173,23,-183,5,7,-1
238909860,0.5426025390625,0.43133544921875,0.5899658203125,-0.4139404296875,-9153,1,-228,4,5,-1
238919848,0.54217529296875,0.43170166015625,0.59002685546875,-0.41412353515625,-9143,-43,-250,3,3,-1
238929830,0.54193115234375,0.431884765625,0.5899658203125,-0.414306640625,-9133,-69,-250,2,1,-1
238939810,0.5418701171875,0.431884765625,0.58990478515625,-0.41448974609375,-9129,-91,-241,1,0,-1
238949792,0.54205322265625,0.43170166015625,0.5897216796875,-0.41473388671875,-9111,-70,-223,-1,-2,-2
238959769,0.5423583984375,0.4312744140625,0.58953857421875,-0.4150390625,-9056,-82,-214,-2,-4,-3
238969757,0.54278564453125,0.43060302734375,0.58935546875,-0.4154052734375,-8995,-83,-206,-3,-6,-4
238979739,0.54339599609375,0.42987060546875,0.589111328125,-0.4156494140625,-8964,-32,-233,-4,-7,-2
238989724,0.54437255859375,0.42919921875,0.5887451171875,-0.4156494140625,-8925,28,-275,-6,-9,0
238999705,0.54571533203125,0.428466796875,0.5882568359375,-0.41534423828125,-8890,70,-322,-9,-10,3
239009685,0.5472412109375,0.42767333984375,0.5877685546875,-0.41485595703125,-8834,88,-357,-11,-11,4
239019667,0.54901123046875,0.42681884765625,0.58721923828125,-0.4141845703125,-8755,64,-370,-12,-12,5
239029650,0.55072021484375,0.42578125,0.5867919921875,-0.41351318359375,-8642,3,-376,-13,-11,5
239039635,0.55242919921875,0.4246826171875,0.5865478515625,-0.4127197265625,-8539,-63,-407,-14,-11,4
239049616,0.553955078125,0.423583984375,0.58648681640625,-0.41192626953125,-8466,-108,-452,-14,-9,4
239059599,0.555419921875,0.422607421875,0.58648681640625,-0.4110107421875,-8455,-139,-520,-15,-8,5
239069581,0.55682373046875,0.4217529296875,0.5865478515625,-0.40985107421875,-8469,-119,-606,-15,-7,6
239079565,0.5582275390625,0.4210205078125,0.58660888671875,-0.4085693359375,-8516,-88,-681,-15,-7,6
239089549,0.55963134765625,0.42041015625,0.58673095703125,-0.40716552734375,-8582,-62,-764,-15,-6,7
239099530,0.56097412109375,0.41973876953125,0.5869140625,-0.40570068359375,-8621,-41,-825,-16,-6,6
239109514,0.56231689453125,0.4190673828125,0.58709716796875,-0.404296875,-8649,-65,-839,-16,-6,7
239119496,0.56378173828125,0.4183349609375,0.587158203125,-0.40289306640625,-8658,-103,-811,-16,-7,8
239129482,0.5653076171875,0.4176025390625,0.58709716796875,-0.40155029296875,-8662,-165,-743,-15,-7,9
239139464,0.56695556640625,0.416748046875,0.5869140625,-0.400390625,-8653,-238,-644,-15,-9,8
239149449,0.56854248046875,0.415771484375,0.586669921875,-0.3995361328125,-8646,-322,-550,-14,-10,6
239159438,0.57000732421875,0.41448974609375,0.58642578125,-0.39910888671875,-8601,-410,-427,-12,-12,3
239169422,0.5714111328125,0.41290283203125,0.586181640625,-0.399169921875,-8534,-484,-299,-11,-13,-1
239179402,0.5726318359375,0.41119384765625,0.58587646484375,-0.39959716796875,-8476,-518,-177,-9,-14,-4
239189378,0.5738525390625,0.409423828125,0.58551025390625,-0.4002685546875,-8430,-510,-108,-8,-15,-5
239199359,0.57501220703125,0.40777587890625,0.5850830078125,-0.40087890625,-8388,-476,-59,-7,-15,-4
239209341,0.57635498046875,0.40618896484375,0.58447265625,-0.4014892578125,-8356,-408,-6,-7,-16,-3
239219324,0.57769775390625,0.40478515625,0.583740234375,-0.40203857421875,-8325,-336,26,-6,-16,-2
239229310,0.5789794921875,0.4033203125,0.5830078125,-0.402587890625,-8264,-276,68,-7,-16,-3
239239293,0.58026123046875,0.40185546875,0.5823974609375,-0.4031982421875,-8175,-217,87,-6,-16,-4
239249275,0.58135986328125,0.4002685546875,0.58184814453125,-0.4039306640625,-8083,-156,127,-6,-15,-6
239259259,0.58245849609375,0.39874267578125,0.58135986328125,-0.4046630859375,-7973,-84,142,-6,-14,-6
239269238,0.58343505859375,0.39739990234375,0.58087158203125,-0.4052734375,-7872,-22,151,-6,-13,-6
239279231,0.5843505859375,0.39617919921875,0.5804443359375,-0.40570068359375,-7801,63,141,-6,-12,-5
239289214,0.58538818359375,0.3951416015625,0.5799560546875,-0.40594482421875,-7743,171,108,-6,-12,-3
239299195,0.58636474609375,0.39434814453125,0.57952880859375,-0.4058837890625,-7729,280,70,-6,-11,-1
239309192,0.5875244140625,0.3935546875,0.57904052734375,-0.4056396484375,-7754,395,53,-8,-10,0
239319174,0.5887451171875,0.39288330078125,0.57855224609375,-0.40521240234375,-7778,483,28,-9,-10,1
239329145,0.59002685546875,0.39208984375,0.57818603515625,-0.4046630859375,-7776,519,21,-10,-10,1
239339125,0.59124755859375,0.3912353515625,0.57794189453125,-0.40411376953125,-7748,527,30,-10,-9,0
239349109,0.59234619140625,0.3902587890625,0.5777587890625,-0.40362548828125,-7699,489,44,-11,-9,-1
239359087,0.5933837890625,0.38922119140625,0.5777587890625,-0.4031982421875,-7670,443,58,-11,-8,-2
239369072,0.59423828125,0.38818359375,0.57781982421875,-0.40277099609375,-7637,404,87,-11,-7,-2
239379056,0.59515380859375,0.38714599609375,0.57794189453125,-0.40234375,-7620,394,124,-11,-6,-2
239389037,0.59600830078125,0.38616943359375,0.57806396484375,-0.40179443359375,-7623,404,179,-11,-5,-2
239399021,0.59686279296875,0.38519287109375,0.5782470703125,-0.401123046875,-7626,422,231,-12,-4,-1
239409002,0.5977783203125,0.38427734375,0.57843017578125,-0.400390625,-7624,450,300,-12,-3,-1
239418991,0.59857177734375,0.38330078125,0.57879638671875,-0.39959716796875,-7583,464,378,-13,-2,-2
239428981,0.59930419921875,0.38226318359375,0.579345703125,-0.3988037109375,-7547,451,450,-13,0,-3
239438955,0.599853515625,0.38116455078125,0.58001708984375,-0.39801025390625,-7517,451,490,-14,1,-5
239448937,0.6002197265625,0.3800048828125,0.5809326171875,-0.397216796875,-7483,438,533,-14,3,-5
239458919,0.6005859375,0.37890625,0.5819091796875,-0.39630126953125,-7458,463,578,-15,4,-5
239468903,0.60089111328125,0.3778076171875,0.58294677734375,-0.395263671875,-7469,525,635,-15,5,-6
239478884,0.6011962890625,0.37677001953125,0.58416748046875,-0.39404296875,-7507,616,657,-17,7,-5
239488868,0.6014404296875,0.375732421875,0.58551025390625,-0.39263916015625,-7556,670,659,-18,8,-5
239498850,0.6016845703125,0.3746337890625,0.5870361328125,-0.39105224609375,-7619,696,648,-20,9,-5
239508834,0.6019287109375,0.3734130859375,0.58868408203125,-0.38934326171875,-7671,699,590,-21,9,-5
239518819,0.6021728515625,0.3721923828125,0.59051513671875,-0.387451171875,-7728,697,522,-23,10,-5
239528801,0.60235595703125,0.370849609375,0.59246826171875,-0.3853759765625,-7796,692,444,-24,11,-5
239538785,0.60260009765625,0.369384765625,0.59454345703125,-0.38323974609375,-7857,651,384,-26,10,-6
239548773,0.602783203125,0.36767578125,0.59674072265625,-0.381103515625,-7902,585,328,-27,11,-6
239558757,0.60302734375,0.36578369140625,0.59906005859375,-0.37896728515625,-7919,491,272,-28,11,-7
239568740,0.60321044921875,0.36370849609375,0.60150146484375,-0.37689208984375,-7917,409,222,-29,10,-8
239578717,0.60333251953125,0.361572265625,0.60400390625,-0.37469482421875,-7952,321,162,-30,11,-8
239588700,0.60357666015625,0.35943603515625,0.6064453125,-0.372314453125,-8015,255,96,-31,11,-7
239598684,0.60382080078125,0.3572998046875,0.60894775390625,-0.369873046875,-8094,170,26,-32,11,-6
239608666,0.60406494140625,0.35516357421875,0.61151123046875,-0.3673095703125,-8168,83,-66,-32,10,-6
239618647,0.6043701171875,0.35296630859375,0.61407470703125,-0.36474609375,-8230,-45,-136,-33,10,-5
239628635,0.6046142578125,0.3507080078125,0.6165771484375,-0.36224365234375,-8255,-188,-174,-33,10,-4
239638615,0.60491943359375,0.348388671875,0.61907958984375,-0.3597412109375,-8275,-349,-213,-33,10,-4
239648597,0.60516357421875,0.34600830078125,0.62152099609375,-0.35736083984375,-8303,-506,-229,-32,9,-4
239658581,0.60540771484375,0.34368896484375,0.6239013671875,-0.35504150390625,-8361,-649,-236,-31,9,-4
239668563,0.6055908203125,0.34149169921875,0.62615966796875,-0.352783203125,-8441,-746,-230,-30,9,-4
239678547,0.6058349609375,0.33929443359375,0.6282958984375,-0.3507080078125,-8551,-824,-230,-29,8,-3
239688529,0.6060791015625,0.337158203125,0.63037109375,-0.34869384765625,-8683,-871,-230,-28,7,-3
239698512,0.60638427734375,0.3350830078125,0.6322021484375,-0.3466796875,-8767,-934,-231,-27,6,-2
239708496,0.6068115234375,0.33306884765625,0.6339111328125,-0.3448486328125,-8816,-1008,-219,-26,5,-2
239718480,0.6072998046875,0.3310546875,0.6353759765625,-0.34320068359375,-8837,-1058,-198,-24,3,-2
239728463,0.6077880859375,0.3289794921875,0.63677978515625,-0.341796875,-8818,-1098,-158,-23,2,-4
239738449,0.6082763671875,0.32672119140625,0.63812255859375,-0.34063720703125,-8730,-1111,-112,-22,1,-6
239748433,0.608642578125,0.3243408203125,0.639404296875,-0.33978271484375,-8589,-1133,-65,-21,1,-8
239758417,0.60888671875,0.32183837890625,0.64068603515625,-0.3392333984375,-8427,-1165,-31,-20,0,-11
239768402,0.6090087890625,0.3193359375,0.64208984375,-0.3388671875,-8287,-1176,-14,-19,1,-12
239778376,0.60906982421875,0.31695556640625,0.64337158203125,-0.33843994140625,-8212,-1139,-12,-18,2,-11
239788361,0.609130859375,0.31500244140625,0.6446533203125,-0.3377685546875,-8185,-1067,-30,-17,2,-8
239798342,0.609375,0.3134765625,0.64569091796875,-0.33673095703125,-8165,-970,-69,-17,2,-3
239808332,0.60980224609375,0.31231689453125,0.64654541015625,-0.33538818359375,-8152,-871,-101,-17,2,1
239818309,0.6102294921875,0.3114013671875,0.64739990234375,-0.3338623046875,-8142,-789,-136,-17,3,2
239828294,0.61065673828125,0.31048583984375,0.6483154296875,-0.33221435546875,-8119,-736,-155,-17,4,2
239838277,0.6109619140625,0.309326171875,0.64935302734375,-0.3306884765625,-8128,-695,-139,-18,5,0
239848259,0.6112060546875,0.30804443359375,0.65045166015625,-0.32916259765625,-8165,-610,-118,-19,5,-2
239858237,0.6114501953125,0.306640625,0.65167236328125,-0.32757568359375,-8256,-489,-116,-20,5,-3
239868228,0.61181640625,0.30523681640625,0.65289306640625,-0.3258056640625,-8385,-328,-108,-22,5,-3
239878220,0.61248779296875,0.30389404296875,0.65399169921875,-0.32366943359375,-8551,-188,-126,-24,4,0
239888194,0.61334228515625,0.302490234375,0.655029296875,-0.32122802734375,-8671,-159,-149,-26,3,2
239898186,0.6142578125,0.30084228515625,0.65606689453125,-0.31884765625,-8722,-249,-150,-26,2,2
239908174,0.61517333984375,0.29901123046875,0.6571044921875,-0.31671142578125,-8784,-456,-167,-26,1,2
239918146,0.6160888671875,0.2972412109375,0.65802001953125,-0.314697265625,-8858,-678,-191,-25,0,3
239928123,0.61700439453125,0.295654296875,0.65875244140625,-0.3128662109375,-8916,-956,-219,-22,-2,6
239938103,0.617919921875,0.294189453125,0.6591796875,-0.3114013671875,-8910,-1344,-208,-18,-3,7
239948088,0.6187744140625,0.29296875,0.65936279296875,-0.3106689453125,-8885,-1866,-153,-12,-5,8
239958070,0.619384765625,0.2919921875,0.65911865234375,-0.31072998046875,-8783,-2475,-67,-4,-6,9
239968054,0.61968994140625,0.29156494140625,0.6585693359375,-0.31170654296875,-8658,-3103,22,5,-6,10
239978034,0.61962890625,0.29168701171875,0.65765380859375,-0.313720703125,-8518,-3762,104,16,-7,12
239988019,0.6190185546875,0.29266357421875,0.65631103515625,-0.3167724609375,-8339,-4416,175,28,-6,13
239998002,0.61785888671875,0.294677734375,0.65447998046875,-0.32098388671875,-8148,-5073,235,42,-6,15
240007992,0.61602783203125,0.29791259765625,0.652099609375,-0.32635498046875,-7932,-5822,265,59,-4,19
240017974,0.61334228515625,0.302734375,0.6490478515625,-0.33282470703125,-7668,-6682,226,77,-2,26
240027956,0.60955810546875,0.309326171875,0.64544677734375,-0.3406982421875,-7361,-7709,90,98,2,32
240037935,0.604248046875,0.31781005859375,0.6412353515625,-0.35015869140625,-7028,-8931,-187,123,6,38
240047919,0.59716796875,0.32861328125,0.63623046875,-0.36126708984375,-6679,-10264,-632,151,10,45
240057903,0.588134765625,0.34197998046875,0.630126953125,-0.3741455078125,-6395,-11554,-1247,182,14,54
240067887,0.576904296875,0.358154296875,0.6226806640625,-0.38873291015625,-6249,-12605,-2138,215,17,58
240077871,0.563232421875,0.376708984375,0.61370849609375,-0.4051513671875,-6343,-13292,-3420,248,16,57
240087853,0.54693603515625,0.39739990234375,0.60302734375,-0.42327880859375,-6623,-13657,-5103,281,12,55
240097840,0.52838134765625,0.419921875,0.59014892578125,-0.44293212890625,-6999,-13575,-6987,311,4,53
240107822,0.50787353515625,0.4437255859375,0.5745849609375,-0.46368408203125,-7397,-12948,-8877,340,-6,48
240117803,0.48541259765625,0.46826171875,0.55609130859375,-0.485595703125,-7792,-11763,-10741,367,-17,40
240127787,0.46136474609375,0.49346923828125,0.53436279296875,-0.50799560546875,-8265,-9847,-12237,391,-27,35
240137767,0.43701171875,0.51904296875,0.50860595703125,-0.52996826171875,-8790,-7380,-13337,408,-37,40
240147759,0.413330078125,0.54473876953125,0.47882080078125,-0.550537109375,-9430,-4650,-14145,415,-48,53
240157741,0.3912353515625,0.570068359375,0.4451904296875,-0.5689697265625,-10153,-1828,-14739,413,-61,71
240167717,0.37127685546875,0.59393310546875,0.40863037109375,-0.58514404296875,-10833,846,-15176,401,-74,85
240177702,0.35284423828125,0.61505126953125,0.37109375,-0.59954833984375,-11397,3247,-15496,381,-87,82
240187687,0.3348388671875,0.63262939453125,0.33465576171875,-0.6129150390625,-11617,5159,-15372,357,-97,64
240200995,0.3167724609375,0.64569091796875,0.30035400390625,-0.62646484375,-11520,6579,-14481,333,-103,40
240207655,0.2987060546875,0.6549072265625,0.2686767578125,-0.6400146484375,-11133,7634,-13199,308,-105,17
240217639,0.28125,0.6612548828125,0.2391357421875,-0.65301513671875,-10544,8587,-11905,284,-106,7
240227623,0.2657470703125,0.66552734375,0.21136474609375,-0.66461181640625,-9841,9563,-10581,255,-104,5
240237606,0.25299072265625,0.6680908203125,0.1854248046875,-0.67474365234375,-9123,10482,-9273,222,-101,8
240247588,0.24359130859375,0.66900634765625,0.16162109375,-0.683349609375,-8417,11326,-7977,185,-98,13
240257570,0.23760986328125,0.66851806640625,0.1400146484375,-0.690673828125,-7683,11931,-6726,148,-94,21
240267553,0.2349853515625,0.6666259765625,0.1209716796875,-0.6968994140625,-6920,12175,-5499,111,-90,28
240277536,0.23492431640625,0.6636962890625,0.1048583984375,-0.702392578125,-6126,12023,-4334,79,-84,29
240287520,0.2364501953125,0.65985107421875,0.09210205078125,-0.70721435546875,-5365,11527,-3311,50,-77,24
240297502,0.2388916015625,0.65570068359375,0.08258056640625,-0.71142578125,-4683,10765,-2455,27,-68,19
240307486,0.2421875,0.6514892578125,0.075439453125,-0.7149658203125,-4115,9908,-1755,9,-59,19
240317468,0.2464599609375,0.6475830078125,0.070068359375,-0.71759033203125,-3696,8965,-1133,-5,-49,23
240327449,0.25177001953125,0.64410400390625,0.0657958984375,-0.71929931640625,-3493,8030,-589,-15,-38,30
240337436,0.2579345703125,0.64111328125,0.0623779296875,-0.7200927734375,-3433,7186,-132,-22,-28,36
240347419,0.26434326171875,0.638671875,0.059814453125,-0.72015380859375,-3474,6472,236,-27,-19,34
240357403,0.27032470703125,0.63690185546875,0.0584716796875,-0.7196044921875,-3563,5903,527,-30,-10,27
240367374,0.27545166015625,0.63568115234375,0.0584716796875,-0.71875,-3662,5422,773,-33,-1,17
240377362,0.27972412109375,0.635009765625,0.0596923828125,-0.717529296875,-3783,4988,994,-33,8,8
240387343,0.28350830078125,0.635009765625,0.061767578125,-0.7159423828125,-3918,4547,1225,-34,16,6
240397325,0.287109375,0.6356201171875,0.06427001953125,-0.7137451171875,-4105,4096,1447,-34,25,6
240407307,0.29071044921875,0.636962890625,0.06695556640625,-0.7108154296875,-4364,3638,1633,-33,33,11
240417293,0.29437255859375,0.6390380859375,0.06951904296875,-0.70721435546875,-4666,3242,1750,-31,41,16
240427275,0.29815673828125,0.641845703125,0.07196044921875,-0.70281982421875,-5051,2957,1800,-29,47,20
240437259,0.30181884765625,0.64520263671875,0.07427978515625,-0.6978759765625,-5483,2786,1774,-26,53,21
240447238,0.3050537109375,0.6490478515625,0.07672119140625,-0.69268798828125,-5920,2681,1703,-25,55,18
240457229,0.30767822265625,0.65301513671875,0.0794677734375,-0.68743896484375,-6362,2625,1618,-23,57,13
240467213,0.3096923828125,0.656982421875,0.0826416015625,-0.682373046875,-6801,2597,1522,-22,57,7
240477192,0.31109619140625,0.66082763671875,0.086181640625,-0.67755126953125,-7239,2526,1410,-21,55,3
240487185,0.3121337890625,0.66455078125,0.08984375,-0.67291259765625,-7664,2435,1295,-20,53,2
240497167,0.31317138671875,0.66802978515625,0.09326171875,-0.66851806640625,-8051,2353,1178,-19,50,2
240507144,0.3140869140625,0.6712646484375,0.0965576171875,-0.66436767578125,-8382,2289,1066,-18,46,2
240517122,0.3148193359375,0.67413330078125,0.09967041015625,-0.66064453125,-8662,2236,938,-17,42,1
240527107,0.31536865234375,0.6766357421875,0.10272216796875,-0.65740966796875,-8926,2203,848,-16,37,-2
240537085,0.31561279296875,0.6785888671875,0.10589599609375,-0.65472412109375,-9188,2194,751,-15,31,-6
240547068,0.3155517578125,0.68011474609375,0.109130859375,-0.65264892578125,-9416,2203,626,-15,26,-10
240557052,0.3153076171875,0.68115234375,0.1124267578125,-0.651123046875,-9607,2215,499,-16,20,-13
240567034,0.3150634765625,0.68182373046875,0.11572265625,-0.64996337890625,-9723,2192,351,-16,15,-14
240577016,0.31494140625,0.6820068359375,0.1187744140625,-0.64923095703125,-9789,2118,223,-17,9,-12
240587001,0.3150634765625,0.681884765625,0.12139892578125,-0.6488037109375,-9830,2019,138,-16,5,-9
240596989,0.31549072265625,0.68145751953125,0.12359619140625,-0.648681640625,-9823,1890,90,-16,0,-6
240606966,0.3160400390625,0.6806640625,0.12542724609375,-0.64892578125,-9791,1763,63,-15,-4,-4
240616951,0.31658935546875,0.67962646484375,0.12701416015625,-0.6494140625,-9735,1659,49,-14,-8,-4
240626933,0.31695556640625,0.67840576171875,0.12847900390625,-0.65020751953125,-9648,1570,18,-13,-11,-6
240636916,0.31707763671875,0.677001953125,0.12994384765625,-0.6513671875,-9528,1511,18,-11,-13,-9
240646898,0.31683349609375,0.67535400390625,0.1314697265625,-0.65283203125,-9378,1468,15,-10,-15,-13
240656882,0.31610107421875,0.673583984375,0.13330078125,-0.6546630859375,-9194,1432,54,-9,-16,-19
240666867,0.31494140625,0.67169189453125,0.13531494140625,-0.65673828125,-8968,1382,109,-7,-17,-23
240676850,0.31329345703125,0.669677734375,0.1375732421875,-0.65911865234375,-8705,1353,188,-6,-17,-28
240686832,0.31146240234375,0.66778564453125,0.13970947265625,-0.66143798828125,-8448,1343,265,-4,-16,-28
240696813,0.30963134765625,0.66607666015625,0.14178466796875,-0.66357421875,-8204,1367,354,-3,-14,-27
240706797,0.307861328125,0.66455078125,0.14361572265625,-0.66552734375,-7980,1399,418,-2,-12,-25
240716772,0.30633544921875,0.663330078125,0.1451416015625,-0.6671142578125,-7761,1417,501,-2,-10,-21
240726764,0.3050537109375,0.66229248046875,0.146484375,-0.66845703125,-7579,1413,593,-1,-7,-18
240736745,0.30413818359375,0.66143798828125,0.1475830078125,-0.66949462890625,-7428,1395,670,-2,-5,-14
240746723,0.3033447265625,0.660888671875,0.14849853515625,-0.67022705078125,-7318,1379,721,-2,-3,-11
240756706,0.302490234375,0.66046142578125,0.1494140625,-0.6707763671875,-7261,1391,746,-1,-1,-12
240766694,0.30145263671875,0.66021728515625,0.1505126953125,-0.67120361328125,-7254,1424,738,-1,1,-14
240776679,0.30029296875,0.66015625,0.15167236328125,-0.67156982421875,-7288,1472,720,0,2,-15
240786663,0.29913330078125,0.66009521484375,0.15289306640625,-0.671875,-7325,1501,694,0,3,-15
240796646,0.29791259765625,0.66009521484375,0.1541748046875,-0.672119140625,-7351,1493,682,0,3,-15
240806625,0.29669189453125,0.66015625,0.15533447265625,-0.67230224609375,-7354,1460,698,0,4,-14
240816607,0.295654296875,0.66033935546875,0.15631103515625,-0.67236328125,-7389,1444,705,0,5,-10
240826590,0.29486083984375,0.66070556640625,0.156982421875,-0.67218017578125,-7471,1457,706,1,6,-7
240836573,0.2943115234375,0.6611328125,0.1573486328125,-0.671875,-7625,1488,690,1,6,-4
240846555,0.29388427734375,0.66168212890625,0.15765380859375,-0.6715087890625,-7783,1542,671,1,6,-3
240856542,0.29339599609375,0.662109375,0.15802001953125,-0.67120361328125,-7924,1574,646,1,5,-4
240866521,0.29296875,0.66253662109375,0.15838623046875,-0.6708984375,-8029,1597,623,0,4,-5
240876506,0.29248046875,0.662841796875,0.15887451171875,-0.670654296875,-8105,1606,608,0,4,-5
240886492,0.29217529296875,0.66314697265625,0.1593017578125,-0.67047119140625,-8181,1628,588,-1,3,-5
240896473,0.2919921875,0.663330078125,0.15972900390625,-0.67022705078125,-8240,1660,571,-2,3,-4
240906457,0.29193115234375,0.6634521484375,0.16021728515625,-0.66998291015625,-8284,1661,569,-3,3,-4
240916436,0.2919921875,0.66351318359375,0.16082763671875,-0.6697998046875,-8306,1652,578,-5,2,-3
240926424,0.29217529296875,0.6634521484375,0.16143798828125,-0.66961669921875,-8305,1630,592,-5,2,-3
240936407,0.29248046875,0.66339111328125,0.162109375,-0.66937255859375,-8316,1616,588,-7,2,-2
240946397,0.29302978515625,0.663330078125,0.1627197265625,-0.6690673828125,-8337,1594,577,-7,1,0
240956370,0.29376220703125,0.6632080078125,0.16326904296875,-0.668701171875,-8349,1569,568,-8,1,2
240966356,0.29461669921875,0.66302490234375,0.163818359375,-0.66839599609375,-8348,1548,555,-9,0,1
240976339,0.29541015625,0.662841796875,0.16448974609375,-0.6680908203125,-8342,1517,546,-10,0,0
240986325,0.29608154296875,0.66253662109375,0.165283203125,-0.6678466796875,-8310,1491,535,-10,0,-1
240996306,0.29669189453125,0.66217041015625,0.1661376953125,-0.667724609375,-8296,1463,539,-9,-1,-2
241006286,0.2972412109375,0.661865234375,0.1669921875,-0.6676025390625,-8270,1433,522,-9,-1,-2
241016277,0.29791259765625,0.6614990234375,0.16766357421875,-0.66748046875,-8248,1407,516,-9,-1,0
241026256,0.29864501953125,0.66119384765625,0.168212890625,-0.66729736328125,-8208,1385,526,-8,-1,2
241036243,0.29949951171875,0.6610107421875,0.16851806640625,-0.66705322265625,-8173,1357,534,-7,-1,3
241046226,0.3004150390625,0.66082763671875,0.16864013671875,-0.66680908203125,-8122,1322,539,-7,-1,5
241056213,0.30120849609375,0.6607666015625,0.168701171875,-0.66644287109375,-8083,1287,550,-5,0,5
241066190,0.3018798828125,0.6607666015625,0.16876220703125,-0.6661376953125,-8049,1261,564,-4,0,5
241076186,0.3023681640625,0.66082763671875,0.1688232421875,-0.6658935546875,-8020,1251,563,-3,1,3
241086167,0.3026123046875,0.660888671875,0.1689453125,-0.6656494140625,-7999,1259,561,-2,1,1
241096140,0.302734375,0.66107177734375,0.16900634765625,-0.6654052734375,-7997,1276,541,-1,2,1
241106122,0.302734375,0.6612548828125,0.1690673828125,-0.6651611328125,-7996,1295,538,0,2,0
241116102,0.30267333984375,0.6614990234375,0.16912841796875,-0.66497802734375,-7986,1322,522,0,2,0
241126085,0.30255126953125,0.66180419921875,0.16912841796875,-0.66473388671875,-7977,1359,499,1,2,0
241136069,0.30242919921875,0.66217041015625,0.1690673828125,-0.6644287109375,-7967,1366,491,1,3,1
241146051,0.30242919921875,0.66253662109375,0.16888427734375,-0.66412353515625,-7952,1400,502,1,3,2
241156029,0.30255126953125,0.6629638671875,0.16851806640625,-0.6636962890625,-7945,1432,501,1,3,3
241166013,0.3026123046875,0.6634521484375,0.168212890625,-0.66326904296875,-7926,1433,488,2,3,3
241175999,0.3026123046875,0.6639404296875,0.16796875,-0.662841796875,-7886,1397,478,2,4,2
241185989,0.302490234375,0.6644287109375,0.16778564453125,-0.6624755859375,-7847,1360,461,2,4,1
241195963,0.30224609375,0.66497802734375,0.1676025390625,-0.662109375,-7814,1287,419,3,4,2
241205945,0.302001953125,0.6656494140625,0.16729736328125,-0.66162109375,-7780,1245,393,4,5,4
241215928,0.3017578125,0.66644287109375,0.16680908203125,-0.6610107421875,-7764,1202,358,5,6,4
241225912,0.3013916015625,0.66729736328125,0.16632080078125,-0.660400390625,-7753,1147,314,6,6,5
241235895,0.30096435546875,0.66827392578125,0.16571044921875,-0.6597900390625,-7739,1131,294,7,7,5
241245878,0.30029296875,0.66937255859375,0.1650390625,-0.65911865234375,-7731,1105,262,9,8,3
241255861,0.29925537109375,0.67059326171875,0.16455078125,-0.65850830078125,-7707,1078,250,10,9,1
241265845,0.29791259765625,0.67181396484375,0.1641845703125,-0.65802001953125,-7695,1063,221,12,9,-2
241275825,0.29620361328125,0.67315673828125,0.163818359375,-0.657470703125,-7686,1057,173,14,10,-3
241285807,0.29437255859375,0.67462158203125,0.163330078125,-0.65692138671875,-7671,1059,135,15,11,-3
241295791,0.2923583984375,0.67626953125,0.16278076171875,-0.65625,-7638,1039,82,17,12,-3
241305770,0.29022216796875,0.67803955078125,0.16204833984375,-0.655517578125,-7599,1017,20,19,13,-2
241315763,0.287841796875,0.6800537109375,0.1612548828125,-0.65472412109375,-7555,997,-31,21,15,-2
241325748,0.28521728515625,0.6822509765625,0.1602783203125,-0.65380859375,-7529,1012,-75,23,16,-3
241335725,0.28240966796875,0.68450927734375,0.15936279296875,-0.65289306640625,-7509,1051,-121,25,18,-4
241345709,0.27935791015625,0.68695068359375,0.1583251953125,-0.65185546875,-7488,1103,-169,27,19,-5
241355692,0.27618408203125,0.6895751953125,0.1572265625,-0.6507568359375,-7455,1149,-238,28,20,-5
241365676,0.27288818359375,0.6922607421875,0.15606689453125,-0.6495361328125,-7433,1190,-316,29,21,-5
241375658,0.26953125,0.69512939453125,0.15484619140625,-0.648193359375,-7374,1201,-414,30,23,-4
241385641,0.2659912109375,0.69818115234375,0.153564453125,-0.64666748046875,-7266,1198,-528,31,24,-5
241395625,0.26214599609375,0.70135498046875,0.15234375,-0.64508056640625,-7123,1184,-628,33,25,-7
241405608,0.2579345703125,0.70465087890625,0.1512451171875,-0.6434326171875,-6967,1165,-701,35,28,-9
241415591,0.2532958984375,0.70819091796875,0.15032958984375,-0.6416015625,-6808,1153,-782,37,30,-12
241425573,0.24835205078125,0.71197509765625,0.1494140625,-0.6395263671875,-6684,1138,-867,38,34,-12
241435558,0.243408203125,0.7161865234375,0.148193359375,-0.6370849609375,-6602,1138,-957,40,37,-8
241445542,0.2386474609375,0.72076416015625,0.14642333984375,-0.63409423828125,-6546,1171,-1060,42,41,-3
241455531,0.23406982421875,0.72576904296875,0.14404296875,-0.63067626953125,-6572,1237,-1162,45,44,3
241465510,0.22979736328125,0.73101806640625,0.14105224609375,-0.6268310546875,-6696,1364,-1251,46,47,8
241475494,0.22564697265625,0.73651123046875,0.1376953125,-0.62261962890625,-6896,1581,-1337,47,49,10
241485476,0.22161865234375,0.741943359375,0.13433837890625,-0.6182861328125,-7119,1852,-1392,46,50,8
241495459,0.21746826171875,0.74737548828125,0.1314697265625,-0.6138916015625,-7366,2209,-1426,44,52,2
241505449,0.21319580078125,0.75250244140625,0.12933349609375,-0.60955810546875,-7644,2627,-1420,41,53,-5
241515431,0.20941162109375,0.75738525390625,0.1278076171875,-0.6051025390625,-7942,3183,-1409,35,53,-9
241525413,0.20648193359375,0.76190185546875,0.12689208984375,-0.6005859375,-8196,3824,-1395,26,53,-11
241535395,0.204833984375,0.76605224609375,0.1265869140625,-0.59588623046875,-8436,4549,-1402,14,52,-12
241545370,0.204833984375,0.769775390625,0.1270751953125,-0.59100341796875,-8709,5421,-1412,-1,51,-12
241555352,0.2071533203125,0.77301025390625,0.1282958984375,-0.585693359375,-9200,6598,-1444,-19,51,-10
241565334,0.21258544921875,0.77545166015625,0.13018798828125,-0.580078125,-9901,7925,-1504,-43,48,-6
241575317,0.22119140625,0.7769775390625,0.1334228515625,-0.5740966796875,-10613,9223,-1658,-72,45,-6
241585299,0.23236083984375,0.77716064453125,0.13946533203125,-0.56793212890625,-11250,10441,-1984,-104,40,-18
241595284,0.2459716796875,0.77569580078125,0.1490478515625,-0.56170654296875,-11780,11614,-2541,-140,33,-35
241605266,0.2623291015625,0.772216796875,0.16217041015625,-0.55548095703125,-12101,12463,-3071,-179,24,-47
241615256,0.28167724609375,0.76641845703125,0.1783447265625,-0.5489501953125,-12237,13162,-3870,-218,15,-54
241625244,0.30413818359375,0.7586669921875,0.19708251953125,-0.54132080078125,-12153,13588,-5057,-258,6,-55
241635226,0.32952880859375,0.748779296875,0.2181396484375,-0.53204345703125,-11942,13742,-6667,-298,-3,-53
241645206,0.35736083984375,0.73651123046875,0.24139404296875,-0.52105712890625,-11528,13567,-8369,-336,-11,-54
241655193,0.38653564453125,0.72119140625,0.267578125,-0.5087890625,-10823,12763,-10030,-372,-18,-66
241665176,0.415283203125,0.70196533203125,0.2974853515625,-0.4962158203125,-10015,11142,-11481,-401,-26,-90
241675160,0.44207763671875,0.67828369140625,0.33123779296875,-0.4844970703125,-9243,8916,-12707,-420,-37,-121
241685131,0.4661865234375,0.64984130859375,0.36773681640625,-0.4744873046875,-8467,6241,-13565,-429,-51,-153
241695114,0.48760986328125,0.6168212890625,0.40496826171875,-0.466552734375,-7581,2909,-13559,-423,-67,-168
241705097,0.507568359375,0.58123779296875,0.43927001953125,-0.45989990234375,-6456,-567,-12848,-404,-79,-148
241715081,0.52569580078125,0.5460205078125,0.468994140625,-0.453369140625,-5336,-3913,-11824,-369,-82,-119
241725063,0.54168701171875,0.51300048828125,0.49359130859375,-0.44683837890625,-4408,-6564,-10601,-326,-79,-88
241735051,0.555908203125,0.48370361328125,0.5133056640625,-0.4398193359375,-3743,-8432,-9365,-285,-72,-56
241745030,0.56829833984375,0.45849609375,0.529052734375,-0.4322509765625,-3347,-9719,-8168,-245,-60,-31
241755016,0.5784912109375,0.43719482421875,0.5418701171875,-0.4249267578125,-3182,-10562,-7038,-205,-47,-17
241764998,0.58563232421875,0.41937255859375,0.552734375,-0.41900634765625,-3219,-10957,-6018,-163,-32,-17
241774988,0.5894775390625,0.404541015625,0.5623779296875,-0.415283203125,-3415,-10933,-5043,-124,-18,-28
241784964,0.59027099609375,0.3924560546875,0.57098388671875,-0.41412353515625,-3679,-10710,-4060,-85,-4,-37
241794948,0.588623046875,0.38330078125,0.5782470703125,-0.4149169921875,-3981,-10343,-3155,-50,7,-37
241804926,0.58551025390625,0.37799072265625,0.583740234375,-0.41656494140625,-4402,-9709,-2445,-18,17,-25
241814909,0.58160400390625,0.37701416015625,0.587158203125,-0.4180908203125,-5021,-8920,-2002,11,25,-2
241824895,0.57794189453125,0.38067626953125,0.5880126953125,-0.41864013671875,-5804,-8092,-1819,35,28,31
241834878,0.5751953125,0.3890380859375,0.5858154296875,-0.417724609375,-6792,-7181,-1769,57,27,71
241844858,0.573974609375,0.4014892578125,0.58038330078125,-0.41522216796875,-7971,-6159,-1777,73,22,108
241854840,0.574462890625,0.41668701171875,0.5716552734375,-0.41168212890625,-9302,-5034,-1738,85,9,135
241864825,0.57672119140625,0.4329833984375,0.55987548828125,-0.40789794921875,-10639,-3832,-1613,92,-9,151
241874809,0.5806884765625,0.4490966796875,0.54534912109375,-0.404541015625,-11940,-2501,-1487,95,-33,158
241884789,0.5865478515625,0.46405029296875,0.5283203125,-0.40179443359375,-13107,-1081,-1530,93,-60,160
241894772,0.59429931640625,0.47735595703125,0.509033203125,-0.39971923828125,-13976,283,-1772,85,-92,162
241904768,0.6043701171875,0.4881591796875,0.48748779296875,-0.3984375,-14615,1552,-2110,72,-129,162
241914750,0.61651611328125,0.49578857421875,0.46405029296875,-0.3983154296875,-15084,2734,-2533,56,-166,155
241924734,0.63006591796875,0.49945068359375,0.439697265625,-0.400146484375,-15279,3864,-2998,39,-200,132
241934710,0.64404296875,0.49835205078125,0.4154052734375,-0.40521240234375,-15139,4696,-3426,22,-233,95
241944693,0.6572265625,0.49224853515625,0.392333984375,-0.4144287109375,-14689,5129,-3820,8,-259,49
241954674,0.6690673828125,0.4815673828125,0.37060546875,-0.4278564453125,-13899,5192,-4179,-3,-281,5
241964652,0.67913818359375,0.46728515625,0.34991455078125,-0.44488525390625,-12753,4884,-4443,-7,-295,-31
241974635,0.68768310546875,0.450439453125,0.32965087890625,-0.464111328125,-11267,4150,-4483,-8,-303,-51
241984617,0.6953125,0.432373046875,0.30908203125,-0.4837646484375,-9618,3510,-4350,-6,-302,-53
241994601,0.70257568359375,0.41448974609375,0.28753662109375,-0.5018310546875,-8053,3267,-4095,-5,-295,-42
242004583,0.7100830078125,0.397216796875,0.2652587890625,-0.51727294921875,-6536,3059,-3672,-7,-283,-24
242014566,0.71783447265625,0.380126953125,0.24298095703125,-0.53021240234375,-5031,2573,-2973,-9,-267,-8
242024556,0.7254638671875,0.36322021484375,0.22119140625,-0.5411376953125,-3447,1894,-1996,-9,-248,3
242034533,0.732421875,0.34674072265625,0.2001953125,-0.55059814453125,-1811,1153,-826,-5,-225,7
242044521,0.738525390625,0.33135986328125,0.1802978515625,-0.55877685546875,-206,419,431,2,-199,9
242054501,0.74334716796875,0.317626953125,0.1617431640625,-0.56597900390625,1329,-203,1681,11,-170,5
242064485,0.74615478515625,0.305908203125,0.1453857421875,-0.5731201171875,2802,-700,2826,21,-138,-11
242074466,0.74639892578125,0.29656982421875,0.13177490234375,-0.58099365234375,4175,-1015,3790,31,-103,-35
242084452,0.74371337890625,0.28997802734375,0.12139892578125,-0.5899658203125,5390,-1156,4567,40,-65,-63
242094432,0.73828125,0.28631591796875,0.114501953125,-0.599853515625,6433,-1171,5218,47,-27,-87
242104424,0.7310791015625,0.28570556640625,0.1107177734375,-0.609619140625,7183,-927,5738,52,11,-97
242114404,0.72308349609375,0.28851318359375,0.10992431640625,-0.617919921875,7547,-467,6114,54,48,-96
242124389,0.71478271484375,0.29443359375,0.1121826171875,-0.6243896484375,7622,92,6352,52,84,-92
242134366,0.706298828125,0.30279541015625,0.11761474609375,-0.62890625,7496,547,6436,46,118,-87
242144350,0.69769287109375,0.31341552734375,0.1263427734375,-0.63165283203125,7092,911,6285,39,148,-83
242154332,0.68817138671875,0.32598876953125,0.13861083984375,-0.6331787109375,6332,1237,5854,31,175,-90
242164318,0.67633056640625,0.33990478515625,0.15496826171875,-0.63482666015625,5213,1765,5251,22,198,-116
242174301,0.66143798828125,0.35455322265625,0.17523193359375,-0.63726806640625,3704,2569,4678,8,216,-150
242184281,0.64373779296875,0.36871337890625,0.1993408203125,-0.64019775390625,1929,3257,4049,-10,227,-178
242194261,0.6240234375,0.38134765625,0.22698974609375,-0.64312744140625,-106,3662,3533,-30,232,-198
242204242,0.60296630859375,0.3917236328125,0.25726318359375,-0.64556884765625,-2176,3799,3126,-51,231,-212
242214234,0.58111572265625,0.3995361328125,0.28955078125,-0.64715576171875,-4348,3822,2735,-72,227,-223
242224217,0.55914306640625,0.40447998046875,0.322998046875,-0.6475830078125,-6541,3526,2309,-93,216,-226
242234196,0.5382080078125,0.40679931640625,0.35687255859375,-0.64605712890625,-8841,2947,1704,-113,202,-214
242244188,0.5194091796875,0.40667724609375,0.39007568359375,-0.642333984375,-10842,2214,1105,-131,182,-196
242254174,0.5025634765625,0.4033203125,0.422119140625,-0.6375732421875,-12312,1225,593,-145,156,-191
242264159,0.486083984375,0.39556884765625,0.45343017578125,-0.63372802734375,-13392,0,231,-152,129,-207
242274127,0.4686279296875,0.3829345703125,0.4840087890625,-0.63201904296875,-14148,-1343,12,-155,99,-236
242284110,0.45086669921875,0.36602783203125,0.512939453125,-0.63214111328125,-14586,-2789,-164,-152,70,-249
242294094,0.4339599609375,0.34625244140625,0.5391845703125,-0.63330078125,-14741,-4108,-300,-146,40,-247
242304080,0.4188232421875,0.32513427734375,0.56201171875,-0.63482666015625,-14640,-5166,-441,-135,14,-235
242314062,0.4056396484375,0.30291748046875,0.5814208984375,-0.6368408203125,-14220,-6008,-499,-124,-11,-224
242324041,0.3944091796875,0.27996826171875,0.59759521484375,-0.63946533203125,-13498,-6685,-497,-112,-33,-211
242334023,0.384765625,0.2568359375,0.61083984375,-0.64251708984375,-12269,-7425,-701,-96,-51,-194
242344008,0.3768310546875,0.23480224609375,0.62078857421875,-0.6461181640625,-10810,-8149,-610,-75,-63,-165
242353996,0.37091064453125,0.21478271484375,0.6270751953125,-0.650390625,-9481,-8719,-325,-52,-69,-137
242363980,0.36749267578125,0.19793701171875,0.63018798828125,-0.6546630859375,-8308,-9130,-77,-32,-72,-97
242373958,0.3673095703125,0.18548583984375,0.63055419921875,-0.6580810546875,-7199,-9296,105,-14,-72,-49
242383940,0.3699951171875,0.17742919921875,0.6285400390625,-0.66070556640625,-6093,-9282,336,2,-66,-6
242393920,0.37445068359375,0.1729736328125,0.625,-0.66278076171875,-5056,-9081,563,15,-58,23
242403902,0.37939453125,0.1712646484375,0.62054443359375,-0.66448974609375,-4170,-8749,791,24,-46,39
242413884,0.38330078125,0.17095947265625,0.61602783203125,-0.6666259765625,-3426,-8317,937,31,-33,33
242423866,0.38482666015625,0.17120361328125,0.612060546875,-0.6693115234375,-2937,-7848,992,36,-17,18
242433849,0.38421630859375,0.17236328125,0.6087646484375,-0.67230224609375,-2742,-7292,927,40,-1,6
242443842,0.38165283203125,0.17431640625,0.6063232421875,-0.67547607421875,-2715,-6775,892,41,15,-6
242453816,0.37664794921875,0.1763916015625,0.6048583984375,-0.6790771484375,-2880,-6040,967,40,30,-27
242463798,0.37030029296875,0.1790771484375,0.60418701171875,-0.68243408203125,-3209,-5318,1116,35,43,-33
242473784,0.3642578125,0.1832275390625,0.6043701171875,-0.6844482421875,-3623,-4727,1216,27,54,-19
242483768,0.36029052734375,0.1900634765625,0.60498046875,-0.68414306640625,-4050,-4171,1307,17,62,15
242493755,0.36029052734375,0.20062255859375,0.60546875,-0.6806640625,-4452,-3682,1403,5,68,67
242503738,0.36517333984375,0.215576171875,0.60540771484375,-0.67352294921875,-5026,-3277,1348,-4,71,128
242513712,0.37506103515625,0.23486328125,0.6043701171875,-0.6624755859375,-5709,-2864,1222,-12,72,187
242523698,0.38897705078125,0.25750732421875,0.6019287109375,-0.6480712890625,-6440,-2516,1154,-18,71,231
242533683,0.404296875,0.281005859375,0.5985107421875,-0.6319580078125,-6956,-2515,1166,-21,71,246
242543667,0.41876220703125,0.30364990234375,0.59454345703125,-0.6156005859375,-7205,-2602,1152,-19,71,239
242553651,0.43121337890625,0.32489013671875,0.5904541015625,-0.599853515625,-7293,-2639,1055,-14,72,222
242563635,0.4417724609375,0.34490966796875,0.586181640625,-0.5849609375,-7318,-2688,1012,-8,72,207
242573615,0.45098876953125,0.3641357421875,0.58148193359375,-0.57080078125,-7340,-2741,982,-1,72,199
242583603,0.45953369140625,0.38330078125,0.575927734375,-0.55694580078125,-7461,-2798,924,6,70,202
242593584,0.4686279296875,0.40350341796875,0.568603515625,-0.54241943359375,-7516,-2645,749,14,67,221
242603568,0.47882080078125,0.4254150390625,0.5589599609375,-0.52655029296875,-7445,-2342,524,20,64,249
242613549,0.49017333984375,0.448974609375,0.54693603515625,-0.50885009765625,-7268,-1778,247,24,62,273
242623532,0.50201416015625,0.4735107421875,0.532958984375,-0.489501953125,-6994,-1107,-15,27,62,287
242633516,0.5130615234375,0.49774169921875,0.51812744140625,-0.469482421875,-6637,-412,-207,29,63,283
242643500,0.52264404296875,0.52081298828125,0.50335693359375,-0.44964599609375,-6306,270,-311,31,65,268
242653481,0.53021240234375,0.54217529296875,0.48931884765625,-0.4306640625,-6068,851,-360,33,68,244
242663463,0.53564453125,0.5616455078125,0.47650146484375,-0.4129638671875,-5882,1387,-435,35,69,218
242673449,0.53936767578125,0.57958984375,0.46478271484375,-0.3963623046875,-5519,1996,-546,37,70,198
242683436,0.54229736328125,0.59698486328125,0.45330810546875,-0.37945556640625,-4933,2509,-659,37,74,194
242693420,0.544677734375,0.6143798828125,0.4415283203125,-0.3616943359375,-4416,2804,-835,36,78,200
242703402,0.54644775390625,0.6318359375,0.4295654296875,-0.3428955078125,-4014,2990,-1049,37,84,205
242713380,0.5472412109375,0.64947509765625,0.417236328125,-0.32330322265625,-3706,3124,-1312,40,90,209
242723364,0.54681396484375,0.66705322265625,0.40496826171875,-0.30322265625,-3474,3171,-1628,45,95,206
242733350,0.544677734375,0.6839599609375,0.393798828125,-0.2835693359375,-3277,3231,-2021,48,101,189
242743330,0.5404052734375,0.69940185546875,0.3851318359375,-0.26531982421875,-3171,3215,-2467,50,106,156
242753315,0.53387451171875,0.7125244140625,0.38067626953125,-0.24957275390625,-3072,3256,-2814,50,112,105
242763297,0.52557373046875,0.72296142578125,0.380859375,-0.23663330078125,-3027,3296,-3066,49,117,55
242773280,0.51593017578125,0.7314453125,0.3843994140625,-0.22576904296875,-3047,3305,-3273,48,119,24
242783262,0.50555419921875,0.73846435546875,0.39013671875,-0.2161865234375,-3072,3277,-3486,46,121,1
242793243,0.4945068359375,0.74444580078125,0.39764404296875,-0.20751953125,-4242,4076,-3717,45,122,-16
242803233,0.4853515625,0.74761962890625,0.40618896484375,-0.201171875,-6462,5195,-3510,37,115,-35
242813215,0.4774169921875,0.74859619140625,0.4156494140625,-0.1968994140625,-7846,5671,-3527,27,102,-49
242823196,0.47021484375,0.7484130859375,0.42559814453125,-0.19378662109375,-8441,5674,-3545,18,89,-57
242833187,0.463623046875,0.7470703125,0.4359130859375,-0.19183349609375,-8544,5225,-3760,11,78,-67
242843174,0.45709228515625,0.74468994140625,0.4471435546875,-0.19097900390625,-8254,4815,-4069,5,68,-81
242853144,0.451416015625,0.74114990234375,0.45867919921875,-0.19073486328125,-8064,5062,-4303,0,58,-92
242863123,0.44732666015625,0.736572265625,0.46978759765625,-0.19110107421875,-8342,5527,-4577,-6,47,-95
242873103,0.44451904296875,0.7310791015625,0.48046875,-0.1923828125,-8853,5829,-4972,-14,34,-97
242883088,0.4427490234375,0.724365234375,0.4910888671875,-0.19500732421875,-9385,5919,-5395,-21,19,-104
242893074,0.4420166015625,0.71612548828125,0.50201416015625,-0.19915771484375,-9810,5906,-5682,-27,5,-115
242903051,0.4423828125,0.70654296875,0.51300048828125,-0.20465087890625,-10112,5901,-5816,-32,-9,-125
242913031,0.44366455078125,0.69561767578125,0.52392578125,-0.21142578125,-10251,5916,-5924,-36,-23,-135
242923014,0.445556640625,0.6834716796875,0.53497314453125,-0.2193603515625,-10286,5755,-6041,-39,-36,-145
242932997,0.4476318359375,0.67010498046875,0.546142578125,-0.228515625,-10213,5403,-6157,-41,-46,-153
242942986,0.449951171875,0.65582275390625,0.5572509765625,-0.23834228515625,-10005,4974,-6150,-43,-54,-158
242952963,0.452392578125,0.64105224609375,0.5679931640625,-0.24847412109375,-9680,4501,-6064,-44,-59,-158
242962947,0.45477294921875,0.6259765625,0.57830810546875,-0.25848388671875,-9346,3942,-5950,-44,-60,-157
242972930,0.45709228515625,0.61090087890625,0.58795166015625,-0.2684326171875,-9115,3382,-5686,-43,-62,-149
242982912,0.45965576171875,0.59649658203125,0.5963134765625,-0.2779541015625,-8974,2826,-5270,-40,-62,-136
242992895,0.46234130859375,0.58282470703125,0.603271484375,-0.2872314453125,-8890,2299,-4734,-35,-63,-124
243002879,0.46533203125,0.57025146484375,0.60858154296875,-0.29644775390625,-8885,1786,-4076,-29,-65,-107
243012859,0.46893310546875,0.55963134765625,0.61138916015625,-0.3050537109375,-8952,1326,-3438,-20,-68,-77
243022847,0.4739990234375,0.552734375,0.6102294921875,-0.3118896484375,-9065,981,-2908,-12,-73,-23
243032829,0.48162841796875,0.5509033203125,0.60394287109375,-0.31573486328125,-9161,822,-2416,-5,-79,45
243042813,0.491943359375,0.55401611328125,0.5924072265625,-0.3162841796875,-9131,745,-2053,-1,-85,113
243052800,0.50457763671875,0.561279296875,0.576171875,-0.31365966796875,-8943,772,-1791,1,-91,168
243062784,0.518798828125,0.57135009765625,0.55615234375,-0.308349609375,-8692,833,-1579,3,-96,212
243072770,0.5340576171875,0.5831298828125,0.53302001953125,-0.30096435546875,-8378,884,-1380,4,-100,244
243082754,0.54974365234375,0.59600830078125,0.50726318359375,-0.29180908203125,-7866,917,-1194,4,-103,269
243092736,0.56561279296875,0.60943603515625,0.479248046875,-0.2808837890625,-7000,1020,-1081,4,-105,290
243102715,0.58135986328125,0.62359619140625,0.44879150390625,-0.2677001953125,-6249,1206,-914,5,-105,314
243112697,0.597412109375,0.63824462890625,0.4151611328125,-0.251708984375,-5802,1502,-765,3,-103,349
243122679,0.61322021484375,0.65325927734375,0.37823486328125,-0.23236083984375,-5459,1863,-721,1,-102,381
243132662,0.62823486328125,0.6676025390625,0.33929443359375,-0.21087646484375,-5067,2134,-676,-2,-100,393
243142644,0.6414794921875,0.67999267578125,0.30035400390625,-0.18927001953125,-4535,2353,-699,-2,-98,380
243152626,0.652587890625,0.690185546875,0.262939453125,-0.16888427734375,-3943,2666,-816,-2,-96,350
243162614,0.661376953125,0.69830322265625,0.228271484375,-0.15087890625,-3410,3029,-1004,0,-94,310
243172597,0.66802978515625,0.70465087890625,0.19677734375,-0.13580322265625,-2926,3434,-1240,3,-92,269
243182581,0.672607421875,0.70965576171875,0.1688232421875,-0.1240234375,-2503,3831,-1526,8,-90,226
243192563,0.67535400390625,0.71380615234375,0.1446533203125,-0.1156005859375,-2144,4181,-1838,13,-88,181
243202545,0.6763916015625,0.71746826171875,0.12408447265625,-0.11053466796875,-1830,4503,-2082,20,-86,140
243212529,0.676025390625,0.720947265625,0.1068115234375,-0.1083984375,-1609,4822,-2312,27,-83,104
243222511,0.67431640625,0.7244873046875,0.09222412109375,-0.10858154296875,-1471,5104,-2508,35,-80,77
243232497,0.6715087890625,0.7283935546875,0.07958984375,-0.11029052734375,-1411,5356,-2671,42,-77,60
243242477,0.667724609375,0.73260498046875,0.06817626953125,-0.1126708984375,-1381,5581,-2770,49,-73,51
243252460,0.66314697265625,0.7373046875,0.0572509765625,-0.1151123046875,-1362,5740,-2866,57,-70,48
243262439,0.65771484375,0.7425537109375,0.04656982421875,-0.11712646484375,-1315,5866,-2968,64,-65,50
243272434,0.651611328125,0.74835205078125,0.0357666015625,-0.1185302734375,-1281,5984,-3089,71,-61,54
243282415,0.644775390625,0.75457763671875,0.024658203125,-0.11907958984375,-1254,6110,-3191,77,-56,60
243292401,0.63739013671875,0.76116943359375,0.01324462890625,-0.1187744140625,-1241,6238,-3307,83,-53,67
243302378,0.62939453125,0.76806640625,0.00140380859375,-0.11761474609375,-1204,6394,-3445,88,-49,74
243312361,0.620849609375,0.77520751953125,-0.0108642578125,-0.1156005859375,-1158,6509,-3619,93,-45,80
243322343,0.61175537109375,0.78253173828125,-0.02325439453125,-0.11297607421875,-1124,6595,-3759,98,-42,83
243332326,0.60211181640625,0.7899169921875,-0.03564453125,-0.10992431640625,-1080,6622,-3851,102,-39,84
243342311,0.59197998046875,0.79736328125,-0.047607421875,-0.1068115234375,-1033,6653,-3914,106,-36,81
243352293,0.5811767578125,0.80487060546875,-0.05902099609375,-0.1038818359375,-965,6690,-3953,111,-34,75
243362277,0.5699462890625,0.81243896484375,-0.069580078125,-0.10125732421875,-911,6759,-4040,114,-33,67
243372259,0.55810546875,0.8199462890625,-0.07916259765625,-0.09912109375,-852,6917,-4139,117,-31,58
243382238,0.54595947265625,0.82745361328125,-0.0877685546875,-0.09735107421875,-770,7113,-4242,118,-30,49
243392231,0.5335693359375,0.83477783203125,-0.09539794921875,-0.0960693359375,-698,7318,-4334,120,-29,39
243402216,0.52099609375,0.842041015625,-0.10205078125,-0.09521484375,-624,7482,-4398,120,-28,31
243412193,0.50823974609375,0.84912109375,-0.107666015625,-0.09478759765625,-534,7550,-4472,120,-27,22
243422185,0.49542236328125,0.8560791015625,-0.1124267578125,-0.09466552734375,-460,7548,-4521,120,-25,15
243432174,0.4825439453125,0.86285400390625,-0.11639404296875,-0.09478759765625,-434,7508,-4582,119,-24,9
243442145,0.46966552734375,0.86944580078125,-0.11981201171875,-0.0950927734375,-424,7454,-4659,118,-23,5
243452123,0.45684814453125,0.87579345703125,-0.1229248046875,-0.09539794921875,-413,7452,-4718,117,-22,4
243462106,0.4443359375,0.88177490234375,-0.12591552734375,-0.09564208984375,-415,7513,-4770,115,-21,4
243472089,0.43206787109375,0.88739013671875,-0.12890625,-0.09564208984375,-403,7640,-4882,112,-19,6
243482072,0.42034912109375,0.892578125,-0.13214111328125,-0.0953369140625,-364,7892,-5035,108,-18,10
243492055,0.4095458984375,0.89715576171875,-0.1357421875,-0.0946044921875,-323,8265,-5216,102,-16,15
243502037,0.3997802734375,0.9010009765625,-0.1397705078125,-0.09356689453125,-316,8679,-5359,94,-14,21
243512021,0.39141845703125,0.9041748046875,-0.14398193359375,-0.0924072265625,-352,9052,-5448,83,-12,24
243522003,0.38433837890625,0.90667724609375,-0.14788818359375,-0.0911865234375,-418,9359,-5516,72,-10,23
243531991,0.37860107421875,0.90863037109375,-0.1512451171875,-0.09014892578125,-511,9584,-5547,61,-8,20
243541976,0.37408447265625,0.91009521484375,-0.1539306640625,-0.08953857421875,-623,9674,-5539,50,-7,15
243551951,0.37060546875,0.9112548828125,-0.15576171875,-0.0892333984375,-744,9636,-5509,40,-6,10
243561933,0.3680419921875,0.912109375,-0.1568603515625,-0.08935546875,-855,9527,-5488,31,-5,5
243571916,0.3662109375,0.91265869140625,-0.15740966796875,-0.08978271484375,-978,9358,-5470,24,-5,1
243581894,0.364990234375,0.91302490234375,-0.15771484375,-0.09051513671875,-1095,9179,-5451,17,-6,0
243591883,0.3643798828125,0.9130859375,-0.158203125,-0.0914306640625,-1214,8987,-5422,12,-6,3
243601867,0.3642578125,0.91290283203125,-0.1591796875,-0.09228515625,-1301,8798,-5365,8,-7,8
243611848,0.36456298828125,0.91241455078125,-0.1607666015625,-0.0931396484375,-1385,8617,-5300,4,-8,14
243621831,0.365234375,0.91168212890625,-0.16302490234375,-0.09393310546875,-1450,8461,-5265,1,-10,19
243631812,0.36614990234375,0.91070556640625,-0.16583251953125,-0.0947265625,-1511,8333,-5250,-2,-11,24
243641793,0.3673095703125,0.9095458984375,-0.16900634765625,-0.09564208984375,-1558,8230,-5238,-4,-13,27
243651773,0.36871337890625,0.90826416015625,-0.17236328125,-0.0966796875,-1571,8135,-5230,-6,-14,27
243661765,0.3702392578125,0.90692138671875,-0.17547607421875,-0.09796142578125,-1575,8029,-5219,-9,-15,24
