subject,Two-hands and jerked
arm,neither
label,0
hz,100.17037057573275
time,4.941581

timestamp_us,q0,q1,q2,q3,ax,ay,az,gx,gy,gz
222140856,0.49652099609375,0.121826171875,-0.61126708984375,-0.60418701171875,3471,7381,2433,-5,-5,-6
222150837,0.4957275390625,0.12158203125,-0.61090087890625,-0.60528564453125,3397,7369,2425,-7,-7,-5
222160821,0.49493408203125,0.12103271484375,-0.61053466796875,-0.60638427734375,3346,7340,2407,-8,-9,-4
222170802,0.49407958984375,0.1201171875,-0.6102294921875,-0.6075439453125,3293,7291,2381,-9,-11,-3
222180786,0.4931640625,0.11895751953125,-0.6099853515625,-0.6087646484375,3257,7220,2358,-10,-12,-2
222190765,0.4921875,0.11773681640625,-0.6097412109375,-0.61004638671875,3227,7130,2319,-11,-14,-3
222200759,0.490966796875,0.116455078125,-0.60955810546875,-0.6114501953125,3207,7040,2254,-11,-15,-5
222210741,0.48956298828125,0.1151123046875,-0.6094970703125,-0.6129150390625,3207,6958,2180,-11,-16,-6
222220718,0.48797607421875,0.11376953125,-0.60955810546875,-0.61431884765625,3234,6897,2090,-11,-17,-6
222230703,0.48638916015625,0.1123046875,-0.60980224609375,-0.61566162109375,3279,6853,1996,-11,-19,-5
222240686,0.48468017578125,0.11065673828125,-0.610107421875,-0.616943359375,3334,6821,1904,-10,-20,-5
222250669,0.48297119140625,0.10888671875,-0.610595703125,-0.6181640625,3402,6811,1824,-10,-22,-4
222260649,0.481201171875,0.10699462890625,-0.6112060546875,-0.6192626953125,3463,6828,1751,-10,-22,-4
222270635,0.47918701171875,0.10504150390625,-0.61181640625,-0.6204833984375,3534,6841,1694,-10,-24,-6
222280618,0.47698974609375,0.1031494140625,-0.612548828125,-0.621826171875,3611,6857,1624,-10,-25,-8
222290600,0.47454833984375,0.10137939453125,-0.61322021484375,-0.623291015625,3670,6876,1557,-11,-25,-10
222300584,0.47186279296875,0.099609375,-0.6138916015625,-0.62493896484375,3706,6916,1506,-11,-27,-12
222310565,0.4691162109375,0.0977783203125,-0.6146240234375,-0.6265869140625,3734,6944,1479,-11,-27,-12
222320549,0.46630859375,0.0958251953125,-0.6153564453125,-0.6282958984375,3748,6950,1476,-12,-28,-11
222330532,0.46356201171875,0.09368896484375,-0.6160888671875,-0.62994384765625,3753,6949,1479,-12,-29,-9
222340515,0.4608154296875,0.09130859375,-0.6168212890625,-0.631591796875,3775,6944,1478,-13,-30,-8
222350498,0.45806884765625,0.088623046875,-0.61767578125,-0.63311767578125,3815,6947,1475,-13,-32,-7
222360481,0.4554443359375,0.08575439453125,-0.61859130859375,-0.634521484375,3893,6959,1475,-13,-33,-5
222370464,0.4527587890625,0.0826416015625,-0.6195068359375,-0.63592529296875,3975,6981,1490,-13,-34,-5
222380449,0.45001220703125,0.07952880859375,-0.6204833984375,-0.6373291015625,4053,6995,1503,-14,-35,-5
222390431,0.4471435546875,0.07635498046875,-0.62139892578125,-0.63885498046875,4129,6998,1550,-14,-36,-7
222400423,0.444091796875,0.07318115234375,-0.622314453125,-0.6405029296875,4207,7004,1581,-14,-37,-8
222410406,0.44091796875,0.07000732421875,-0.62322998046875,-0.64208984375,4270,7034,1613,-14,-37,-8
222420389,0.43780517578125,0.06671142578125,-0.62420654296875,-0.6436767578125,4336,7022,1582,-13,-38,-8
222430366,0.43487548828125,0.0631103515625,-0.62530517578125,-0.6448974609375,4402,7038,1602,-13,-38,-3
222440357,0.4322509765625,0.0592041015625,-0.62646484375,-0.64593505859375,4462,7024,1546,-13,-38,1
222450335,0.42987060546875,0.05499267578125,-0.62774658203125,-0.64666748046875,4522,7019,1510,-12,-39,4
222460319,0.4276123046875,0.0506591796875,-0.6290283203125,-0.64727783203125,4600,7000,1488,-12,-39,6
222470302,0.42535400390625,0.04632568359375,-0.63031005859375,-0.6478271484375,4706,7008,1466,-11,-38,5
222480284,0.4229736328125,0.042236328125,-0.63153076171875,-0.6484375,4833,7040,1466,-11,-38,1
222490268,0.4202880859375,0.0386962890625,-0.63275146484375,-0.6492919921875,4950,7104,1436,-11,-36,-4
222500245,0.417236328125,0.0357666015625,-0.63372802734375,-0.650390625,5012,7170,1422,-11,-34,-11
222510237,0.413818359375,0.03363037109375,-0.63458251953125,-0.65191650390625,5056,7213,1425,-11,-31,-18
222520220,0.40997314453125,0.03216552734375,-0.63519287109375,-0.65380859375,5052,7236,1452,-11,-29,-25
222530205,0.40594482421875,0.03131103515625,-0.6356201171875,-0.65594482421875,5003,7252,1488,-12,-27,-29
222540187,0.4017333984375,0.031005859375,-0.6358642578125,-0.6583251953125,4932,7246,1523,-12,-24,-33
222550177,0.3975830078125,0.03094482421875,-0.6358642578125,-0.66082763671875,4865,7227,1550,-12,-22,-33
222560161,0.39373779296875,0.03094482421875,-0.63580322265625,-0.6632080078125,4789,7206,1576,-12,-20,-32
222570137,0.39019775390625,0.03094482421875,-0.6356201171875,-0.66546630859375,4718,7194,1593,-12,-18,-29
222580114,0.386962890625,0.0308837890625,-0.6353759765625,-0.6676025390625,4662,7210,1597,-12,-16,-26
222590098,0.38409423828125,0.0308837890625,-0.635009765625,-0.66961669921875,4612,7266,1589,-13,-14,-25
222600080,0.38134765625,0.03094482421875,-0.63446044921875,-0.671630859375,4520,7327,1595,-13,-12,-24
222610062,0.3785400390625,0.03131103515625,-0.6337890625,-0.67388916015625,4385,7364,1628,-14,-11,-28
222620051,0.37542724609375,0.0322265625,-0.6328125,-0.67645263671875,4200,7383,1681,-15,-9,-33
222630029,0.37164306640625,0.033935546875,-0.63165283203125,-0.6795654296875,3947,7383,1751,-16,-8,-41
222640012,0.36724853515625,0.03643798828125,-0.6302490234375,-0.68316650390625,3676,7358,1794,-18,-7,-50
222649996,0.3621826171875,0.03955078125,-0.628662109375,-0.68707275390625,3421,7353,1757,-18,-6,-57
222659986,0.35662841796875,0.04296875,-0.627197265625,-0.69110107421875,3151,7396,1589,-19,-7,-60
222669962,0.35101318359375,0.0460205078125,-0.6259765625,-0.69488525390625,2846,7423,1358,-19,-10,-53
222679946,0.34619140625,0.04766845703125,-0.625244140625,-0.6978759765625,2507,7442,1229,-17,-16,-36
222689929,0.34222412109375,0.0477294921875,-0.62481689453125,-0.7001953125,2169,7526,1251,-15,-22,-21
222699910,0.33837890625,0.04681396484375,-0.62451171875,-0.702392578125,1924,7627,1299,-16,-27,-18
222709892,0.33380126953125,0.04595947265625,-0.62420654296875,-0.70489501953125,1731,7669,1342,-17,-31,-25
222719877,0.3280029296875,0.04571533203125,-0.62384033203125,-0.70794677734375,1553,7630,1350,-18,-34,-38
222729859,0.32098388671875,0.0460205078125,-0.62347412109375,-0.71148681640625,1398,7557,1343,-19,-37,-49
222739845,0.31280517578125,0.04669189453125,-0.62322998046875,-0.71527099609375,1288,7522,1320,-18,-41,-57
222749828,0.30377197265625,0.04742431640625,-0.62322998046875,-0.7191162109375,1243,7561,1315,-17,-45,-63
222759809,0.29400634765625,0.0482177734375,-0.62335205078125,-0.72296142578125,1249,7674,1345,-15,-49,-68
222769794,0.28350830078125,0.0491943359375,-0.6236572265625,-0.72686767578125,1285,7810,1379,-14,-52,-75
222779773,0.272216796875,0.05035400390625,-0.6240234375,-0.73077392578125,1321,7952,1372,-12,-55,-80
222789766,0.26031494140625,0.0517578125,-0.62451171875,-0.734619140625,1338,8095,1369,-11,-56,-85
222799749,0.24798583984375,0.05328369140625,-0.62506103515625,-0.73828125,1346,8214,1391,-8,-58,-88
222809724,0.235595703125,0.05474853515625,-0.62567138671875,-0.74169921875,1349,8353,1427,-7,-59,-87
222819708,0.2235107421875,0.05596923828125,-0.6263427734375,-0.7447509765625,1350,8504,1498,-5,-58,-83
222829691,0.21209716796875,0.056884765625,-0.62701416015625,-0.74749755859375,1340,8673,1569,-4,-56,-76
222839674,0.201416015625,0.05755615234375,-0.62762451171875,-0.74981689453125,1318,8855,1627,-3,-53,-71
222849656,0.1912841796875,0.0582275390625,-0.62823486328125,-0.751953125,1300,9009,1680,-3,-50,-68
222859636,0.181396484375,0.0592041015625,-0.62872314453125,-0.75390625,1275,9092,1729,-1,-47,-69
222869621,0.17144775390625,0.06060791015625,-0.62908935546875,-0.75579833984375,1219,9167,1794,-1,-44,-71
222879605,0.16168212890625,0.062255859375,-0.62939453125,-0.757568359375,1182,9277,1817,-1,-41,-72
222889590,0.1522216796875,0.06396484375,-0.629638671875,-0.75921630859375,1178,9421,1832,0,-39,-69
222899572,0.1436767578125,0.06524658203125,-0.62982177734375,-0.76055908203125,1195,9556,1831,-1,-37,-61
222909551,0.13604736328125,0.06610107421875,-0.6298828125,-0.7618408203125,1126,9619,1865,-2,-34,-53
222919535,0.1292724609375,0.06671142578125,-0.62982177734375,-0.7630615234375,955,9601,1933,-3,-32,-47
222929518,0.12286376953125,0.0673828125,-0.6295166015625,-0.7642822265625,674,9536,2029,-4,-29,-43
222939500,0.116943359375,0.068115234375,-0.62896728515625,-0.765625,358,9404,2128,-5,-27,-39
222949485,0.111328125,0.06884765625,-0.6282958984375,-0.76690673828125,36,9199,2194,-5,-26,-37
222959468,0.10595703125,0.06964111328125,-0.62750244140625,-0.76824951171875,-246,8896,2240,-6,-24,-35
222969451,0.100830078125,0.07049560546875,-0.626708984375,-0.76953125,-519,8545,2236,-6,-23,-33
222979430,0.09588623046875,0.07135009765625,-0.62591552734375,-0.77069091796875,-783,8168,2149,-6,-21,-32
222989423,0.0908203125,0.072509765625,-0.62530517578125,-0.771728515625,-1102,7756,1905,-5,-21,-34
222999406,0.0849609375,0.07427978515625,-0.62469482421875,-0.772705078125,-1403,7381,1686,-5,-21,-42
223009389,0.07794189453125,0.07696533203125,-0.6241455078125,-0.773681640625,-1740,7062,1523,-4,-22,-54
223019366,0.06951904296875,0.08074951171875,-0.62347412109375,-0.77459716796875,-2127,6777,1339,-2,-23,-68
223029350,0.059326171875,0.08563232421875,-0.62286376953125,-0.77545166015625,-2434,6539,1140,-1,-24,-84
223039334,0.047607421875,0.09149169921875,-0.6221923828125,-0.77606201171875,-2780,6267,976,1,-27,-97
223049313,0.03460693359375,0.0980224609375,-0.62152099609375,-0.77655029296875,-3083,5991,789,3,-29,-107
223059298,0.0208740234375,0.10491943359375,-0.620849609375,-0.776611328125,-3314,5761,619,5,-30,-111
223069281,0.0072021484375,0.11138916015625,-0.62030029296875,-0.77642822265625,-3489,5585,444,7,-33,-108
223079264,-0.0059814453125,0.1171875,-0.6199951171875,-0.77587890625,-3598,5461,260,9,-34,-101
223089244,-0.0184326171875,0.12213134765625,-0.619873046875,-0.77496337890625,-3547,5376,50,10,-35,-93
223099235,-0.03021240234375,0.1263427734375,-0.62017822265625,-0.773681640625,-3346,5329,-195,13,-36,-89
223109221,-0.04156494140625,0.13018798828125,-0.620849609375,-0.77197265625,-2960,5331,-462,16,-35,-88
223119205,-0.05255126953125,0.1337890625,-0.6219482421875,-0.769775390625,-2430,5372,-710,20,-33,-88
223129192,-0.0628662109375,0.13714599609375,-0.62353515625,-0.76715087890625,-1860,5423,-884,24,-29,-85
223139175,-0.07208251953125,0.14007568359375,-0.62554931640625,-0.76416015625,-1356,5504,-944,29,-25,-76
223149157,-0.07965087890625,0.14215087890625,-0.62811279296875,-0.76092529296875,-957,5674,-897,33,-21,-61
223159130,-0.08551025390625,0.14324951171875,-0.6312255859375,-0.75750732421875,-643,5906,-810,37,-18,-47
223169112,-0.09002685546875,0.1435546875,-0.634765625,-0.75390625,-342,6216,-677,40,-15,-36
223179095,-0.09375,0.14349365234375,-0.63873291015625,-0.75018310546875,11,6591,-531,44,-12,-32
223189078,-0.0970458984375,0.14324951171875,-0.64288330078125,-0.7462158203125,414,7002,-379,46,-10,-33
223199061,-0.100341796875,0.143310546875,-0.647216796875,-0.74200439453125,803,7441,-247,49,-8,-38
223209051,-0.10394287109375,0.1439208984375,-0.65167236328125,-0.73748779296875,1119,7865,-120,52,-5,-44
223219028,-0.10748291015625,0.144775390625,-0.65631103515625,-0.73272705078125,1377,8261,54,54,-3,-45
223229008,-0.11029052734375,0.14520263671875,-0.66094970703125,-0.72802734375,1606,8581,279,55,-1,-37
223238996,-0.112060546875,0.1448974609375,-0.66571044921875,-0.723388671875,1832,8822,504,56,1,-27
223248983,-0.11285400390625,0.14410400390625,-0.67059326171875,-0.718994140625,2073,9012,698,56,3,-21
223258960,-0.1134033203125,0.14361572265625,-0.67523193359375,-0.714599609375,2257,9120,947,55,7,-24
223268943,-0.11456298828125,0.14447021484375,-0.67938232421875,-0.71026611328125,2319,9166,1264,53,11,-38
223278925,-0.11700439453125,0.147705078125,-0.68292236328125,-0.705810546875,2264,9189,1634,52,18,-60
223288908,-0.120849609375,0.15350341796875,-0.68585205078125,-0.70111083984375,2085,9173,1973,51,27,-81
223298892,-0.125,0.16119384765625,-0.68841552734375,-0.69610595703125,1756,9181,2227,50,36,-89
223308877,-0.1285400390625,0.1697998046875,-0.69085693359375,-0.69097900390625,1279,9225,2367,49,45,-86
223318857,-0.1309814453125,0.1785888671875,-0.693359375,-0.685791015625,697,9291,2432,46,51,-78
223328840,-0.132080078125,0.1871337890625,-0.69580078125,-0.6807861328125,51,9385,2446,44,57,-66
223338822,-0.1319580078125,0.19500732421875,-0.6982421875,-0.6761474609375,-657,9514,2415,40,59,-51
223348806,-0.130615234375,0.20184326171875,-0.70062255859375,-0.671875,-1407,9678,2289,36,59,-37
223358788,-0.1282958984375,0.20758056640625,-0.702880859375,-0.668212890625,-2203,9825,2085,31,56,-22
223368767,-0.12548828125,0.2122802734375,-0.70501708984375,-0.6650390625,-3004,9960,1775,26,52,-12
223378761,-0.1229248046875,0.2164306640625,-0.706787109375,-0.66229248046875,-3777,10055,1404,21,45,-10
223388742,-0.12115478515625,0.22052001953125,-0.7080078125,-0.659912109375,-4461,10124,1018,16,38,-13
223398721,-0.12030029296875,0.22442626953125,-0.70867919921875,-0.65802001953125,-5009,10211,628,11,30,-16
223408706,-0.1201171875,0.22784423828125,-0.70880126953125,-0.65673828125,-5388,10337,286,5,22,-18
223418686,-0.1204833984375,0.23089599609375,-0.70831298828125,-0.65618896484375,-5615,10490,-10,-2,13,-21
223428668,-0.12176513671875,0.23388671875,-0.70703125,-0.65625,-5750,10659,-301,-8,6,-29
223438649,-0.1243896484375,0.2376708984375,-0.70477294921875,-0.65679931640625,-5863,10789,-618,-16,-1,-44
223448635,-0.12890625,0.24273681640625,-0.7012939453125,-0.65777587890625,-5944,10868,-927,-24,-7,-67
223458612,-0.1356201171875,0.2496337890625,-0.6964111328125,-0.6590576171875,-5918,10861,-1190,-32,-12,-92
223468595,-0.14422607421875,0.25811767578125,-0.6900634765625,-0.66064453125,-5782,10806,-1389,-40,-17,-116
223478579,-0.154296875,0.26788330078125,-0.6822509765625,-0.66253662109375,-5569,10712,-1506,-49,-21,-135
223488561,-0.1654052734375,0.2786865234375,-0.673095703125,-0.66485595703125,-5351,10564,-1554,-57,-24,-150
223498544,-0.177001953125,0.29022216796875,-0.66259765625,-0.66741943359375,-5117,10354,-1628,-66,-25,-160
223508527,-0.18896484375,0.3026123046875,-0.65093994140625,-0.670166015625,-4897,10061,-1754,-75,-25,-169
223518511,-0.2010498046875,0.31585693359375,-0.63812255859375,-0.6728515625,-4702,9721,-1957,-83,-24,-179
223528494,-0.21331787109375,0.33013916015625,-0.6241455078125,-0.67529296875,-4550,9343,-2178,-91,-22,-189
223538480,-0.22589111328125,0.345458984375,-0.60888671875,-0.677490234375,-4441,8884,-2360,-99,-20,-200
223548464,-0.23870849609375,0.36187744140625,-0.59222412109375,-0.67926025390625,-4360,8349,-2473,-106,-17,-211
223558449,-0.25164794921875,0.37908935546875,-0.57421875,-0.6806640625,-4289,7738,-2527,-112,-15,-219
223568435,-0.264404296875,0.3968505859375,-0.55499267578125,-0.681640625,-4244,7077,-2534,-118,-13,-222
223578417,-0.27642822265625,0.4146728515625,-0.53509521484375,-0.68218994140625,-4234,6390,-2526,-121,-9,-218
223588399,-0.286865234375,0.43206787109375,-0.51507568359375,-0.6824951171875,-4245,5724,-2574,-125,-5,-205
223598389,-0.294921875,0.44854736328125,-0.49560546875,-0.68280029296875,-4249,5064,-2660,-127,1,-183
223608363,-0.29998779296875,0.4639892578125,-0.477294921875,-0.683349609375,-4207,4373,-2725,-130,9,-154
223618350,-0.3017578125,0.47808837890625,-0.4605712890625,-0.684326171875,-4140,3638,-2767,-132,16,-120
223628332,-0.30010986328125,0.490966796875,-0.44561767578125,-0.68585205078125,-4087,2940,-2801,-133,25,-86
223638315,-0.29534912109375,0.50274658203125,-0.43255615234375,-0.687744140625,-4069,2330,-2838,-133,33,-56
223648298,-0.28826904296875,0.51409912109375,-0.4208984375,-0.6895751953125,-4074,1760,-2870,-133,42,-38
223658280,-0.2801513671875,0.525634765625,-0.409912109375,-0.69085693359375,-4102,1238,-2852,-131,51,-33
223668263,-0.272216796875,0.537841796875,-0.3988037109375,-0.69110107421875,-4130,717,-2809,-128,59,-40
223678246,-0.265380859375,0.55120849609375,-0.386962890625,-0.68994140625,-4154,231,-2755,-125,67,-57
223688238,-0.26025390625,0.56585693359375,-0.3739013671875,-0.687255859375,-4259,-298,-2637,-121,73,-79
223698220,-0.25701904296875,0.58148193359375,-0.359619140625,-0.68304443359375,-4444,-794,-2486,-117,78,-99
223708205,-0.2550048828125,0.59747314453125,-0.34454345703125,-0.677734375,-4764,-1240,-2329,-112,80,-108
223718194,-0.25347900390625,0.61309814453125,-0.32958984375,-0.67181396484375,-5220,-1599,-2130,-107,80,-108
223728176,-0.25177001953125,0.62774658203125,-0.31524658203125,-0.66571044921875,-5801,-1923,-1928,-101,79,-100
223738157,-0.24993896484375,0.64141845703125,-0.3018798828125,-0.65960693359375,-6493,-2320,-1689,-94,77,-90
223748129,-0.24822998046875,0.65380859375,-0.28948974609375,-0.653564453125,-7303,-2813,-1385,-85,74,-80
223758114,-0.2467041015625,0.6649169921875,-0.27825927734375,-0.64776611328125,-8147,-3269,-1097,-76,69,-68
223768095,-0.2449951171875,0.67462158203125,-0.268798828125,-0.64239501953125,-9004,-3571,-929,-66,64,-53
223778079,-0.24261474609375,0.68280029296875,-0.26165771484375,-0.6375732421875,-9886,-3664,-896,-56,60,-33
223788061,-0.239013671875,0.6893310546875,-0.25726318359375,-0.6336669921875,-10823,-3663,-846,-47,54,-7
223798042,-0.2344970703125,0.69415283203125,-0.25555419921875,-0.63079833984375,-11675,-3697,-729,-37,47,18
223808023,-0.229736328125,0.69720458984375,-0.2557373046875,-0.62908935546875,-12468,-3815,-507,-28,38,34
223818008,-0.22552490234375,0.69873046875,-0.2572021484375,-0.6282958984375,-13257,-3897,-237,-17,28,43
223827995,-0.22235107421875,0.6988525390625,-0.25933837890625,-0.62841796875,-13907,-3838,-21,-8,16,44
223837981,-0.22052001953125,0.69781494140625,-0.2615966796875,-0.62933349609375,-14395,-3641,229,2,3,39
223847955,-0.22039794921875,0.69561767578125,-0.2635498046875,-0.6309814453125,-14752,-3362,525,10,-10,29
223857933,-0.22216796875,0.6923828125,-0.2647705078125,-0.6334228515625,-14993,-2988,797,17,-24,16
223867916,-0.225830078125,0.68829345703125,-0.26507568359375,-0.63641357421875,-15085,-2579,1022,24,-38,1
223877902,-0.23162841796875,0.68353271484375,-0.26409912109375,-0.63983154296875,-15032,-2236,1224,30,-51,-18
223887884,-0.2398681640625,0.6783447265625,-0.26141357421875,-0.64337158203125,-14877,-1986,1381,35,-63,-41
223897866,-0.25054931640625,0.67279052734375,-0.257080078125,-0.64691162109375,-14695,-1752,1493,41,-74,-62
223907846,-0.26318359375,0.666748046875,-0.2515869140625,-0.65032958984375,-14518,-1530,1509,46,-83,-78
223917836,-0.277099609375,0.66015625,-0.2452392578125,-0.6536865234375,-14245,-1322,1483,50,-92,-89
223927820,-0.29180908203125,0.65289306640625,-0.238525390625,-0.65704345703125,-13896,-1142,1441,54,-100,-94
223937800,-0.30682373046875,0.6448974609375,-0.23187255859375,-0.6605224609375,-13431,-1032,1390,57,-106,-93
223947787,-0.3214111328125,0.63592529296875,-0.2257080078125,-0.66436767578125,-12905,-983,1345,59,-113,-84
223957767,-0.3353271484375,0.62591552734375,-0.2203369140625,-0.66876220703125,-12359,-961,1337,61,-119,-74
223967758,-0.34869384765625,0.6151123046875,-0.2154541015625,-0.673583984375,-11740,-971,1267,63,-124,-66
223977741,-0.36126708984375,0.603515625,-0.21112060546875,-0.67877197265625,-11042,-994,1119,64,-129,-55
223987721,-0.37286376953125,0.59124755859375,-0.20770263671875,-0.684326171875,-10085,-1141,784,66,-132,-41
223997703,-0.3829345703125,0.57861328125,-0.20623779296875,-0.68994140625,-9064,-1445,559,73,-125,-14
224007688,-0.39117431640625,0.5650634765625,-0.20758056640625,-0.6961669921875,-8357,-1572,581,83,-120,13
224017667,-0.39776611328125,0.55047607421875,-0.211181640625,-0.7030029296875,-7720,-1429,600,88,-120,31
224027650,-0.4034423828125,0.5352783203125,-0.21588134765625,-0.7100830078125,-7058,-1077,515,90,-120,37
224037635,-0.4093017578125,0.52020263671875,-0.220458984375,-0.71649169921875,-6359,-653,368,90,-117,28
224047617,-0.41583251953125,0.5057373046875,-0.22430419921875,-0.7218017578125,-5658,-210,207,87,-112,12
224057603,-0.42388916015625,0.4925537109375,-0.22674560546875,-0.7254638671875,-4953,180,24,83,-105,-13
224067580,-0.43353271484375,0.48101806640625,-0.22784423828125,-0.72723388671875,-4266,435,-156,79,-94,-36
224077564,-0.44390869140625,0.4708251953125,-0.22821044921875,-0.72747802734375,-3650,617,-278,76,-84,-48
224087549,-0.45416259765625,0.4615478515625,-0.228759765625,-0.7269287109375,-3087,747,-301,75,-73,-49
224097535,-0.46392822265625,0.45306396484375,-0.2296142578125,-0.72589111328125,-2629,859,-245,73,-63,-47
224107518,-0.4727783203125,0.44525146484375,-0.23101806640625,-0.72454833984375,-2345,1075,-77,70,-54,-42
224117502,-0.48046875,0.43792724609375,-0.23333740234375,-0.72320556640625,-2136,1321,120,68,-43,-34
224127485,-0.4869384765625,0.43133544921875,-0.236328125,-0.72186279296875,-1918,1541,341,64,-33,-27
224137468,-0.4927978515625,0.425537109375,-0.2396240234375,-0.72021484375,-1716,1767,550,60,-23,-27
224147451,-0.49853515625,0.4208984375,-0.24298095703125,-0.7178955078125,-1623,1996,822,56,-13,-34
224157430,-0.50445556640625,0.41754150390625,-0.24603271484375,-0.71466064453125,-1574,2214,1118,51,-3,-44
224167423,-0.510986328125,0.4156494140625,-0.2486572265625,-0.710205078125,-1591,2378,1408,47,8,-58
224177404,-0.51837158203125,0.41546630859375,-0.250732421875,-0.70416259765625,-1661,2489,1668,42,19,-76
224189995,-0.5267333984375,0.41705322265625,-0.252197265625,-0.69647216796875,-1876,2635,1873,37,30,-95
224197363,-0.53570556640625,0.42041015625,-0.25311279296875,-0.687255859375,-2218,2786,2008,31,40,-111
224207350,-0.5450439453125,0.42529296875,-0.25347900390625,-0.6766357421875,-2570,2905,2017,25,49,-124
224217328,-0.55487060546875,0.431884765625,-0.2530517578125,-0.66455078125,-2842,2987,1961,18,57,-142
224227312,-0.56591796875,0.44036865234375,-0.25103759765625,-0.65032958984375,-2953,2965,1889,9,65,-171
224237294,-0.57891845703125,0.451171875,-0.2464599609375,-0.6329345703125,-2935,2850,1866,-1,74,-212
224247274,-0.59423828125,0.46435546875,-0.23876953125,-0.61181640625,-2953,2642,2010,-13,83,-257
224257256,-0.6102294921875,0.47955322265625,-0.228759765625,-0.58770751953125,-3043,2147,2081,-25,92,-279
224267245,-0.62457275390625,0.49554443359375,-0.21795654296875,-0.56298828125,-3579,1561,2470,-37,97,-267
224277232,-0.6351318359375,0.5111083984375,-0.208251953125,-0.54046630859375,-4414,792,2898,-49,97,-227
224287215,-0.64111328125,0.5257568359375,-0.200927734375,-0.52178955078125,-5207,-38,3250,-59,96,-173
224297195,-0.64276123046875,0.53936767578125,-0.196044921875,-0.5074462890625,-5806,-751,3498,-69,94,-119
224307185,-0.6407470703125,0.5523681640625,-0.193603515625,-0.49688720703125,-6235,-1443,3645,-78,94,-74
224317173,-0.6357421875,0.56494140625,-0.19305419921875,-0.4892578125,-6604,-2136,3737,-85,94,-39
224327146,-0.6285400390625,0.5771484375,-0.19403076171875,-0.4840087890625,-7003,-2892,3809,-89,93,-9
224337121,-0.61962890625,0.58880615234375,-0.19635009765625,-0.48046875,-7509,-3578,3793,-91,92,12
224347104,-0.61004638671875,0.60015869140625,-0.1990966796875,-0.47747802734375,-8056,-4227,3651,-91,91,16
224357087,-0.6009521484375,0.61151123046875,-0.201171875,-0.47381591796875,-8679,-4946,3412,-89,89,5
224367071,-0.59295654296875,0.62274169921875,-0.2020263671875,-0.4688720703125,-9374,-5680,3092,-84,85,-12
224377052,-0.5863037109375,0.6336669921875,-0.20159912109375,-0.4627685546875,-10124,-6413,2697,-78,80,-28
224387040,-0.58074951171875,0.64404296875,-0.199951171875,-0.4560546875,-10863,-7162,2226,-72,72,-39
224397022,-0.5760498046875,0.6536865234375,-0.19757080078125,-0.4493408203125,-11538,-7862,1744,-66,63,-42
224407006,-0.5716552734375,0.6622314453125,-0.1951904296875,-0.44342041015625,-12046,-8446,1262,-60,53,-36
224416996,-0.5672607421875,0.669677734375,-0.1929931640625,-0.438720703125,-12370,-8936,769,-56,43,-26
224426980,-0.5628662109375,0.6761474609375,-0.191162109375,-0.435302734375,-12541,-9252,293,-52,34,-17
224436957,-0.55859375,0.681640625,-0.18951416015625,-0.43292236328125,-12571,-9384,-166,-48,25,-12
224446938,-0.55474853515625,0.6864013671875,-0.18756103515625,-0.4312744140625,-12475,-9421,-532,-43,16,-12
224456922,-0.5516357421875,0.69036865234375,-0.18505859375,-0.42999267578125,-12267,-9408,-796,-38,8,-14
224466903,-0.54937744140625,0.6934814453125,-0.18194580078125,-0.42919921875,-11929,-9353,-939,-33,-1,-17
224476884,-0.54815673828125,0.69573974609375,-0.17822265625,-0.4287109375,-11465,-9253,-1006,-27,-10,-20
224486867,-0.54791259765625,0.697021484375,-0.17388916015625,-0.4285888671875,-10881,-9040,-985,-19,-18,-24
224496847,-0.54888916015625,0.69744873046875,-0.16900634765625,-0.4285888671875,-10211,-8767,-946,-11,-26,-30
224506833,-0.55108642578125,0.6971435546875,-0.16339111328125,-0.42852783203125,-9496,-8391,-898,-3,-33,-38
224516817,-0.55462646484375,0.69610595703125,-0.1568603515625,-0.42803955078125,-8772,-7943,-870,5,-39,-51
224526798,-0.55963134765625,0.694580078125,-0.14910888671875,-0.4267578125,-8094,-7441,-869,13,-43,-68
224536784,-0.566162109375,0.6927490234375,-0.139892578125,-0.42425537109375,-7457,-6937,-872,20,-46,-89
224546771,-0.574462890625,0.690673828125,-0.12872314453125,-0.41998291015625,-6813,-6488,-859,27,-48,-115
224556754,-0.5845947265625,0.68841552734375,-0.115478515625,-0.41357421875,-6162,-6096,-813,33,-47,-144
224566738,-0.59637451171875,0.6859130859375,-0.10028076171875,-0.40478515625,-5468,-5757,-724,38,-45,-170
224576713,-0.60931396484375,0.68304443359375,-0.0836181640625,-0.39398193359375,-4779,-5437,-637,43,-42,-190
224586696,-0.62298583984375,0.67974853515625,-0.066162109375,-0.3814697265625,-4118,-5094,-589,48,-38,-203
224596680,-0.63677978515625,0.6759033203125,-0.04864501953125,-0.36785888671875,-3508,-4725,-542,52,-34,-206
224606663,-0.65020751953125,0.671630859375,-0.03179931640625,-0.353759765625,-2960,-4379,-496,54,-29,-204
224616645,-0.6629638671875,0.6669921875,-0.0159912109375,-0.33966064453125,-2531,-4101,-464,56,-25,-194
224626628,-0.6749267578125,0.66192626953125,-0.00164794921875,-0.3260498046875,-2215,-3893,-460,57,-20,-181
224636611,-0.68597412109375,0.65667724609375,0.01116943359375,-0.313232421875,-1969,-3725,-479,58,-16,-166
224646595,-0.69610595703125,0.65130615234375,0.0223388671875,-0.30120849609375,-1698,-3551,-507,58,-12,-150
224656580,-0.705078125,0.64617919921875,0.0313720703125,-0.29046630859375,-1156,-3353,-511,56,-4,-122
224666567,-0.71240234375,0.6416015625,0.03668212890625,-0.28204345703125,-771,-3353,-369,52,7,-80
224676548,-0.71832275390625,0.637451171875,0.0384521484375,-0.27606201171875,-541,-3419,-201,50,15,-48
224686529,-0.72320556640625,0.63372802734375,0.03759765625,-0.27197265625,-437,-3485,-77,49,21,-22
224696510,-0.72698974609375,0.630615234375,0.0345458984375,-0.26947021484375,-484,-3563,-12,45,26,-2
224706495,-0.72998046875,0.628173828125,0.0301513671875,-0.267578125,-643,-3604,16,40,32,7
224716476,-0.73236083984375,0.62652587890625,0.025390625,-0.2655029296875,-891,-3624,16,32,36,4
224726459,-0.734375,0.62579345703125,0.021240234375,-0.2620849609375,-1179,-3640,-33,24,40,-12
224736449,-0.73638916015625,0.6260986328125,0.0191650390625,-0.2557373046875,-1336,-3643,-83,13,45,-45
224746434,-0.73895263671875,0.62744140625,0.02044677734375,-0.24468994140625,-1368,-3665,-43,0,53,-94
224756414,-0.74212646484375,0.62982177734375,0.025634765625,-0.22784423828125,-1385,-3759,145,-13,61,-151
224766397,-0.74554443359375,0.63299560546875,0.03485107421875,-0.20574951171875,-1432,-3989,447,-28,65,-202
224776372,-0.74835205078125,0.63665771484375,0.04730224609375,-0.17987060546875,-1471,-4360,807,-42,65,-237
224786355,-0.74993896484375,0.6407470703125,0.06170654296875,-0.1522216796875,-1477,-4846,1158,-56,61,-252
224796341,-0.74981689453125,0.645263671875,0.0770263671875,-0.12445068359375,-1398,-5415,1428,-69,54,-252
224806326,-0.74774169921875,0.65020751953125,0.092529296875,-0.09808349609375,-1216,-6067,1596,-81,45,-239
224816308,-0.7437744140625,0.65557861328125,0.1075439453125,-0.07415771484375,-925,-6799,1686,-90,33,-217
224826293,-0.73828125,0.66131591796875,0.1214599609375,-0.0533447265625,-513,-7619,1725,-96,22,-189
224836275,-0.731689453125,0.66741943359375,0.13385009765625,-0.0361328125,-11,-8537,1713,-100,11,-156
224846261,-0.72430419921875,0.67388916015625,0.14404296875,-0.0228271484375,493,-9463,1618,-100,2,-118
224856238,-0.716552734375,0.6806640625,0.15191650390625,-0.0133056640625,951,-10293,1478,-98,-5,-84
224866227,-0.708740234375,0.68756103515625,0.15771484375,-0.0069580078125,1411,-10966,1274,-95,-10,-55
224876210,-0.70111083984375,0.69439697265625,0.1619873046875,-0.00274658203125,1865,-11558,1014,-90,-12,-35
224886189,-0.69378662109375,0.700927734375,0.165283203125,0.0001220703125,2285,-12163,721,-83,-13,-24
224896181,-0.68719482421875,0.70684814453125,0.167724609375,0.002197265625,2682,-12736,437,-74,-11,-16
224906165,-0.681396484375,0.7120361328125,0.16937255859375,0.0037841796875,3012,-13227,180,-64,-9,-9
224916141,-0.6766357421875,0.71630859375,0.17034912109375,0.0050048828125,3257,-13622,-125,-53,-5,-5
224926117,-0.67291259765625,0.7197265625,0.170654296875,0.00604248046875,3420,-13919,-463,-40,0,-2
224936103,-0.67022705078125,0.7222900390625,0.17041015625,0.00701904296875,3498,-14065,-759,-28,4,0
224946082,-0.668701171875,0.723876953125,0.16961669921875,0.00811767578125,3506,-14052,-982,-17,9,2
224956064,-0.66827392578125,0.724609375,0.1680908203125,0.00909423828125,3478,-13871,-1132,-5,14,5
224966052,-0.66900634765625,0.724365234375,0.1661376953125,0.01025390625,3467,-13471,-1189,6,19,6
224976032,-0.67071533203125,0.7232666015625,0.1640625,0.01190185546875,3438,-12908,-1168,16,24,2
224986019,-0.67327880859375,0.72113037109375,0.16253662109375,0.0145263671875,3421,-12202,-1143,25,28,-9
224996000,-0.67657470703125,0.7181396484375,0.16192626953125,0.0185546875,3435,-11400,-1108,33,33,-23
225005993,-0.68048095703125,0.714111328125,0.1624755859375,0.0242919921875,3464,-10543,-1022,40,37,-39
225015974,-0.68499755859375,0.70904541015625,0.164306640625,0.03173828125,3474,-9670,-935,47,41,-58
225025952,-0.68988037109375,0.70306396484375,0.16748046875,0.04095458984375,3442,-8805,-847,52,44,-76
225035936,-0.695068359375,0.69622802734375,0.171630859375,0.0516357421875,3396,-8002,-740,57,48,-91
225045920,-0.70050048828125,0.6885986328125,0.1763916015625,0.0633544921875,3355,-7328,-617,61,51,-100
225055902,-0.7060546875,0.68035888671875,0.1812744140625,0.07568359375,3315,-6747,-471,65,54,-104
225065885,-0.71173095703125,0.671630859375,0.1859130859375,0.088134765625,3277,-6232,-364,67,57,-103
225075867,-0.71734619140625,0.6627197265625,0.18994140625,0.10040283203125,3264,-5768,-337,69,60,-97
225085851,-0.7230224609375,0.65380859375,0.19293212890625,0.1119384765625,3276,-5307,-386,69,63,-86
225095837,-0.7286376953125,0.6453857421875,0.19415283203125,0.1220703125,3294,-4735,-444,68,67,-63
225105821,-0.73443603515625,0.6376953125,0.1925048828125,0.13006591796875,3266,-4180,-285,63,71,-31
225115802,-0.7403564453125,0.630859375,0.1881103515625,0.1358642578125,3146,-3691,-68,55,74,-4
225125785,-0.74591064453125,0.6251220703125,0.18218994140625,0.1402587890625,2974,-3293,-79,49,74,8
225135771,-0.750732421875,0.6201171875,0.176025390625,0.14434814453125,2729,-2950,-80,42,73,8
225145757,-0.75482177734375,0.61553955078125,0.170654296875,0.149169921875,2472,-2676,-4,35,69,-5
225155743,-0.75775146484375,0.6112060546875,0.16717529296875,0.15582275390625,2331,-2401,106,26,64,-32
225165717,-0.75921630859375,0.60699462890625,0.16656494140625,0.16552734375,2236,-2210,264,15,59,-66
225175701,-0.7589111328125,0.6031494140625,0.1685791015625,0.17852783203125,2085,-2154,500,3,55,-105
225185683,-0.75653076171875,0.59942626953125,0.17364501953125,0.1953125,1952,-2256,781,-11,50,-149
225195663,-0.7518310546875,0.59600830078125,0.18182373046875,0.21563720703125,1813,-2627,1055,-24,44,-191
225205647,-0.74493408203125,0.59295654296875,0.192138671875,0.23785400390625,1751,-3313,1302,-35,34,-213
225215629,-0.73675537109375,0.590576171875,0.2030029296875,0.25921630859375,1778,-4255,1450,-40,23,-211
225225612,-0.7279052734375,0.5889892578125,0.21380615234375,0.2784423828125,1871,-5222,1470,-41,10,-201
225235594,-0.7183837890625,0.587646484375,0.22564697265625,0.296142578125,2041,-6115,1482,-39,-5,-204
225245572,-0.7078857421875,0.58587646484375,0.23944091796875,0.3134765625,2425,-6886,1516,-35,-19,-217
225255555,-0.6964111328125,0.58355712890625,0.25543212890625,0.3304443359375,3067,-7544,1539,-30,-33,-227
225265542,-0.68475341796875,0.58087158203125,0.272216796875,0.345703125,3899,-8062,1478,-22,-44,-216
225275522,-0.67388916015625,0.57855224609375,0.2884521484375,0.35760498046875,4794,-8520,1310,-13,-54,-186
225285506,-0.664794921875,0.5771484375,0.30279541015625,0.36505126953125,5617,-8814,1077,-4,-61,-142
225295491,-0.658203125,0.5770263671875,0.314208984375,0.367431640625,6351,-8886,819,5,-65,-87
225305473,-0.65423583984375,0.578369140625,0.32275390625,0.36505126953125,6847,-8651,544,12,-69,-36
225315457,-0.65216064453125,0.580810546875,0.32916259765625,0.35919189453125,7157,-8169,277,17,-71,1
225325432,-0.65130615234375,0.583984375,0.33404541015625,0.3509521484375,7344,-7583,32,19,-72,27
225335424,-0.65130615234375,0.587646484375,0.337646484375,0.34124755859375,7490,-6984,-124,21,-72,46
225345408,-0.65179443359375,0.591552734375,0.34033203125,0.33074951171875,7544,-6376,-212,21,-70,57
225355392,-0.6524658203125,0.59527587890625,0.342529296875,0.32037353515625,7498,-5782,-237,19,-67,58
225365370,-0.65301513671875,0.5985107421875,0.3446044921875,0.310791015625,7403,-5201,-206,18,-62,53
225375354,-0.65325927734375,0.60113525390625,0.34686279296875,0.30255126953125,7264,-4659,-146,16,-56,42
225385336,-0.6531982421875,0.6029052734375,0.3494873046875,0.2960205078125,7116,-4155,-31,14,-49,28
225395318,-0.6527099609375,0.603759765625,0.3526611328125,0.29150390625,6998,-3701,95,12,-42,12
225405304,-0.65191650390625,0.60369873046875,0.35638427734375,0.28900146484375,6873,-3290,228,10,-35,-4
225415282,-0.6507568359375,0.602783203125,0.36053466796875,0.28839111328125,6735,-2938,368,8,-27,-18
225425265,-0.6492919921875,0.60125732421875,0.364990234375,0.28936767578125,6628,-2641,484,6,-21,-31
225435244,-0.6474609375,0.59918212890625,0.36962890625,0.29180908203125,6574,-2454,550,3,-15,-41
225445235,-0.6455078125,0.596923828125,0.3740234375,0.2950439453125,6555,-2449,570,0,-10,-44
225455219,-0.64361572265625,0.5948486328125,0.37786865234375,0.2984619140625,6540,-2620,529,-1,-5,-43
225465205,-0.6419677734375,0.59320068359375,0.380859375,0.301513671875,6579,-2917,409,-3,-2,-36
225475187,-0.640625,0.59210205078125,0.3829345703125,0.303955078125,6665,-3288,269,-4,-1,-27
225485173,-0.6395263671875,0.59161376953125,0.38427734375,0.305419921875,6775,-3708,97,-4,-1,-18
225495153,-0.63873291015625,0.59161376953125,0.3851318359375,0.30609130859375,6896,-4205,-71,-4,-4,-11
225505127,-0.637939453125,0.592041015625,0.3858642578125,0.305908203125,7049,-4746,-227,-2,-7,-8
225515109,-0.63720703125,0.59271240234375,0.38665771484375,0.30511474609375,7234,-5290,-294,-1,-12,-6
225525098,-0.63671875,0.59344482421875,0.38751220703125,0.3037109375,7505,-5825,-237,1,-15,-3
225535084,-0.6365966796875,0.593994140625,0.38836669921875,0.3017578125,7810,-6295,-123,4,-17,0
225545062,-0.63677978515625,0.5943603515625,0.38922119140625,0.2994384765625,8053,-6659,5,9,-19,2
225555051,-0.63726806640625,0.59442138671875,0.390380859375,0.29681396484375,8224,-6888,89,13,-19,1
225565031,-0.63812255859375,0.59393310546875,0.39178466796875,0.29412841796875,8311,-7001,142,18,-19,-1
225575008,-0.63909912109375,0.5927734375,0.39373779296875,0.2916259765625,8314,-6997,191,24,-18,-6
225584996,-0.6402587890625,0.59075927734375,0.3963623046875,0.28973388671875,8286,-6924,232,28,-16,-15
225594982,-0.6414794921875,0.5877685546875,0.399658203125,0.28857421875,8314,-6812,304,33,-14,-25
225604977,-0.64276123046875,0.583740234375,0.4036865234375,0.28839111328125,8421,-6703,401,37,-10,-36
225614952,-0.64422607421875,0.5787353515625,0.4080810546875,0.2889404296875,8535,-6646,478,41,-6,-43
225624932,-0.64599609375,0.57305908203125,0.41253662109375,0.2899169921875,8611,-6575,533,45,-1,-46
225634918,-0.6483154296875,0.56689453125,0.4166259765625,0.29095458984375,8622,-6452,562,49,5,-44
225644901,-0.6512451171875,0.5606689453125,0.41998291015625,0.29180908203125,8576,-6236,556,51,10,-36
225654884,-0.65484619140625,0.55462646484375,0.4222412109375,0.2919921875,8473,-5980,574,53,15,-24
225664869,-0.65924072265625,0.548828125,0.42333984375,0.29150390625,8369,-5677,612,55,21,-11
225674852,-0.66448974609375,0.54345703125,0.42303466796875,0.2900390625,8269,-5391,696,56,25,6
225684830,-0.67071533203125,0.538818359375,0.4210205078125,0.28717041015625,8250,-5144,792,57,30,28
225694815,-0.67803955078125,0.53515625,0.41717529296875,0.28253173828125,8294,-4964,835,59,34,54
225704796,-0.6864013671875,0.5325927734375,0.41119384765625,0.27587890625,8310,-4847,827,59,39,81
225714784,-0.69537353515625,0.5308837890625,0.40362548828125,0.2677001953125,8256,-4755,795,59,42,98
225724768,-0.70458984375,0.5296630859375,0.39501953125,0.2587890625,8095,-4713,789,57,44,108
225734751,-0.7138671875,0.5289306640625,0.38543701171875,0.2490234375,7911,-4759,842,56,45,118
225744734,-0.72314453125,0.52874755859375,0.375,0.23834228515625,7671,-4850,948,54,45,129
225754713,-0.73248291015625,0.52899169921875,0.3636474609375,0.22662353515625,7373,-4932,1093,52,44,140
225764696,-0.7415771484375,0.52947998046875,0.351806640625,0.21429443359375,7019,-4952,1224,50,43,145
225774680,-0.7501220703125,0.53009033203125,0.33984375,0.20196533203125,6621,-4907,1299,46,42,143
225784662,-0.75787353515625,0.53094482421875,0.32806396484375,0.19000244140625,6142,-4906,1273,41,40,139
225794644,-0.7647705078125,0.53216552734375,0.3165283203125,0.17816162109375,5588,-4964,1200,36,37,135
225804629,-0.77093505859375,0.533935546875,0.304931640625,0.16607666015625,4924,-5101,1112,31,33,136
225814613,-0.77655029296875,0.5362548828125,0.29315185546875,0.1531982421875,4190,-5293,1068,27,27,141
225824597,-0.7816162109375,0.53912353515625,0.28125,0.13909912109375,3462,-5474,1080,25,20,148
225834581,-0.78619384765625,0.54241943359375,0.26910400390625,0.12353515625,2729,-5548,1120,22,12,159
225844562,-0.79022216796875,0.5462646484375,0.256591796875,0.106201171875,2033,-5464,1152,20,3,173
225854543,-0.7935791015625,0.5506591796875,0.24383544921875,0.08685302734375,1407,-5192,1104,16,-6,188
225864525,-0.7960205078125,0.55560302734375,0.23095703125,0.0657958984375,879,-4785,1055,11,-15,201
225874508,-0.79730224609375,0.56109619140625,0.2181396484375,0.04327392578125,488,-4327,1047,4,-24,211
225884486,-0.79742431640625,0.5670166015625,0.20538330078125,0.0196533203125,207,-3929,1043,-4,-32,219
225894468,-0.796142578125,0.57366943359375,0.1925048828125,-0.0052490234375,51,-3609,1030,-13,-39,232
225904450,-0.79327392578125,0.58111572265625,0.17877197265625,-0.0321044921875,-45,-3360,1020,-22,-44,254
225914431,-0.78875732421875,0.58935546875,0.16351318359375,-0.06146240234375,-133,-3131,1018,-32,-48,279
225924423,-0.7823486328125,0.59808349609375,0.14703369140625,-0.09259033203125,-244,-2920,992,-42,-50,296
225934405,-0.77398681640625,0.60723876953125,0.1302490234375,-0.123779296875,-376,-2792,904,-53,-50,295
225944379,-0.7637939453125,0.616455078125,0.1141357421875,-0.153564453125,-538,-2852,830,-64,-49,282
225954364,-0.752197265625,0.62567138671875,0.09906005859375,-0.181396484375,-797,-3208,817,-74,-46,265
225964350,-0.73968505859375,0.63470458984375,0.0853271484375,-0.20672607421875,-1150,-3725,879,-80,-43,240
225974330,-0.72711181640625,0.64312744140625,0.073974609375,-0.22857666015625,-1455,-4330,1006,-84,-40,203
225984312,-0.71527099609375,0.6507568359375,0.0660400390625,-0.2459716796875,-1817,-5032,1180,-84,-37,155
225994298,-0.705078125,0.65753173828125,0.06231689453125,-0.2581787109375,-2344,-5832,1355,-82,-35,95
226004280,-0.6968994140625,0.66339111328125,0.063232421875,-0.26513671875,-2924,-6553,1417,-79,-36,33
226014265,-0.69061279296875,0.66839599609375,0.06866455078125,-0.26751708984375,-3401,-7223,1422,-74,-38,-22
226024242,-0.68621826171875,0.67236328125,0.07794189453125,-0.26629638671875,-3732,-7881,1450,-69,-41,-65
226034234,-0.68341064453125,0.67510986328125,0.09027099609375,-0.26263427734375,-3843,-8557,1551,-62,-47,-95
226044220,-0.68182373046875,0.67657470703125,0.1044921875,-0.25775146484375,-3791,-9218,1670,-54,-52,-111
226054205,-0.680908203125,0.6768798828125,0.1192626953125,-0.2530517578125,-3740,-9884,1647,-45,-58,-110
226064192,-0.67999267578125,0.67633056640625,0.1334228515625,-0.249755859375,-3654,-10443,1481,-35,-65,-99
226074175,-0.6790771484375,0.67510986328125,0.14666748046875,-0.2481689453125,-3436,-10893,1314,-26,-71,-84
226084163,-0.67840576171875,0.6729736328125,0.1591796875,-0.24810791015625,-3077,-11213,1218,-17,-76,-72
226094138,-0.67803955078125,0.66998291015625,0.17095947265625,-0.249267578125,-2637,-11408,1158,-8,-80,-62
226104118,-0.677978515625,0.66632080078125,0.18212890625,-0.25146484375,-2148,-11474,1103,0,-83,-52
226114097,-0.67803955078125,0.66204833984375,0.19256591796875,-0.254638671875,-1659,-11505,1016,7,-85,-41
226124079,-0.67803955078125,0.65753173828125,0.20184326171875,-0.25921630859375,-1186,-11545,892,14,-86,-26
226134064,-0.67791748046875,0.65283203125,0.20947265625,-0.26531982421875,-732,-11650,843,21,-86,-6
226144051,-0.6776123046875,0.6480712890625,0.215087890625,-0.273193359375,-261,-11798,844,27,-84,17
226154029,-0.67724609375,0.6431884765625,0.21881103515625,-0.282470703125,193,-11918,873,34,-81,37
226164010,-0.6768798828125,0.63824462890625,0.220703125,-0.29290771484375,530,-11989,930,41,-77,51
226173996,-0.67669677734375,0.63311767578125,0.22113037109375,-0.30401611328125,729,-11976,976,48,-71,62
226183984,-0.6766357421875,0.62774658203125,0.22021484375,-0.31549072265625,795,-11865,1012,54,-67,68
226193960,-0.67694091796875,0.62213134765625,0.218505859375,-0.32708740234375,811,-11640,1025,60,-63,70
226203943,-0.6776123046875,0.61614990234375,0.21624755859375,-0.33837890625,789,-11329,1054,66,-59,69
226213925,-0.6787109375,0.60968017578125,0.21368408203125,-0.34930419921875,691,-10986,1058,71,-56,65
226223908,-0.68023681640625,0.60284423828125,0.21099853515625,-0.35968017578125,544,-10614,1005,75,-53,59
226233892,-0.68218994140625,0.595703125,0.2083740234375,-0.36932373046875,394,-10204,922,78,-50,51
226243877,-0.68475341796875,0.58807373046875,0.20623779296875,-0.37786865234375,281,-9747,886,81,-48,39
226253862,-0.68804931640625,0.5799560546875,0.2047119140625,-0.38507080078125,193,-9256,889,83,-45,25
226263848,-0.6922607421875,0.57135009765625,0.20391845703125,-0.39080810546875,156,-8750,904,85,-42,9
226273830,-0.69732666015625,0.56231689453125,0.20391845703125,-0.39495849609375,169,-8282,929,86,-39,-7
226283808,-0.70318603515625,0.5528564453125,0.2044677734375,-0.3975830078125,199,-7840,967,87,-35,-21
226293790,-0.7095947265625,0.54327392578125,0.2054443359375,-0.39892578125,220,-7444,987,87,-31,-32
226303774,-0.71630859375,0.53369140625,0.2066650390625,-0.39923095703125,250,-7047,1013,86,-27,-40
226313766,-0.7232666015625,0.524169921875,0.20806884765625,-0.3985595703125,330,-6629,1031,83,-23,-47
226323749,-0.7303466796875,0.51483154296875,0.20977783203125,-0.39691162109375,473,-6198,1083,80,-19,-54
226333731,-0.73760986328125,0.50567626953125,0.211669921875,-0.394287109375,644,-5788,1139,76,-15,-59
226343709,-0.744873046875,0.49676513671875,0.21380615234375,-0.39080810546875,869,-5418,1218,72,-11,-65
226353693,-0.7520751953125,0.48828125,0.216064453125,-0.38641357421875,1094,-5140,1311,67,-7,-69
226363674,-0.75909423828125,0.480224609375,0.21844482421875,-0.38140869140625,1317,-4926,1428,61,-4,-71
226373657,-0.765869140625,0.47271728515625,0.2208251953125,-0.3758544921875,1521,-4761,1545,55,0,-72
226383640,-0.772216796875,0.4659423828125,0.22314453125,-0.36981201171875,1707,-4604,1670,48,4,-71
226393624,-0.7781982421875,0.45989990234375,0.22528076171875,-0.36358642578125,1883,-4450,1804,41,7,-69
226403608,-0.7835693359375,0.4547119140625,0.22723388671875,-0.35723876953125,2024,-4303,1925,34,11,-65
226413590,-0.788330078125,0.450439453125,0.2288818359375,-0.35101318359375,2136,-4191,2061,26,13,-59
226423571,-0.79241943359375,0.44720458984375,0.2301025390625,-0.34521484375,2199,-4175,2208,18,16,-51
226433553,-0.795654296875,0.445068359375,0.23065185546875,-0.340087890625,2194,-4236,2321,11,19,-39
226443542,-0.7978515625,0.44427490234375,0.23046875,-0.33599853515625,2159,-4353,2413,4,22,-25
226453515,-0.79925537109375,0.4447021484375,0.2294921875,-0.33294677734375,2101,-4476,2509,-3,25,-11
226463501,-0.7998046875,0.4461669921875,0.227783203125,-0.33074951171875,2019,-4566,2570,-9,27,1
226473478,-0.79974365234375,0.44866943359375,0.2255859375,-0.3291015625,1898,-4624,2608,-16,30,7
226483461,-0.7991943359375,0.45196533203125,0.22314453125,-0.3275146484375,1747,-4643,2629,-22,32,9
226493449,-0.7984619140625,0.45587158203125,0.220703125,-0.32550048828125,1557,-4676,2621,-28,34,7
226503434,-0.7974853515625,0.46038818359375,0.2186279296875,-0.3228759765625,1363,-4739,2628,-34,35,1
226513417,-0.7965087890625,0.46533203125,0.21697998046875,-0.31939697265625,1158,-4878,2645,-40,36,-5
226523399,-0.79534912109375,0.470703125,0.2156982421875,-0.31512451171875,956,-5092,2658,-44,36,-12
226533374,-0.794189453125,0.47637939453125,0.21502685546875,-0.30999755859375,773,-5358,2649,-49,36,-20
226543361,-0.79296875,0.4822998046875,0.21502685546875,-0.30401611328125,606,-5603,2636,-54,36,-29
226553343,-0.79168701171875,0.48834228515625,0.2156982421875,-0.29705810546875,458,-5846,2617,-58,35,-38
226563327,-0.7904052734375,0.4945068359375,0.2171630859375,-0.2891845703125,330,-6082,2579,-62,33,-47
226573309,-0.7889404296875,0.50067138671875,0.219482421875,-0.28057861328125,229,-6328,2537,-66,31,-55
226583293,-0.787353515625,0.50689697265625,0.222412109375,-0.271484375,141,-6629,2495,-68,27,-59
226593276,-0.78533935546875,0.51318359375,0.22589111328125,-0.262451171875,87,-6990,2465,-71,24,-60
226603262,-0.78302001953125,0.51947021484375,0.22967529296875,-0.2535400390625,66,-7385,2448,-73,20,-60
226613245,-0.7803955078125,0.5257568359375,0.23370361328125,-0.244873046875,115,-7743,2436,-74,17,-59
226623237,-0.777587890625,0.53179931640625,0.238037109375,-0.236328125,226,-8064,2448,-74,14,-59
226633219,-0.774658203125,0.53765869140625,0.24267578125,-0.22796630859375,367,-8345,2460,-74,11,-59
226643205,-0.7716064453125,0.54327392578125,0.24749755859375,-0.21978759765625,520,-8633,2443,-73,8,-59
226653192,-0.76837158203125,0.54864501953125,0.25238037109375,-0.21185302734375,688,-8931,2415,-72,6,-56
226663175,-0.7650146484375,0.55389404296875,0.2572021484375,-0.2044677734375,834,-9256,2349,-70,4,-53
226673158,-0.76153564453125,0.55902099609375,0.26177978515625,-0.1976318359375,985,-9539,2290,-68,3,-48
226683128,-0.75811767578125,0.5638427734375,0.26605224609375,-0.1912841796875,1153,-9753,2246,-65,2,-45
226693113,-0.7548828125,0.56829833984375,0.27008056640625,-0.18524169921875,1312,-9887,2214,-61,2,-43
226703095,-0.7518310546875,0.572265625,0.27398681640625,-0.17938232421875,1464,-9968,2187,-57,2,-43
226713077,-0.74908447265625,0.57574462890625,0.27789306640625,-0.173583984375,1597,-10013,2136,-53,1,-44
226723061,-0.7467041015625,0.57867431640625,0.28179931640625,-0.16778564453125,1692,-10036,2070,-48,1,-46
226733042,-0.7445068359375,0.58123779296875,0.28546142578125,-0.16229248046875,1765,-10041,1998,-43,1,-44
226743024,-0.7425537109375,0.58343505859375,0.2889404296875,-0.15728759765625,1834,-10021,1875,-38,0,-41
226753009,-0.74072265625,0.5853271484375,0.2921142578125,-0.15283203125,1927,-9977,1734,-34,-1,-36
226762994,-0.7391357421875,0.58697509765625,0.2947998046875,-0.149169921875,2016,-9911,1610,-29,-1,-30
226772977,-0.73779296875,0.58837890625,0.29693603515625,-0.14617919921875,2111,-9811,1476,-23,-1,-24
226782959,-0.73663330078125,0.58953857421875,0.298583984375,-0.14385986328125,2190,-9677,1352,-18,0,-18
226792939,-0.73583984375,0.59039306640625,0.29974365234375,-0.14208984375,2261,-9517,1255,-13,0,-14
226802921,-0.73529052734375,0.59088134765625,0.3006591796875,-0.14068603515625,2318,-9313,1163,-9,0,-11
226812903,-0.73504638671875,0.59112548828125,0.30126953125,-0.1396484375,2369,-9115,1056,-5,1,-8
226822883,-0.73504638671875,0.5911865234375,0.301513671875,-0.13885498046875,2407,-8934,946,-1,2,-6
226832877,-0.7352294921875,0.59112548828125,0.301513671875,-0.13836669921875,2441,-8762,834,2,3,-3
226842850,-0.735595703125,0.5908203125,0.3011474609375,-0.1380615234375,2489,-8597,757,5,4,-1
226852839,-0.7362060546875,0.5904541015625,0.30059814453125,-0.13787841796875,2551,-8437,666,8,6,1
226862818,-0.7369384765625,0.58990478515625,0.2998046875,-0.13787841796875,2600,-8302,604,10,7,3
226872802,-0.73785400390625,0.58935546875,0.2987060546875,-0.1380615234375,2618,-8191,521,12,8,5
226882785,-0.73883056640625,0.5887451171875,0.29736328125,-0.13836669921875,2615,-8098,451,14,9,7
226892774,-0.7398681640625,0.58807373046875,0.29571533203125,-0.138916015625,2592,-7984,390,15,10,10
226902757,-0.740966796875,0.58740234375,0.29388427734375,-0.1396484375,2555,-7874,324,16,10,12
226912740,-0.7420654296875,0.5867919921875,0.2918701171875,-0.140625,2531,-7772,280,17,10,14
226922716,-0.7431640625,0.586181640625,0.28973388671875,-0.141845703125,2504,-7705,258,18,10,16
226932699,-0.7442626953125,0.58563232421875,0.287353515625,-0.14324951171875,2462,-7664,251,18,10,19
226942684,-0.745361328125,0.5850830078125,0.2847900390625,-0.14501953125,2402,-7643,255,19,9,22
226952666,-0.74639892578125,0.58453369140625,0.28204345703125,-0.14715576171875,2346,-7642,277,19,9,25
226962649,-0.74737548828125,0.5841064453125,0.27911376953125,-0.14959716796875,2295,-7636,296,20,8,28
226972635,-0.74822998046875,0.58367919921875,0.27606201171875,-0.15240478515625,2231,-7625,328,20,7,31
226982615,-0.7490234375,0.58331298828125,0.27301025390625,-0.155517578125,2155,-7615,348,20,5,33
226992601,-0.74969482421875,0.5830078125,0.2698974609375,-0.15887451171875,2073,-7632,378,19,4,34
227002581,-0.750244140625,0.58270263671875,0.26690673828125,-0.16241455078125,2028,-7636,436,19,2,35
227012563,-0.750732421875,0.58233642578125,0.26397705078125,-0.16607666015625,1961,-7659,500,19,1,35
227022546,-0.7510986328125,0.58209228515625,0.2611083984375,-0.169921875,1879,-7659,570,18,-1,36
227032526,-0.75128173828125,0.5819091796875,0.25836181640625,-0.1739501953125,1798,-7671,642,17,-2,38
227042508,-0.75128173828125,0.581787109375,0.255615234375,-0.17822265625,1706,-7651,719,15,-4,39
227052492,-0.7510986328125,0.581787109375,0.25299072265625,-0.1826171875,1600,-7633,789,13,-6,40
227062475,-0.7506103515625,0.58203125,0.2506103515625,-0.1871337890625,1491,-7607,851,10,-8,39
227072459,-0.74993896484375,0.5823974609375,0.24853515625,-0.1915283203125,1395,-7550,956,7,-10,38
227082437,-0.7491455078125,0.582763671875,0.246826171875,-0.19561767578125,1340,-7481,1082,4,-11,34
