subject,Two-hands and jerked
arm,neither
label,0
hz,100.1709546348892
time,5.270989

timestamp_us,q0,q1,q2,q3,ax,ay,az,gx,gy,gz
273989956,-0.49505615234375,0.1640625,0.523193359375,-0.67401123046875,2343,-7249,3279,3,-10,5
273999940,-0.4940185546875,0.1634521484375,0.52337646484375,-0.6748046875,2345,-7258,3294,4,-10,6
274009922,-0.49298095703125,0.162841796875,0.5234375,-0.6756591796875,2349,-7260,3294,4,-10,6
274019904,-0.49200439453125,0.16217041015625,0.5234375,-0.676513671875,2341,-7273,3307,5,-10,5
274029890,-0.4912109375,0.161376953125,0.5234375,-0.67730712890625,2334,-7282,3302,5,-10,3
274039871,-0.490478515625,0.16046142578125,0.5234375,-0.677978515625,2309,-7306,3307,6,-10,1
274049854,-0.48992919921875,0.159423828125,0.5234375,-0.67864990234375,2289,-7327,3309,6,-10,0
274059837,-0.4893798828125,0.15838623046875,0.52337646484375,-0.67938232421875,2282,-7345,3293,7,-10,0
274069821,-0.48876953125,0.1573486328125,0.5233154296875,-0.68011474609375,2289,-7366,3288,7,-10,1
274079802,-0.488037109375,0.1563720703125,0.5230712890625,-0.68096923828125,2295,-7372,3278,8,-10,3
274089787,-0.4871826171875,0.15545654296875,0.52276611328125,-0.68206787109375,2284,-7375,3269,9,-9,5
274099766,-0.48626708984375,0.15460205078125,0.52239990234375,-0.6832275390625,2289,-7376,3269,10,-10,5
274109758,-0.4853515625,0.1536865234375,0.52191162109375,-0.68438720703125,2295,-7403,3276,11,-9,5
274119740,-0.4844970703125,0.15277099609375,0.5213623046875,-0.6856689453125,2294,-7392,3288,11,-9,5
274129718,-0.483642578125,0.15185546875,0.520751953125,-0.68695068359375,2279,-7387,3280,12,-9,6
274139700,-0.482666015625,0.1510009765625,0.52001953125,-0.6883544921875,2245,-7361,3270,13,-9,7
274149684,-0.48162841796875,0.15020751953125,0.51922607421875,-0.68988037109375,2185,-7321,3256,14,-9,8
274159666,-0.48052978515625,0.1494140625,0.518310546875,-0.69146728515625,2136,-7241,3252,14,-9,9
274169651,-0.47930908203125,0.14862060546875,0.51739501953125,-0.69317626953125,2081,-7194,3256,14,-9,9
274179635,-0.47821044921875,0.14776611328125,0.5164794921875,-0.69482421875,2042,-7148,3259,14,-9,8
274189616,-0.47723388671875,0.14678955078125,0.51556396484375,-0.69635009765625,2022,-7117,3259,15,-9,6
274199599,-0.4764404296875,0.14556884765625,0.5147705078125,-0.69775390625,2011,-7081,3262,15,-10,4
274209581,-0.4757080078125,0.14422607421875,0.5140380859375,-0.6990966796875,2002,-7017,3267,14,-10,3
274219564,-0.47491455078125,0.1429443359375,0.51324462890625,-0.700439453125,1994,-6939,3263,14,-10,4
274229549,-0.4739990234375,0.1417236328125,0.512451171875,-0.701904296875,1984,-6848,3269,14,-11,5
274239530,-0.4730224609375,0.14044189453125,0.5115966796875,-0.70343017578125,1983,-6747,3281,14,-11,6
274249514,-0.4720458984375,0.13909912109375,0.51092529296875,-0.70489501953125,1997,-6665,3293,14,-12,5
274259495,-0.47119140625,0.13763427734375,0.51025390625,-0.7061767578125,2009,-6586,3289,13,-12,3
274269479,-0.47052001953125,0.135986328125,0.509765625,-0.707275390625,2010,-6501,3297,12,-12,1
274279462,-0.47003173828125,0.13421630859375,0.50933837890625,-0.708251953125,2020,-6405,3324,12,-12,-2
274289439,-0.46966552734375,0.1324462890625,0.509033203125,-0.7091064453125,2019,-6285,3308,11,-13,-2
274299434,-0.46929931640625,0.130615234375,0.5087890625,-0.7098388671875,2024,-6166,3306,10,-13,-3
274309418,-0.46893310546875,0.1287841796875,0.50872802734375,-0.71044921875,2017,-6059,3298,8,-13,-4
274319402,-0.46868896484375,0.12689208984375,0.50885009765625,-0.71087646484375,2021,-5961,3296,7,-14,-6
274329378,-0.46856689453125,0.1248779296875,0.5091552734375,-0.7110595703125,2011,-5853,3284,5,-15,-8
274339360,-0.46856689453125,0.122802734375,0.50970458984375,-0.71099853515625,1988,-5748,3293,2,-15,-10
274349342,-0.46868896484375,0.12060546875,0.51055908203125,-0.71075439453125,2015,-5654,3301,0,-16,-13
274359326,-0.46905517578125,0.1182861328125,0.51171875,-0.7100830078125,2003,-5596,3280,-2,-17,-17
274369308,-0.46942138671875,0.115966796875,0.51312255859375,-0.70916748046875,2014,-5551,3282,-5,-18,-18
274379293,-0.46966552734375,0.11370849609375,0.514892578125,-0.70806884765625,2124,-5556,3263,-8,-19,-16
274389273,-0.4696044921875,0.11163330078125,0.51690673828125,-0.70703125,2261,-5535,3249,-10,-19,-12
274399259,-0.46905517578125,0.10992431640625,0.51910400390625,-0.7060546875,2469,-5445,3236,-13,-20,-7
274409238,-0.46820068359375,0.10845947265625,0.5213623046875,-0.70513916015625,2686,-5214,3289,-15,-19,-2
274419233,-0.46710205078125,0.10736083984375,0.523681640625,-0.704345703125,2822,-5008,3382,-19,-19,2
274429214,-0.46588134765625,0.106689453125,0.526123046875,-0.70343017578125,2902,-4799,3502,-23,-17,2
274439193,-0.46490478515625,0.1063232421875,0.52862548828125,-0.7022705078125,2954,-4621,3680,-27,-15,1
274449187,-0.4642333984375,0.10614013671875,0.53118896484375,-0.70074462890625,3003,-4501,3914,-31,-13,-1
274459166,-0.46380615234375,0.1063232421875,0.53399658203125,-0.69891357421875,2968,-4481,4123,-35,-11,-3
274469141,-0.46343994140625,0.10693359375,0.53692626953125,-0.69677734375,2830,-4539,4276,-39,-10,-4
274479119,-0.46295166015625,0.1080322265625,0.5401611328125,-0.69439697265625,2636,-4644,4383,-42,-9,-3
274489103,-0.46240234375,0.109375,0.5435791015625,-0.69195556640625,2426,-4689,4548,-46,-10,-4
274499086,-0.4619140625,0.11090087890625,0.54705810546875,-0.68927001953125,2228,-4668,4788,-50,-10,-5
274509069,-0.461669921875,0.1123046875,0.55084228515625,-0.68621826171875,2135,-4759,5002,-54,-11,-10
274519052,-0.461669921875,0.1134033203125,0.55517578125,-0.6824951171875,2101,-5054,5104,-57,-13,-16
274529035,-0.4619140625,0.11419677734375,0.55999755859375,-0.67822265625,2097,-5636,5060,-59,-14,-22
274539019,-0.4620361328125,0.11480712890625,0.5653076171875,-0.67364501953125,2157,-6453,4863,-57,-16,-25
274549003,-0.4619140625,0.115234375,0.57061767578125,-0.669189453125,2346,-7368,4533,-52,-17,-24
274558993,-0.46160888671875,0.1153564453125,0.57574462890625,-0.66497802734375,2710,-8301,4146,-46,-18,-23
274568974,-0.46124267578125,0.114990234375,0.58062744140625,-0.6610107421875,3217,-9247,3698,-39,-18,-23
274578951,-0.46099853515625,0.1142578125,0.58514404296875,-0.65728759765625,3732,-10162,3222,-31,-16,-23
274588934,-0.4608154296875,0.11346435546875,0.58917236328125,-0.65399169921875,4189,-11058,2716,-25,-14,-20
274598917,-0.4599609375,0.11328125,0.5927734375,-0.65130615234375,4587,-12009,2109,-19,-11,-10
274608906,-0.458251953125,0.114013671875,0.595947265625,-0.6495361328125,4910,-13008,1441,-13,-9,2
274618886,-0.4554443359375,0.11572265625,0.59869384765625,-0.648681640625,5213,-13903,737,-7,-7,15
274628867,-0.451904296875,0.11810302734375,0.6009521484375,-0.64862060546875,5475,-14561,45,-2,-5,27
274638852,-0.44769287109375,0.1209716796875,0.6026611328125,-0.6494140625,5559,-15045,-559,4,-3,35
274648830,-0.4429931640625,0.12451171875,0.60357666015625,-0.651123046875,5367,-15400,-1017,11,-2,44
274658814,-0.43743896484375,0.12872314453125,0.60357666015625,-0.654052734375,5020,-15632,-1310,18,-1,55
274668798,-0.4310302734375,0.13348388671875,0.60260009765625,-0.65826416015625,4624,-15546,-1456,26,-1,69
274678784,-0.4237060546875,0.138671875,0.6005859375,-0.66375732421875,4174,-15136,-1463,33,-2,81
274688770,-0.41571044921875,0.14404296875,0.59759521484375,-0.6702880859375,3715,-14483,-1372,39,-4,91
274698758,-0.40728759765625,0.14923095703125,0.5938720703125,-0.67767333984375,3295,-13750,-1158,45,-7,96
274708741,-0.3985595703125,0.154052734375,0.5894775390625,-0.685546875,2845,-12969,-883,49,-10,99
274718719,-0.3895263671875,0.158447265625,0.58453369140625,-0.69390869140625,2372,-12093,-585,53,-14,100
274728701,-0.38031005859375,0.1622314453125,0.57928466796875,-0.7025146484375,1933,-11127,-283,55,-18,99
274738684,-0.3712158203125,0.1651611328125,0.57373046875,-0.711181640625,1555,-10070,18,58,-22,96
274748668,-0.3624267578125,0.1671142578125,0.5679931640625,-0.71978759765625,1216,-8954,326,60,-26,88
274758652,-0.3544921875,0.16790771484375,0.56219482421875,-0.72808837890625,970,-7777,661,61,-28,78
274768635,-0.34759521484375,0.16748046875,0.5562744140625,-0.73602294921875,891,-6524,1078,61,-30,66
274778619,-0.342041015625,0.165771484375,0.55023193359375,-0.74346923828125,959,-5255,1542,61,-29,54
274788603,-0.33782958984375,0.1630859375,0.54425048828125,-0.75042724609375,1097,-4103,2010,59,-27,42
274798584,-0.3348388671875,0.1597900390625,0.5382080078125,-0.75677490234375,1275,-3088,2446,58,-24,32
274808568,-0.33294677734375,0.15625,0.5321044921875,-0.76263427734375,1432,-2187,2881,56,-20,24
274818551,-0.3321533203125,0.152587890625,0.52593994140625,-0.76800537109375,1550,-1367,3331,54,-15,16
274828534,-0.332275390625,0.14886474609375,0.51953125,-0.77301025390625,1638,-580,3809,52,-10,10
274838518,-0.33331298828125,0.145263671875,0.51300048828125,-0.777587890625,1740,159,4309,49,-5,5
274848499,-0.33514404296875,0.14178466796875,0.50640869140625,-0.78173828125,1838,867,4844,44,0,0
274858477,-0.3375244140625,0.138671875,0.49993896484375,-0.78546142578125,1852,1492,5369,38,4,-3
274868459,-0.340087890625,0.1361083984375,0.49371337890625,-0.78875732421875,1704,2023,5854,31,7,-4
274878438,-0.342529296875,0.13427734375,0.4879150390625,-0.79156494140625,1465,2412,6271,23,10,-4
274888428,-0.3446044921875,0.1331787109375,0.48272705078125,-0.7940673828125,1184,2690,6622,14,10,-1
274898417,-0.34625244140625,0.1326904296875,0.478271484375,-0.79608154296875,952,2886,6905,5,10,1
274908396,-0.34765625,0.132568359375,0.4747314453125,-0.79766845703125,831,2999,7146,-4,10,1
274918370,-0.34918212890625,0.13250732421875,0.47210693359375,-0.79852294921875,824,3029,7306,-13,9,-3
274928352,-0.35101318359375,0.1324462890625,0.47064208984375,-0.798583984375,920,2921,7341,-22,9,-8
274938333,-0.35333251953125,0.132568359375,0.470458984375,-0.79766845703125,1059,2644,7182,-31,11,-14
274948317,-0.35614013671875,0.133056640625,0.47149658203125,-0.79571533203125,1194,2216,6885,-40,13,-20
274958300,-0.35943603515625,0.13397216796875,0.4737548828125,-0.792724609375,1350,1570,6456,-47,16,-25
274968283,-0.36346435546875,0.1351318359375,0.477294921875,-0.78857421875,1592,636,5870,-55,19,-36
274978267,-0.36962890625,0.1357421875,0.48248291015625,-0.78240966796875,1970,-606,5082,-61,24,-62
274988256,-0.379150390625,0.13519287109375,0.4892578125,-0.77374267578125,2324,-2127,4201,-65,29,-100
274998239,-0.39190673828125,0.13348388671875,0.4971923828125,-0.76251220703125,2652,-4079,3184,-66,35,-133
275008222,-0.40631103515625,0.1314697265625,0.50628662109375,-0.749267578125,3071,-6524,1982,-66,39,-151
275018206,-0.42095947265625,0.12957763671875,0.515869140625,-0.73480224609375,3636,-9104,723,-64,44,-154
275028188,-0.43487548828125,0.128173828125,0.5252685546875,-0.7200927734375,4219,-11035,-558,-59,47,-145
275038183,-0.44677734375,0.12799072265625,0.53369140625,-0.70660400390625,4716,-12454,-1777,-51,48,-119
275048164,-0.4549560546875,0.1297607421875,0.54071044921875,-0.69561767578125,5170,-13496,-2829,-40,47,-74
275058141,-0.45831298828125,0.13427734375,0.5458984375,-0.68841552734375,5478,-14262,-3601,-28,44,-14
275068121,-0.45660400390625,0.141845703125,0.54901123046875,-0.68560791015625,5488,-14825,-4095,-15,40,43
275078103,-0.451171875,0.15142822265625,0.54986572265625,-0.6864013671875,5120,-15239,-4269,0,37,80
275088084,-0.4444580078125,0.1611328125,0.5487060546875,-0.68951416015625,4511,-15543,-4085,18,33,89
275098068,-0.4383544921875,0.1693115234375,0.54559326171875,-0.69390869140625,3792,-15766,-3498,36,29,80
275108053,-0.43341064453125,0.17535400390625,0.54071044921875,-0.69927978515625,3063,-15633,-2591,52,23,68
275118034,-0.4296875,0.17913818359375,0.53424072265625,-0.70562744140625,2433,-14669,-1518,66,18,59
275128017,-0.427001953125,0.18072509765625,0.5263671875,-0.71270751953125,1912,-13182,-388,77,12,50
275138001,-0.42523193359375,0.18048095703125,0.51763916015625,-0.72021484375,1488,-11494,659,83,7,41
275147991,-0.4241943359375,0.17877197265625,0.5084228515625,-0.727783203125,1156,-9748,1528,87,3,33
275157967,-0.423828125,0.17584228515625,0.4990234375,-0.73516845703125,920,-8035,2289,89,-1,26
275167946,-0.423828125,0.17218017578125,0.489501953125,-0.74237060546875,700,-6364,2978,87,-4,21
275177931,-0.42388916015625,0.1680908203125,0.4801025390625,-0.7493896484375,470,-4823,3586,83,-6,20
275187917,-0.423583984375,0.16412353515625,0.47088623046875,-0.75628662109375,176,-3415,4117,77,-8,21
275197898,-0.4228515625,0.160400390625,0.4619140625,-0.762939453125,-141,-2134,4630,70,-10,23
275207882,-0.42181396484375,0.15673828125,0.4534912109375,-0.76934814453125,-386,-969,5108,62,-13,23
275217865,-0.4208984375,0.1529541015625,0.44573974609375,-0.775146484375,-529,122,5601,53,-15,18
275227846,-0.42047119140625,0.1488037109375,0.438720703125,-0.7801513671875,-593,1159,6098,43,-16,11
275237829,-0.4205322265625,0.1444091796875,0.4326171875,-0.7843017578125,-682,2097,6557,32,-19,3
275247811,-0.4208984375,0.1400146484375,0.42755126953125,-0.7877197265625,-727,2900,6926,21,-21,-2
275257791,-0.421142578125,0.1357421875,0.4237060546875,-0.7904052734375,-735,3596,7186,9,-24,-3
275267768,-0.421142578125,0.13165283203125,0.421142578125,-0.79248046875,-651,4170,7342,-3,-27,-3
275277758,-0.42095947265625,0.12786865234375,0.4200439453125,-0.79376220703125,-486,4553,7371,-16,-29,-5
275287741,-0.42083740234375,0.12432861328125,0.42041015625,-0.794189453125,-210,4726,7291,-27,-30,-8
275297718,-0.42108154296875,0.120849609375,0.42242431640625,-0.79351806640625,157,4701,7110,-39,-31,-14
275307702,-0.422119140625,0.117431640625,0.42596435546875,-0.79156494140625,580,4446,6822,-49,-30,-25
275317684,-0.4244384765625,0.11407470703125,0.4310302734375,-0.7880859375,967,4003,6463,-59,-27,-40
275327668,-0.4281005859375,0.11083984375,0.43743896484375,-0.7830810546875,1369,3389,6023,-68,-24,-54
275337650,-0.43304443359375,0.10772705078125,0.445068359375,-0.77642822265625,1799,2581,5496,-76,-20,-68
275347635,-0.43896484375,0.10504150390625,0.45391845703125,-0.768310546875,2227,1449,4878,-83,-15,-78
275357617,-0.44549560546875,0.10296630859375,0.46392822265625,-0.7587890625,2647,-35,4185,-89,-11,-86
275367599,-0.45220947265625,0.1016845703125,0.474853515625,-0.7481689453125,3041,-1809,3470,-94,-7,-89
275377585,-0.45831298828125,0.10137939453125,0.48651123046875,-0.73687744140625,3464,-3748,2720,-98,-4,-85
275387570,-0.46337890625,0.10223388671875,0.4986572265625,-0.72540283203125,3895,-5689,1938,-99,-2,-74
275397559,-0.46685791015625,0.104248046875,0.5108642578125,-0.71429443359375,4267,-7527,1117,-99,0,-59
275407542,-0.46856689453125,0.10760498046875,0.52301025390625,-0.70379638671875,4526,-9306,302,-99,0,-43
275417520,-0.46844482421875,0.11224365234375,0.5350341796875,-0.69403076171875,4714,-11002,-519,-96,0,-27
275427505,-0.4669189453125,0.1175537109375,0.54681396484375,-0.68499755859375,4867,-12430,-1313,-92,-2,-16
275437485,-0.46441650390625,0.1231689453125,0.5579833984375,-0.6766357421875,5018,-13479,-1948,-87,-2,-6
275447473,-0.4613037109375,0.12884521484375,0.56817626953125,-0.669189453125,5124,-14249,-2343,-80,-2,3
275457450,-0.45751953125,0.13482666015625,0.5770263671875,-0.6629638671875,5153,-14775,-2502,-71,-1,14
275467437,-0.45306396484375,0.14111328125,0.58441162109375,-0.6583251953125,5057,-15039,-2472,-61,0,27
275477425,-0.447998046875,0.14764404296875,0.5902099609375,-0.65509033203125,4801,-15064,-2352,-50,0,37
275487407,-0.4427490234375,0.154052734375,0.5946044921875,-0.65325927734375,4387,-14839,-2129,-39,0,41
275497391,-0.437744140625,0.15972900390625,0.5977783203125,-0.65234375,3850,-14381,-1795,-29,-1,38
275507365,-0.4334716796875,0.164306640625,0.5999755859375,-0.65203857421875,3261,-13700,-1361,-20,-3,31
275517350,-0.4300537109375,0.16741943359375,0.601318359375,-0.6522216796875,2719,-12865,-837,-12,-5,22
275527330,-0.42742919921875,0.1693115234375,0.60211181640625,-0.65277099609375,2258,-11948,-265,-5,-8,15
275537314,-0.42529296875,0.1700439453125,0.6024169921875,-0.6536865234375,1888,-11014,324,0,-11,10
275547296,-0.42340087890625,0.1700439453125,0.60235595703125,-0.655029296875,1545,-10101,920,3,-14,7
275557277,-0.4215087890625,0.16949462890625,0.60198974609375,-0.65667724609375,1251,-9255,1513,5,-17,7
275567266,-0.41937255859375,0.1688232421875,0.60137939453125,-0.6588134765625,951,-8482,2066,6,-20,10
275577241,-0.41680908203125,0.1683349609375,0.6007080078125,-0.6611328125,635,-7913,2580,4,-22,14
275587231,-0.41375732421875,0.168212890625,0.60003662109375,-0.66363525390625,262,-7552,3019,1,-22,17
275597215,-0.41033935546875,0.1685791015625,0.599609375,-0.66607666015625,-196,-7363,3348,-3,-23,18
275607193,-0.40679931640625,0.1693115234375,0.5994873046875,-0.668212890625,-708,-7288,3539,-7,-22,15
275617184,-0.4033203125,0.17034912109375,0.5997314453125,-0.6697998046875,-1214,-7312,3583,-11,-21,11
275627174,-0.400146484375,0.1715087890625,0.6004638671875,-0.6707763671875,-1611,-7408,3524,-16,-19,7
275637153,-0.3973388671875,0.17291259765625,0.60162353515625,-0.6710205078125,-1788,-7597,3354,-20,-16,3
275647128,-0.39501953125,0.17437744140625,0.603271484375,-0.6705322265625,-1768,-7886,3068,-24,-11,-1
275657106,-0.39312744140625,0.17620849609375,0.60528564453125,-0.66937255859375,-1659,-8270,2702,-26,-7,-2
275667094,-0.3912353515625,0.17852783203125,0.607421875,-0.66790771484375,-1569,-8663,2323,-27,-3,0
275677072,-0.38916015625,0.181396484375,0.609375,-0.66656494140625,-1592,-8986,1985,-27,-1,5
275687055,-0.3865966796875,0.184814453125,0.61102294921875,-0.6656494140625,-1695,-9273,1685,-24,-1,11
275697039,-0.3834228515625,0.18841552734375,0.6124267578125,-0.6651611328125,-1745,-9509,1378,-21,-3,16
275707022,-0.3798828125,0.191650390625,0.61383056640625,-0.66497802734375,-1683,-9657,1102,-18,-8,18
275717008,-0.3759765625,0.1942138671875,0.61529541015625,-0.66510009765625,-1509,-9696,902,-16,-13,19
275726996,-0.37152099609375,0.19610595703125,0.61676025390625,-0.66571044921875,-1248,-9583,783,-13,-21,23
275736982,-0.366455078125,0.197265625,0.61810302734375,-0.6668701171875,-802,-9274,781,-9,-29,29
275746958,-0.36077880859375,0.19757080078125,0.61932373046875,-0.66876220703125,-70,-8765,891,-5,-37,36
275756942,-0.354736328125,0.19677734375,0.6204833984375,-0.67120361328125,1099,-8103,1082,-3,-44,41
275766922,-0.34906005859375,0.1943359375,0.62188720703125,-0.673583984375,2592,-7410,1342,-2,-50,39
275776906,-0.34423828125,0.19024658203125,0.623779296875,-0.67547607421875,4221,-6817,1518,-2,-54,31
275786894,-0.34051513671875,0.18463134765625,0.62628173828125,-0.67657470703125,5927,-6296,1590,-3,-56,22
275796878,-0.33758544921875,0.17791748046875,0.6292724609375,-0.67706298828125,7603,-5752,1718,-5,-57,17
275806858,-0.33551025390625,0.1705322265625,0.63238525390625,-0.6771240234375,9201,-5220,1863,-6,-55,14
275816841,-0.334228515625,0.1627197265625,0.635498046875,-0.6767578125,10589,-4898,1849,-6,-51,11
275826823,-0.33380126953125,0.155029296875,0.63861083984375,-0.67584228515625,11635,-4843,1621,-4,-45,5
275836806,-0.33441162109375,0.1474609375,0.64154052734375,-0.6744384765625,12372,-4951,1284,-2,-36,-3
275846784,-0.33624267578125,0.1402587890625,0.64410400390625,-0.672607421875,12773,-5118,912,1,-26,-10
275856772,-0.339111328125,0.1336669921875,0.6461181640625,-0.6705322265625,12888,-5305,557,4,-15,-15
275866754,-0.34295654296875,0.12774658203125,0.64752197265625,-0.66845703125,12793,-5406,290,7,-5,-20
275876742,-0.34771728515625,0.12213134765625,0.6483154296875,-0.666259765625,12537,-5457,154,9,3,-25
275886715,-0.35321044921875,0.1170654296875,0.64849853515625,-0.66412353515625,12043,-5591,64,11,10,-29
275896698,-0.35870361328125,0.11279296875,0.64825439453125,-0.662109375,11265,-5837,-32,13,15,-29
275906679,-0.36376953125,0.1094970703125,0.64752197265625,-0.66058349609375,10213,-6161,-54,14,17,-27
275916663,-0.36810302734375,0.10711669921875,0.646484375,-0.65960693359375,8955,-6487,-28,16,17,-24
275926645,-0.3719482421875,0.10528564453125,0.64520263671875,-0.65899658203125,7569,-6770,59,16,17,-26
275936629,-0.37579345703125,0.10345458984375,0.6439208984375,-0.65838623046875,6127,-7017,185,14,15,-34
275946613,-0.38006591796875,0.101318359375,0.64276123046875,-0.65740966796875,4552,-7284,376,13,14,-46
275956596,-0.38446044921875,0.09906005859375,0.64166259765625,-0.65625,2789,-7644,639,10,12,-56
275966579,-0.3887939453125,0.096923828125,0.6407470703125,-0.6549072265625,969,-8114,982,7,10,-65
275976561,-0.39306640625,0.09478759765625,0.6400146484375,-0.65338134765625,-705,-8615,1341,3,7,-72
275986545,-0.397216796875,0.0927734375,0.63970947265625,-0.65142822265625,-2045,-9103,1642,-3,5,-76
275996526,-0.401123046875,0.0909423828125,0.639892578125,-0.64910888671875,-3015,-9553,1854,-8,4,-75
276006512,-0.4044189453125,0.08984375,0.64056396484375,-0.64654541015625,-3651,-9960,1910,-14,3,-66
276016493,-0.40643310546875,0.0902099609375,0.64166259765625,-0.6441650390625,-4099,-10387,1824,-19,4,-50
276026475,-0.4066162109375,0.09259033203125,0.64288330078125,-0.64251708984375,-4388,-10802,1650,-22,5,-27
276036457,-0.40484619140625,0.0970458984375,0.64404296875,-0.641845703125,-4506,-11165,1381,-23,6,-1
276046449,-0.4013671875,0.10333251953125,0.64501953125,-0.64202880859375,-4441,-11432,1071,-22,8,21
276056431,-0.39678955078125,0.11083984375,0.6456298828125,-0.64300537109375,-4282,-11569,726,-20,10,36
276066414,-0.3917236328125,0.11865234375,0.64599609375,-0.64434814453125,-4034,-11545,421,-17,10,43
276076397,-0.38665771484375,0.1260986328125,0.6461181640625,-0.6458740234375,-3693,-11354,188,-13,9,44
276086374,-0.38201904296875,0.13275146484375,0.64599609375,-0.64739990234375,-3208,-11021,53,-9,7,41
276096356,-0.3779296875,0.13824462890625,0.64569091796875,-0.64892578125,-2599,-10595,-6,-6,5,37
276106338,-0.37420654296875,0.14263916015625,0.6453857421875,-0.6505126953125,-1912,-10144,-36,-2,2,35
276116329,-0.3707275390625,0.1461181640625,0.64495849609375,-0.652099609375,-1142,-9645,-44,1,-2,34
276126306,-0.36737060546875,0.14874267578125,0.64459228515625,-0.65374755859375,-296,-9008,-16,3,-5,34
276136293,-0.36419677734375,0.150634765625,0.6441650390625,-0.655517578125,644,-8295,120,4,-8,35
276146272,-0.36126708984375,0.1517333984375,0.64373779296875,-0.65728759765625,1718,-7578,326,5,-10,35
276156256,-0.35870361328125,0.1522216796875,0.6434326171875,-0.658935546875,2815,-6944,511,4,-11,36
276166242,-0.3563232421875,0.15234375,0.64337158203125,-0.66021728515625,3784,-6487,529,2,-11,35
276176225,-0.3543701171875,0.15240478515625,0.6436767578125,-0.66094970703125,4525,-6181,430,0,-9,31
276186209,-0.35272216796875,0.15234375,0.64434814453125,-0.6612548828125,5045,-6001,276,-2,-8,25
276196195,-0.35186767578125,0.15191650390625,0.64520263671875,-0.660888671875,5440,-5877,116,-4,-6,16
276206180,-0.35205078125,0.15087890625,0.6463623046875,-0.659912109375,5796,-5757,18,-5,-4,6
276216166,-0.35321044921875,0.14910888671875,0.6478271484375,-0.6583251953125,6140,-5621,11,-8,-2,-4
276228995,-0.355224609375,0.14697265625,0.64947509765625,-0.65606689453125,6420,-5525,60,-11,0,-11
276236117,-0.357666015625,0.144775390625,0.65130615234375,-0.65338134765625,6597,-5521,191,-16,2,-14
276246100,-0.360107421875,0.14306640625,0.65313720703125,-0.650634765625,6669,-5560,402,-18,4,-12
276256084,-0.36236572265625,0.14208984375,0.65484619140625,-0.64788818359375,6628,-5596,867,-23,6,-9
276266066,-0.364501953125,0.14190673828125,0.65594482421875,-0.64556884765625,6604,-5706,1686,-26,10,-2
276276054,-0.36669921875,0.142578125,0.65643310546875,-0.64361572265625,6532,-5818,2659,-29,14,3
276286035,-0.36907958984375,0.14398193359375,0.65643310546875,-0.6419677734375,6375,-5942,3740,-32,18,5
276296017,-0.37176513671875,0.14581298828125,0.656005859375,-0.64044189453125,6024,-6077,4770,-34,21,4
276306003,-0.37445068359375,0.148193359375,0.6553955078125,-0.63897705078125,5377,-6220,5662,-37,23,3
276315995,-0.376953125,0.15087890625,0.65472412109375,-0.6375732421875,4536,-6441,6560,-39,21,-1
276325966,-0.37933349609375,0.15338134765625,0.65399169921875,-0.6363525390625,3711,-6714,7416,-41,18,-6
276335949,-0.38165283203125,0.1556396484375,0.65325927734375,-0.6351318359375,3037,-6991,8104,-41,15,-8
276345931,-0.38397216796875,0.157470703125,0.65264892578125,-0.6339111328125,2577,-7285,8575,-40,13,-11
276355914,-0.3863525390625,0.1590576171875,0.65203857421875,-0.6326904296875,2345,-7592,8757,-38,13,-12
276365899,-0.3890380859375,0.16033935546875,0.65142822265625,-0.63134765625,2321,-7970,8560,-33,15,-15
276375881,-0.3922119140625,0.16143798828125,0.65087890625,-0.62969970703125,2358,-8384,7993,-27,20,-18
276385863,-0.3956298828125,0.16290283203125,0.65008544921875,-0.62799072265625,2289,-8811,7103,-21,26,-17
276395846,-0.3988037109375,0.16522216796875,0.64874267578125,-0.62677001953125,2051,-9219,6014,-11,32,-11
276405830,-0.40118408203125,0.168701171875,0.646728515625,-0.6263427734375,1726,-9597,4697,-2,36,2
276415813,-0.4024658203125,0.17333984375,0.64422607421875,-0.6268310546875,1472,-9901,3249,8,38,16
276425796,-0.40301513671875,0.17864990234375,0.64141845703125,-0.6279296875,1362,-10113,1702,16,40,24
276435784,-0.40350341796875,0.1839599609375,0.63861083984375,-0.62890625,1296,-10218,92,22,42,23
276445769,-0.40472412109375,0.1885986328125,0.6361083984375,-0.62933349609375,1374,-10260,-1470,25,44,13
276455755,-0.406982421875,0.1922607421875,0.6341552734375,-0.62872314453125,1464,-10293,-3027,27,46,-1
276465736,-0.4102783203125,0.19488525390625,0.63299560546875,-0.62689208984375,1554,-10353,-4571,28,47,-16
276475712,-0.414306640625,0.19671630859375,0.63275146484375,-0.62396240234375,1621,-10452,-6011,26,46,-29
276485694,-0.41876220703125,0.19769287109375,0.6334228515625,-0.6199951171875,1695,-10482,-7244,22,43,-40
276495677,-0.42315673828125,0.19805908203125,0.6348876953125,-0.61529541015625,1790,-10469,-8234,17,38,-45
276505660,-0.42694091796875,0.19818115234375,0.63714599609375,-0.6103515625,1913,-10407,-8929,12,32,-43
276515642,-0.42950439453125,0.1986083984375,0.63983154296875,-0.6055908203125,1961,-10283,-9328,6,25,-33
276525624,-0.43017578125,0.20001220703125,0.64263916015625,-0.6016845703125,1977,-10064,-9479,2,18,-14
276535615,-0.42852783203125,0.20281982421875,0.645263671875,-0.59906005859375,1978,-9728,-9390,-2,10,11
276545590,-0.4248046875,0.206787109375,0.6475830078125,-0.5977783203125,1926,-9272,-9060,-4,3,32
276555573,-0.41961669921875,0.21148681640625,0.6495361328125,-0.5977783203125,1849,-8719,-8523,-5,-4,47
276565557,-0.41351318359375,0.2164306640625,0.651123046875,-0.5985107421875,1794,-8136,-7875,-6,-9,55
276575542,-0.406982421875,0.2210693359375,0.652587890625,-0.59967041015625,1732,-7609,-7211,-6,-14,57
276585523,-0.4005126953125,0.22515869140625,0.65411376953125,-0.60089111328125,1747,-7168,-6513,-7,-18,54
276595504,-0.39434814453125,0.2283935546875,0.6556396484375,-0.60205078125,1823,-6720,-5824,-7,-21,48
276605486,-0.3885498046875,0.23089599609375,0.6572265625,-0.60308837890625,1962,-6246,-5073,-8,-24,44
276615471,-0.38311767578125,0.23291015625,0.65869140625,-0.604248046875,2158,-5765,-4170,-9,-25,44
276625455,-0.3778076171875,0.234619140625,0.65985107421875,-0.605712890625,2347,-5282,-3068,-11,-26,45
276635434,-0.3724365234375,0.2362060546875,0.66058349609375,-0.6075439453125,2462,-4815,-1863,-13,-28,48
276645425,-0.36700439453125,0.23773193359375,0.6611328125,-0.6097412109375,2418,-4435,-691,-14,-30,48
276655408,-0.36163330078125,0.23876953125,0.66162109375,-0.61187744140625,2223,-4147,419,-17,-33,40
276665391,-0.3570556640625,0.23870849609375,0.66241455078125,-0.61383056640625,1987,-3888,1555,-18,-35,25
276675369,-0.3538818359375,0.23675537109375,0.66357421875,-0.61517333984375,1876,-3575,2793,-21,-38,4
276685350,-0.3526611328125,0.2325439453125,0.6651611328125,-0.61572265625,2063,-3230,4088,-23,-40,-19
276695329,-0.35345458984375,0.22601318359375,0.66729736328125,-0.61541748046875,2571,-2957,5341,-25,-40,-39
276705311,-0.3558349609375,0.21795654296875,0.66973876953125,-0.6142578125,3288,-2869,6364,-26,-40,-51
276715296,-0.35894775390625,0.20941162109375,0.67236328125,-0.61260986328125,4044,-3005,7042,-27,-38,-53
276725283,-0.36175537109375,0.20147705078125,0.6749267578125,-0.6107177734375,4761,-3324,7345,-29,-36,-44
276735265,-0.36370849609375,0.19500732421875,0.677490234375,-0.60882568359375,5276,-3835,7311,-31,-33,-32
276745244,-0.3648681640625,0.1900634765625,0.67999267578125,-0.60693359375,5482,-4500,7054,-33,-29,-23
276755235,-0.3653564453125,0.18634033203125,0.68255615234375,-0.60491943359375,5467,-5298,6571,-35,-26,-19
276765218,-0.36590576171875,0.18292236328125,0.68536376953125,-0.6024169921875,5413,-6250,5901,-35,-23,-25
276775206,-0.36737060546875,0.17901611328125,0.6885986328125,-0.59906005859375,5399,-7342,5147,-35,-19,-40
276785193,-0.37030029296875,0.17401123046875,0.692138671875,-0.5946044921875,5382,-8459,4335,-34,-15,-59
276795177,-0.3743896484375,0.16845703125,0.69580078125,-0.58935546875,5353,-9563,3457,-32,-9,-70
276805159,-0.3787841796875,0.163330078125,0.69921875,-0.5838623046875,5330,-10536,2574,-29,-3,-68
276815131,-0.3826904296875,0.15972900390625,0.7020263671875,-0.5789794921875,5163,-11332,1813,-26,4,-54
276825113,-0.38555908203125,0.158447265625,0.7037353515625,-0.5753173828125,4708,-11955,1238,-22,11,-34
276835097,-0.38726806640625,0.15960693359375,0.704345703125,-0.57305908203125,3953,-12441,801,-17,18,-14
276845084,-0.387939453125,0.1629638671875,0.703857421875,-0.57232666015625,2957,-12834,421,-11,24,2
276855062,-0.38787841796875,0.1678466796875,0.70245361328125,-0.57269287109375,1885,-13233,14,-5,28,11
276865043,-0.387939453125,0.17327880859375,0.70037841796875,-0.57354736328125,864,-13604,-441,2,34,10
276875025,-0.38873291015625,0.17864990234375,0.69775390625,-0.57452392578125,-71,-13879,-885,8,41,4
276885011,-0.39044189453125,0.18377685546875,0.694580078125,-0.57568359375,-865,-14050,-1301,15,47,-1
276894995,-0.39251708984375,0.1893310546875,0.69061279296875,-0.57720947265625,-1609,-14071,-1658,22,53,2
276904981,-0.39459228515625,0.195556640625,0.685791015625,-0.5794677734375,-2306,-13903,-1963,29,58,11
276914957,-0.39617919921875,0.2027587890625,0.67999267578125,-0.58270263671875,-2940,-13539,-2216,36,61,23
276924941,-0.39703369140625,0.2108154296875,0.67333984375,-0.58697509765625,-3512,-12960,-2437,42,61,36
276934925,-0.3970947265625,0.2193603515625,0.66607666015625,-0.592041015625,-4041,-12251,-2647,48,58,47
276944907,-0.39617919921875,0.2281494140625,0.65850830078125,-0.5977783203125,-4502,-11470,-2899,52,53,54
276954890,-0.3944091796875,0.23663330078125,0.651123046875,-0.603759765625,-4894,-10677,-3171,53,45,57
276964878,-0.39202880859375,0.2442626953125,0.6441650390625,-0.609619140625,-5178,-9869,-3427,52,36,54
276974859,-0.3892822265625,0.2506103515625,0.63824462890625,-0.61505126953125,-5324,-9088,-3662,49,24,45
276984842,-0.3863525390625,0.255126953125,0.6336669921875,-0.6197509765625,-5331,-8356,-3856,44,11,33
276994823,-0.38336181640625,0.2576904296875,0.63067626953125,-0.62353515625,-5122,-7674,-4003,37,-4,20
277004804,-0.380126953125,0.25836181640625,0.62939453125,-0.6265869140625,-4695,-7005,-4078,30,-18,10
277014787,-0.37640380859375,0.25750732421875,0.6295166015625,-0.6290283203125,-3940,-6347,-4063,22,-32,8
277024767,-0.37188720703125,0.25555419921875,0.6309814453125,-0.631103515625,-2883,-5711,-3946,13,-44,11
277034760,-0.366455078125,0.2528076171875,0.6334228515625,-0.63287353515625,-1546,-5114,-3716,5,-55,18
277044743,-0.35986328125,0.249755859375,0.63677978515625,-0.63458251953125,-68,-4573,-3426,-4,-64,29
277054718,-0.35174560546875,0.2469482421875,0.6407470703125,-0.63623046875,1481,-4135,-3126,-13,-72,45
277064700,-0.34210205078125,0.244873046875,0.6451416015625,-0.6378173828125,3074,-3826,-2894,-22,-77,63
277074687,-0.331298828125,0.2435302734375,0.6500244140625,-0.6390380859375,4664,-3623,-2680,-31,-79,76
277084669,-0.32049560546875,0.242431640625,0.65545654296875,-0.63946533203125,6252,-3480,-2458,-39,-77,77
277094650,-0.31085205078125,0.24078369140625,0.66143798828125,-0.638671875,7766,-3474,-2249,-46,-72,66
277104636,-0.303466796875,0.23809814453125,0.66815185546875,-0.63623046875,9135,-3645,-2052,-51,-64,46
277114619,-0.29864501953125,0.23419189453125,0.67535400390625,-0.63232421875,10245,-3939,-1818,-54,-55,23
277124601,-0.29644775390625,0.229248046875,0.6826171875,-0.6273193359375,11141,-4319,-1514,-55,-45,4
277134581,-0.29632568359375,0.2239990234375,0.6895751953125,-0.6217041015625,11802,-4740,-1138,-54,-34,-8
277144563,-0.297607421875,0.2191162109375,0.69573974609375,-0.61590576171875,12228,-5202,-747,-51,-23,-11
277154544,-0.2996826171875,0.21527099609375,0.70086669921875,-0.61041259765625,12287,-5726,-395,-47,-12,-9
277164526,-0.30206298828125,0.212646484375,0.705078125,-0.60528564453125,11929,-6286,-148,-44,-3,-6
277174512,-0.304443359375,0.21112060546875,0.70849609375,-0.60064697265625,11114,-6852,102,-40,3,-6
277184495,-0.30682373046875,0.21026611328125,0.71112060546875,-0.5965576171875,9898,-7380,432,-37,7,-9
277194478,-0.30938720703125,0.20953369140625,0.71319580078125,-0.59307861328125,8378,-7823,948,-34,8,-18
277204462,-0.31243896484375,0.2081298828125,0.71484375,-0.58990478515625,6806,-8157,1653,-33,7,-34
277214449,-0.31646728515625,0.2052001953125,0.716552734375,-0.58673095703125,5381,-8441,2403,-32,5,-53
277224435,-0.3212890625,0.20074462890625,0.71856689453125,-0.583251953125,4134,-8812,3065,-33,2,-70
277234421,-0.32611083984375,0.195556640625,0.720703125,-0.57965087890625,2934,-9294,3564,-34,-2,-77
277244399,-0.33001708984375,0.19085693359375,0.7227783203125,-0.576416015625,1717,-9848,4010,-34,-6,-72
277254376,-0.33251953125,0.18707275390625,0.7244873046875,-0.5740966796875,550,-10374,4430,-34,-10,-61
277264360,-0.33380126953125,0.1842041015625,0.725830078125,-0.572509765625,-448,-10798,4816,-33,-12,-52
277274343,-0.3345947265625,0.181884765625,0.72686767578125,-0.571533203125,-1245,-11139,5144,-31,-13,-47
277284325,-0.3353271484375,0.1798095703125,0.7276611328125,-0.57080078125,-1833,-11534,5321,-29,-11,-45
277294310,-0.33599853515625,0.17816162109375,0.7281494140625,-0.57025146484375,-2245,-12086,5205,-26,-8,-42
277304296,-0.3367919921875,0.1771240234375,0.728271484375,-0.57000732421875,-2434,-12802,4808,-20,-3,-38
277314280,-0.3377685546875,0.17669677734375,0.727783203125,-0.570068359375,-2428,-13558,4213,-12,4,-33
277324261,-0.33917236328125,0.17694091796875,0.7265625,-0.57073974609375,-2283,-14221,3530,-2,12,-27
277334239,-0.341064453125,0.177734375,0.72442626953125,-0.5721435546875,-2135,-14714,2789,10,20,-21
277344229,-0.3431396484375,0.1793212890625,0.7210693359375,-0.5745849609375,-2051,-14968,2057,23,27,-11
277354219,-0.34503173828125,0.18170166015625,0.71661376953125,-0.57830810546875,-1987,-15009,1283,38,32,0
277364195,-0.34686279296875,0.18463134765625,0.71112060546875,-0.58306884765625,-1831,-14852,440,51,35,9
277374185,-0.3487548828125,0.18743896484375,0.70489501953125,-0.58856201171875,-1603,-14538,-430,64,37,13
277384174,-0.35089111328125,0.18994140625,0.6981201171875,-0.59454345703125,-1394,-14049,-1259,74,38,14
277394144,-0.35302734375,0.1923828125,0.69085693359375,-0.60089111328125,-1213,-13488,-2062,82,39,19
277404121,-0.35467529296875,0.1951904296875,0.68316650390625,-0.6077880859375,-1129,-12824,-2818,89,38,27
277414107,-0.35540771484375,0.19830322265625,0.67523193359375,-0.61517333984375,-1098,-12106,-3543,93,35,36
277424089,-0.35540771484375,0.2015380859375,0.66717529296875,-0.62286376953125,-1018,-11343,-4216,96,31,42
277434075,-0.35491943359375,0.204345703125,0.65948486328125,-0.63037109375,-865,-10511,-4795,96,25,41
277444058,-0.354736328125,0.2060546875,0.65252685546875,-0.63714599609375,-584,-9594,-5219,92,20,32
277454040,-0.35516357421875,0.206298828125,0.646484375,-0.6429443359375,-193,-8588,-5439,85,15,20
277464023,-0.3560791015625,0.20550537109375,0.64154052734375,-0.6475830078125,296,-7603,-5486,76,11,11
277474007,-0.35693359375,0.20428466796875,0.63763427734375,-0.6513671875,827,-6564,-5335,65,6,11
277483995,-0.3570556640625,0.203369140625,0.63446044921875,-0.65472412109375,1338,-5628,-5070,53,2,18
277493981,-0.35589599609375,0.20306396484375,0.63201904296875,-0.65771484375,1842,-4833,-4733,41,-3,29
277503953,-0.353759765625,0.2032470703125,0.6304931640625,-0.66033935546875,2337,-4179,-4378,30,-8,34
277513935,-0.3514404296875,0.20306396484375,0.6300048828125,-0.662109375,2842,-3656,-3954,18,-12,29
277523918,-0.34942626953125,0.2022705078125,0.6304931640625,-0.66290283203125,3357,-3270,-3472,8,-15,22
277533899,-0.3477783203125,0.200927734375,0.6318359375,-0.66290283203125,3808,-3064,-2942,-1,-18,15
277543878,-0.3460693359375,0.19940185546875,0.63372802734375,-0.6624755859375,4130,-3033,-2362,-8,-20,14
277553861,-0.3438720703125,0.1981201171875,0.63592529296875,-0.66192626953125,4310,-3203,-1777,-13,-22,17
277563845,-0.341064453125,0.19720458984375,0.63812255859375,-0.6614990234375,4374,-3508,-1206,-16,-24,21
277573826,-0.33807373046875,0.19635009765625,0.64031982421875,-0.66119384765625,4335,-3914,-645,-17,-25,19
277583810,-0.33575439453125,0.19476318359375,0.642578125,-0.66064453125,4276,-4370,-123,-17,-26,8
277593793,-0.3348388671875,0.19183349609375,0.64495849609375,-0.65960693359375,4244,-4837,345,-15,-25,-12
277603773,-0.336181640625,0.1868896484375,0.647705078125,-0.65765380859375,4292,-5290,754,-14,-24,-38
277613766,-0.3402099609375,0.1798095703125,0.65069580078125,-0.65460205078125,4412,-5738,1115,-12,-20,-68
277623746,-0.34710693359375,0.17041015625,0.654052734375,-0.65020751953125,4525,-6211,1401,-11,-15,-101
277633724,-0.35675048828125,0.1590576171875,0.657470703125,-0.64434814453125,4534,-6707,1627,-10,-10,-131
277643707,-0.36865234375,0.14605712890625,0.6607666015625,-0.6373291015625,4392,-7236,1796,-7,-6,-158
277653693,-0.38226318359375,0.13153076171875,0.66363525390625,-0.62939453125,4201,-7741,1934,-3,-3,-180
277663678,-0.39739990234375,0.115478515625,0.666015625,-0.62066650390625,4055,-8181,1983,3,-1,-201
277673663,-0.413818359375,0.0977783203125,0.66778564453125,-0.6109619140625,3983,-8462,1935,8,1,-220
277683645,-0.431396484375,0.078369140625,0.66900634765625,-0.60015869140625,3925,-8548,1856,13,2,-240
277693629,-0.45013427734375,0.05718994140625,0.6695556640625,-0.588134765625,3852,-8528,1820,16,2,-262
277703611,-0.46990966796875,0.03411865234375,0.669189453125,-0.57464599609375,3767,-8389,1856,19,2,-285
277713595,-0.49078369140625,0.0089111328125,0.66802978515625,-0.559326171875,3780,-8085,1922,22,0,-309
277723580,-0.512451171875,-0.0185546875,0.66583251953125,-0.54193115234375,4094,-7650,1858,24,-2,-333
277733559,-0.534912109375,-0.0487060546875,0.66290283203125,-0.52166748046875,4602,-7015,1594,25,-4,-360
277743542,-0.55767822265625,-0.08135986328125,0.65875244140625,-0.4984130859375,5068,-6236,1345,25,-8,-383
277753525,-0.57989501953125,-0.11541748046875,0.6533203125,-0.47283935546875,5408,-5484,1167,25,-12,-398
277763509,-0.60076904296875,-0.14996337890625,0.64642333984375,-0.44580078125,5673,-4877,1079,26,-16,-404
277773493,-0.62005615234375,-0.18475341796875,0.63800048828125,-0.4176025390625,5937,-4331,1023,29,-19,-408
277783475,-0.63775634765625,-0.21966552734375,0.62786865234375,-0.38836669921875,6146,-3649,997,33,-21,-410
277793458,-0.6536865234375,-0.25457763671875,0.6160888671875,-0.35821533203125,6314,-2866,925,37,-22,-411
277803439,-0.66790771484375,-0.28912353515625,0.60260009765625,-0.32745361328125,6455,-2045,809,40,-22,-409
277813432,-0.68017578125,-0.322998046875,0.587646484375,-0.29620361328125,6617,-1171,613,42,-21,-405
277823417,-0.6903076171875,-0.3558349609375,0.571533203125,-0.26507568359375,6719,-311,369,45,-21,-394
277833400,-0.6981201171875,-0.38690185546875,0.55474853515625,-0.235107421875,6772,471,113,48,-20,-373
277843377,-0.7034912109375,-0.41522216796875,0.5382080078125,-0.20758056640625,6842,1241,-156,50,-17,-338
277853362,-0.706787109375,-0.43994140625,0.52264404296875,-0.18389892578125,6886,1981,-314,50,-13,-290
277863350,-0.7083740234375,-0.46051025390625,0.5089111328125,-0.164794921875,6868,2680,-348,49,-9,-234
277873330,-0.70892333984375,-0.47674560546875,0.49755859375,-0.1505126953125,6831,3322,-301,46,-4,-178
277883314,-0.70867919921875,-0.48907470703125,0.48858642578125,-0.140869140625,6839,3940,-231,41,0,-125
277893293,-0.70806884765625,-0.4979248046875,0.48211669921875,-0.1353759765625,6875,4541,-216,36,5,-78
277903274,-0.7071533203125,-0.503662109375,0.47796630859375,-0.133544921875,6918,5104,-251,31,9,-34
277913261,-0.70623779296875,-0.50653076171875,0.4759521484375,-0.135009765625,6909,5540,-236,25,13,4
277923243,-0.70538330078125,-0.50689697265625,0.4755859375,-0.1390380859375,6905,5806,-112,19,16,33
277933228,-0.704833984375,-0.50531005859375,0.476318359375,-0.1448974609375,6914,5889,97,13,19,52
277943211,-0.70458984375,-0.5023193359375,0.477783203125,-0.15179443359375,6937,5896,275,8,22,63
277953192,-0.70458984375,-0.49847412109375,0.47943115234375,-0.15911865234375,6963,5920,381,4,24,68
277963180,-0.7047119140625,-0.49420166015625,0.48114013671875,-0.16632080078125,7018,5947,410,-1,25,69
277973161,-0.70513916015625,-0.48968505859375,0.48272705078125,-0.17327880859375,7148,5968,424,-4,26,68
277983138,-0.70574951171875,-0.48480224609375,0.48431396484375,-0.1800537109375,7391,5920,468,-8,27,68
277993114,-0.70648193359375,-0.479248046875,0.48602294921875,-0.18707275390625,7742,5851,520,-11,29,72
278003097,-0.707275390625,-0.47265625,0.48822021484375,-0.195068359375,8108,5821,592,-14,32,86
278013083,-0.7078857421875,-0.46441650390625,0.4913330078125,-0.20465087890625,8419,5829,690,-18,35,108
278023066,-0.7080078125,-0.4541015625,0.49560546875,-0.2166748046875,8692,5780,815,-21,39,139
278033051,-0.70745849609375,-0.441162109375,0.5013427734375,-0.23150634765625,8944,5586,959,-24,43,173
278043030,-0.70587158203125,-0.425537109375,0.50830078125,-0.24951171875,9142,5198,1109,-25,48,208
278053014,-0.703125,-0.40740966796875,0.5162353515625,-0.2705078125,9275,4592,1256,-24,53,238
278062997,-0.6990966796875,-0.3873291015625,0.5244140625,-0.29364013671875,9310,3829,1413,-22,57,257
278072986,-0.69415283203125,-0.36627197265625,0.531982421875,-0.31787109375,9273,2966,1638,-17,61,262
278082965,-0.688720703125,-0.3453369140625,0.53814697265625,-0.341796875,9222,2107,1928,-12,64,253
278092948,-0.68316650390625,-0.32525634765625,0.542724609375,-0.36474609375,9144,1320,2176,-7,67,237
278102930,-0.6778564453125,-0.30670166015625,0.5455322265625,-0.38592529296875,9029,597,2321,-2,69,213
278112916,-0.67327880859375,-0.29022216796875,0.54644775390625,-0.40484619140625,8919,-74,2388,4,71,182
278122897,-0.66998291015625,-0.27630615234375,0.54547119140625,-0.42108154296875,8825,-676,2405,9,74,144
278132881,-0.66839599609375,-0.26544189453125,0.54254150390625,-0.43414306640625,8805,-1211,2338,15,77,102
278142863,-0.6690673828125,-0.2579345703125,0.5377197265625,-0.44354248046875,8766,-1653,2206,20,79,53
278152846,-0.6724853515625,-0.254150390625,0.53076171875,-0.44891357421875,8633,-1955,2068,24,82,-1
278162825,-0.6785888671875,-0.25372314453125,0.52197265625,-0.45025634765625,8568,-2081,1956,26,83,-50
278172808,-0.68731689453125,-0.2564697265625,0.5113525390625,-0.4476318359375,8405,-1991,1890,27,86,-96
278182792,-0.6983642578125,-0.26171875,0.49908447265625,-0.44134521484375,8144,-1822,1825,26,88,-137
278192771,-0.711181640625,-0.268798828125,0.4853515625,-0.43182373046875,7705,-1554,1746,24,89,-170
278202765,-0.72509765625,-0.277099609375,0.47064208984375,-0.4195556640625,7532,-1279,1682,21,90,-195
278212750,-0.739990234375,-0.2864990234375,0.45477294921875,-0.40447998046875,7382,-927,1630,18,91,-222
278222735,-0.755615234375,-0.2967529296875,0.43768310546875,-0.3865966796875,7271,-591,1611,14,92,-247
278232712,-0.771728515625,-0.3074951171875,0.41949462890625,-0.365966796875,7037,-218,1612,9,92,-270
278242697,-0.78802490234375,-0.318603515625,0.40020751953125,-0.34259033203125,6830,241,1647,4,91,-291
278252676,-0.804443359375,-0.3299560546875,0.379638671875,-0.31622314453125,6491,936,1823,-2,90,-313
278262656,-0.82049560546875,-0.34130859375,0.35791015625,-0.28680419921875,6121,1573,1878,-10,86,-331
278272640,-0.835693359375,-0.35223388671875,0.33563232421875,-0.25482177734375,5638,2089,1917,-17,82,-347
278282623,-0.8499755859375,-0.3623046875,0.3125,-0.2205810546875,4931,2651,2048,-25,77,-358
278292608,-0.86297607421875,-0.37127685546875,0.288818359375,-0.18438720703125,4168,3146,2211,-33,71,-365
278302590,-0.8746337890625,-0.37890625,0.264892578125,-0.146240234375,3414,3547,2393,-42,63,-374
278312574,-0.884521484375,-0.385009765625,0.24114990234375,-0.1064453125,2794,3793,2515,-51,54,-380
278322556,-0.892578125,-0.3895263671875,0.2177734375,-0.065185546875,2247,3804,2606,-59,45,-385
278332542,-0.898681640625,-0.39239501953125,0.19488525390625,-0.0228271484375,1710,3889,2694,-66,35,-388
278342523,-0.90264892578125,-0.39385986328125,0.172607421875,0.0201416015625,1234,4052,2731,-71,25,-386
278352506,-0.90447998046875,-0.39373779296875,0.15130615234375,0.0634765625,934,4000,2746,-76,14,-384
278362490,-0.90447998046875,-0.3917236328125,0.1317138671875,0.105712890625,840,4016,2823,-80,3,-368
278372469,-0.90301513671875,-0.38787841796875,0.1143798828125,0.14520263671875,864,3962,2935,-84,-6,-338
278382452,-0.90081787109375,-0.38201904296875,0.0997314453125,0.18072509765625,640,3856,3310,-88,-15,-299
278392431,-0.8985595703125,-0.37451171875,0.0875244140625,0.21142578125,335,3761,3597,-88,-25,-247
278402425,-0.896728515625,-0.36590576171875,0.0794677734375,0.2362060546875,293,3631,3714,-88,-36,-191
278412407,-0.89569091796875,-0.3564453125,0.07501220703125,0.255126953125,355,3538,3933,-85,-45,-137
278422391,-0.89581298828125,-0.34649658203125,0.0740966796875,0.268310546875,515,3549,4238,-80,-52,-83
278432365,-0.897216796875,-0.33624267578125,0.0762939453125,0.276123046875,619,3551,4672,-75,-57,-33
278442351,-0.8997802734375,-0.3258056640625,0.08087158203125,0.2789306640625,572,3418,5164,-69,-62,13
278452329,-0.90338134765625,-0.315185546875,0.087646484375,0.27734375,561,3228,5629,-62,-67,53
278462313,-0.90765380859375,-0.30474853515625,0.09649658203125,0.27203369140625,763,3082,6046,-54,-71,84
278472296,-0.9122314453125,-0.2945556640625,0.10711669921875,0.26397705078125,1145,3047,6418,-47,-74,105
278482279,-0.91656494140625,-0.2847900390625,0.1187744140625,0.2545166015625,1581,3064,6727,-41,-76,112
278492264,-0.92022705078125,-0.275634765625,0.130615234375,0.24530029296875,2008,3098,7007,-35,-77,105
278502245,-0.92303466796875,-0.26727294921875,0.14227294921875,0.23748779296875,2426,3084,7223,-29,-77,88
278512236,-0.9246826171875,-0.260009765625,0.15325927734375,0.2320556640625,2755,3025,7364,-22,-77,64
278522222,-0.92523193359375,-0.2540283203125,0.16363525390625,0.22943115234375,3060,2923,7444,-14,-77,37
278532206,-0.9246826171875,-0.24945068359375,0.17327880859375,0.2296142578125,3361,2844,7498,-6,-77,11
278542194,-0.923095703125,-0.24627685546875,0.18243408203125,0.2322998046875,3672,2784,7559,3,-75,-14
278552174,-0.9205322265625,-0.2447509765625,0.19097900390625,0.2371826171875,3923,2860,7622,11,-74,-36
278562155,-0.9171142578125,-0.2447509765625,0.19891357421875,0.243896484375,4090,3010,7686,20,-72,-53
278572125,-0.9129638671875,-0.24615478515625,0.20648193359375,0.25164794921875,4172,3163,7752,29,-70,-62
278582106,-0.90838623046875,-0.2486572265625,0.21368408203125,0.259521484375,4171,3316,7741,37,-67,-65
278592090,-0.9034423828125,-0.25238037109375,0.220703125,0.26715087890625,4110,3454,7637,46,-64,-65
278602073,-0.89825439453125,-0.25701904296875,0.22760009765625,0.27435302734375,3989,3578,7485,54,-61,-63
278612057,-0.892822265625,-0.2626953125,0.2344970703125,0.2808837890625,3866,3707,7262,62,-58,-61
278622038,-0.88702392578125,-0.269287109375,0.2413330078125,0.287109375,3753,3885,6997,69,-56,-62
278632022,-0.8807373046875,-0.27691650390625,0.24786376953125,0.293701171875,3636,4038,6701,75,-53,-70
278642006,-0.873779296875,-0.2855224609375,0.25372314453125,0.3011474609375,3536,4161,6483,80,-50,-82
278651996,-0.86614990234375,-0.294921875,0.25885009765625,0.3096923828125,3460,4367,6304,83,-46,-94
278661985,-0.85791015625,-0.30511474609375,0.2633056640625,0.3187255859375,3451,4712,6077,85,-41,-101
278671963,-0.84942626953125,-0.31585693359375,0.26727294921875,0.32763671875,3484,5119,5829,86,-36,-102
278681943,-0.84100341796875,-0.32666015625,0.27081298828125,0.3358154296875,3488,5470,5556,86,-30,-97
278691926,-0.83282470703125,-0.33740234375,0.27392578125,0.34295654296875,3437,5728,5262,85,-24,-90
278701910,-0.82501220703125,-0.347900390625,0.276611328125,0.3489990234375,3325,5876,4938,83,-19,-81
278711892,-0.81768798828125,-0.35809326171875,0.27899169921875,0.35400390625,3141,5869,4607,82,-14,-74
278721878,-0.81085205078125,-0.367919921875,0.28106689453125,0.35809326171875,2921,5757,4294,80,-10,-66
278731858,-0.804443359375,-0.3773193359375,0.2830810546875,0.361083984375,2646,5624,4021,78,-7,-55
278741842,-0.7987060546875,-0.3861083984375,0.28533935546875,0.36273193359375,2319,5518,3763,77,-6,-39
278751824,-0.7938232421875,-0.39422607421875,0.28839111328125,0.3624267578125,1959,5447,3550,77,-7,-17
278761808,-0.7899169921875,-0.4012451171875,0.292724609375,0.359619140625,1630,5366,3370,76,-9,12
278771787,-0.7872314453125,-0.406982421875,0.29901123046875,0.3538818359375,1460,5283,3129,77,-13,45
278781766,-0.78558349609375,-0.41143798828125,0.307373046875,0.34515380859375,1340,5219,2885,78,-17,76
278791759,-0.78485107421875,-0.41455078125,0.31787109375,0.33343505859375,1259,5261,2665,79,-23,110
278801743,-0.78485107421875,-0.416259765625,0.33050537109375,0.3187255859375,1216,5364,2458,81,-29,142
278811718,-0.78521728515625,-0.41650390625,0.34527587890625,0.30126953125,1244,5462,2289,83,-37,172
278821704,-0.78564453125,-0.41522216796875,0.36199951171875,0.2816162109375,1324,5467,2105,84,-45,196
278831688,-0.7857666015625,-0.41265869140625,0.3802490234375,0.2603759765625,1438,5406,1924,85,-53,213
278841670,-0.78509521484375,-0.408935546875,0.39959716796875,0.2381591796875,1667,5363,1737,86,-61,222
278851653,-0.78350830078125,-0.40435791015625,0.41973876953125,0.215576171875,2055,5361,1577,86,-69,226
278861637,-0.78076171875,-0.39910888671875,0.44024658203125,0.193115234375,2557,5461,1424,85,-76,224
278871621,-0.77685546875,-0.3936767578125,0.46063232421875,0.1715087890625,3098,5676,1240,84,-82,215
278881603,-0.77166748046875,-0.38848876953125,0.48028564453125,0.151611328125,3650,5919,1028,81,-86,198
278891587,-0.765380859375,-0.384033203125,0.49871826171875,0.1341552734375,4164,6095,815,77,-88,173
278901569,-0.75823974609375,-0.38079833984375,0.5155029296875,0.1197509765625,4688,6231,625,73,-90,141
278911552,-0.75042724609375,-0.37921142578125,0.53033447265625,0.10888671875,5170,6364,458,70,-89,105
278921534,-0.7420654296875,-0.37969970703125,0.54302978515625,0.10150146484375,5605,6548,303,67,-87,67
278931517,-0.73333740234375,-0.38238525390625,0.5535888671875,0.09771728515625,5971,6787,174,64,-85,30
278941499,-0.7244873046875,-0.38720703125,0.56201171875,0.0970458984375,6228,7046,83,63,-82,-3
278951477,-0.71551513671875,-0.393798828125,0.56854248046875,0.098876953125,6344,7236,-22,61,-79,-30
278961461,-0.70648193359375,-0.4019775390625,0.57342529296875,0.10272216796875,6311,7332,-140,61,-74,-53
278971439,-0.6973876953125,-0.4112548828125,0.57696533203125,0.10791015625,6197,7352,-265,60,-70,-69
278981432,-0.6883544921875,-0.42132568359375,0.57940673828125,0.11376953125,6034,7327,-366,60,-65,-79
278991417,-0.67950439453125,-0.43170166015625,0.58099365234375,0.11981201171875,5936,7312,-399,61,-61,-83
279001399,-0.67095947265625,-0.44171142578125,0.58233642578125,0.12506103515625,5949,7385,-393,63,-56,-76
279011375,-0.662841796875,-0.45086669921875,0.583740234375,0.12890625,6025,7541,-388,64,-51,-62
279021357,-0.65533447265625,-0.45867919921875,0.58575439453125,0.130859375,6109,7724,-436,64,-47,-42
279031340,-0.64837646484375,-0.4649658203125,0.5885009765625,0.130859375,6131,7854,-554,64,-41,-20
279041329,-0.64208984375,-0.4696044921875,0.59210205078125,0.12884521484375,6107,7913,-696,63,-37,2
279051309,-0.63653564453125,-0.47271728515625,0.596435546875,0.12518310546875,6064,7964,-803,60,-33,22
279061293,-0.6317138671875,-0.47442626953125,0.6011962890625,0.120361328125,6078,8119,-880,57,-29,37
279071275,-0.62750244140625,-0.47509765625,0.60614013671875,0.11474609375,6134,8337,-942,53,-26,47
279081259,-0.6239013671875,-0.47491455078125,0.61102294921875,0.10894775390625,6264,8579,-978,49,-22,51
279091237,-0.62091064453125,-0.474365234375,0.615478515625,0.103271484375,6427,8758,-1005,44,-19,50
279101227,-0.618408203125,-0.473876953125,0.61920166015625,0.09820556640625,6542,8793,-1014,39,-15,42
279111209,-0.61627197265625,-0.473876953125,0.6219482421875,0.0941162109375,6588,8731,-993,34,-12,30
279121191,-0.614501953125,-0.474609375,0.62359619140625,0.09112548828125,6610,8623,-969,30,-8,17
279131183,-0.6131591796875,-0.47601318359375,0.62408447265625,0.0892333984375,6630,8551,-953,26,-4,3
279141162,-0.6121826171875,-0.47808837890625,0.6236572265625,0.08837890625,6617,8511,-934,22,-1,-7
279151142,-0.61151123046875,-0.48040771484375,0.62249755859375,0.08819580078125,6600,8494,-942,18,1,-14
279161117,-0.61114501953125,-0.48291015625,0.620849609375,0.0885009765625,6567,8448,-972,15,4,-18
279171098,-0.61114501953125,-0.48541259765625,0.618896484375,0.0889892578125,6521,8345,-1000,12,7,-20
279181081,-0.61138916015625,-0.48773193359375,0.61669921875,0.089599609375,6439,8186,-1026,9,9,-21
279191065,-0.61181640625,-0.4901123046875,0.61431884765625,0.09033203125,6315,7987,-1021,8,10,-23
279201051,-0.61248779296875,-0.49237060546875,0.6116943359375,0.091064453125,6138,7741,-985,7,12,-23
279211031,-0.61309814453125,-0.49456787109375,0.60919189453125,0.0916748046875,5954,7470,-968,6,12,-22
279221013,-0.61376953125,-0.49658203125,0.6068115234375,0.0921630859375,5730,7158,-943,7,12,-20
279230997,-0.61431884765625,-0.49847412109375,0.60467529296875,0.09228515625,5525,6824,-942,8,12,-17
279240985,-0.61474609375,-0.50018310546875,0.60284423828125,0.09197998046875,5368,6527,-958,9,11,-13
279250963,-0.61505126953125,-0.50164794921875,0.6014404296875,0.09124755859375,5232,6282,-990,11,10,-8
279260945,-0.61517333984375,-0.50274658203125,0.6005859375,0.0899658203125,5148,6092,-1026,13,9,-1
