subject,Two-hands and jerked
arm,neither
label,0
hz,100.17028949213663
time,4.831772

timestamp_us,q0,q1,q2,q3,ax,ay,az,gx,gy,gz
232043992,-0.68658447265625,0.6697998046875,0.2327880859375,-0.160400390625,1367,-8146,-305,-3,7,9
232053974,-0.6864013671875,0.67041015625,0.2315673828125,-0.16033935546875,1313,-8185,-304,-2,7,9
232063953,-0.68634033203125,0.6710205078125,0.23028564453125,-0.1602783203125,1256,-8243,-318,-1,8,9
232073936,-0.686279296875,0.67156982421875,0.2288818359375,-0.16033935546875,1193,-8316,-315,-1,8,9
232083923,-0.686279296875,0.6719970703125,0.2274169921875,-0.16033935546875,1147,-8371,-299,0,8,9
232093903,-0.68646240234375,0.67230224609375,0.2259521484375,-0.160400390625,1097,-8415,-264,2,8,9
232103885,-0.68670654296875,0.67254638671875,0.2244873046875,-0.1605224609375,1051,-8436,-247,2,8,8
232113869,-0.68701171875,0.672607421875,0.22314453125,-0.1605224609375,1018,-8447,-204,3,8,7
232123854,-0.6873779296875,0.67266845703125,0.221923828125,-0.1605224609375,989,-8446,-187,4,7,6
232133838,-0.6878662109375,0.67254638671875,0.2208251953125,-0.16046142578125,939,-8453,-142,4,7,4
232143822,-0.6883544921875,0.67242431640625,0.21978759765625,-0.160400390625,891,-8481,-133,5,6,4
232153803,-0.6888427734375,0.67218017578125,0.2188720703125,-0.160400390625,853,-8489,-117,5,5,4
232163789,-0.68939208984375,0.67193603515625,0.218017578125,-0.160400390625,817,-8506,-109,5,4,3
232173767,-0.68994140625,0.67156982421875,0.21728515625,-0.16058349609375,781,-8513,-88,6,3,3
232183761,-0.69049072265625,0.671142578125,0.21661376953125,-0.16094970703125,745,-8527,-67,7,1,4
232196995,-0.69097900390625,0.670654296875,0.2159423828125,-0.16162109375,688,-8566,-79,8,0,6
232203718,-0.69146728515625,0.670166015625,0.21527099609375,-0.16259765625,648,-8628,-86,8,-2,7
232213700,-0.69195556640625,0.6695556640625,0.21453857421875,-0.16387939453125,637,-8703,-75,10,-4,8
232223685,-0.69256591796875,0.66876220703125,0.21392822265625,-0.165283203125,698,-8802,-33,11,-5,9
232233668,-0.69329833984375,0.6678466796875,0.21343994140625,-0.16668701171875,820,-8931,45,12,-6,8
232243653,-0.6942138671875,0.66668701171875,0.21307373046875,-0.16796875,953,-9069,135,13,-6,8
232253635,-0.69525146484375,0.66534423828125,0.21282958984375,-0.169189453125,1101,-9201,232,15,-5,6
232263616,-0.69647216796875,0.66387939453125,0.21258544921875,-0.17022705078125,1213,-9352,306,16,-4,6
232273599,-0.69781494140625,0.662353515625,0.2122802734375,-0.171142578125,1247,-9542,366,17,-3,5
232283583,-0.69927978515625,0.66070556640625,0.21197509765625,-0.17193603515625,1241,-9746,417,18,-3,2
232293566,-0.70098876953125,0.6588134765625,0.2117919921875,-0.17242431640625,1266,-9923,457,21,-1,-2
232303545,-0.703125,0.656494140625,0.21209716796875,-0.1722412109375,1349,-10047,529,23,-1,-10
232313531,-0.7056884765625,0.6536865234375,0.213134765625,-0.17095947265625,1491,-10115,611,26,1,-21
232323515,-0.7088623046875,0.65032958984375,0.21502685546875,-0.16851806640625,1663,-10157,719,28,3,-34
232333498,-0.7125244140625,0.64630126953125,0.21783447265625,-0.16473388671875,1816,-10182,796,31,5,-48
232343482,-0.71661376953125,0.64178466796875,0.22137451171875,-0.15985107421875,1925,-10207,827,34,7,-60
232353465,-0.72100830078125,0.6368408203125,0.2254638671875,-0.154052734375,1983,-10204,835,36,8,-69
232363449,-0.7255859375,0.63153076171875,0.22998046875,-0.14752197265625,2038,-10177,791,38,9,-78
232373436,-0.7303466796875,0.6258544921875,0.23516845703125,-0.14013671875,2080,-10089,792,39,10,-87
232383419,-0.7352294921875,0.6197509765625,0.24078369140625,-0.13201904296875,2106,-9921,787,40,10,-96
232393405,-0.7401123046875,0.61322021484375,0.24700927734375,-0.12310791015625,2157,-9643,814,41,10,-105
232403390,-0.7449951171875,0.60638427734375,0.2537841796875,-0.113525390625,2209,-9317,818,40,10,-112
232413367,-0.7496337890625,0.599365234375,0.26092529296875,-0.10333251953125,2251,-8972,837,39,10,-118
232423351,-0.7540283203125,0.59234619140625,0.26824951171875,-0.09283447265625,2306,-8621,849,37,10,-119
232433335,-0.75799560546875,0.58563232421875,0.27496337890625,-0.082763671875,2386,-8272,875,33,11,-110
232443317,-0.7613525390625,0.5799560546875,0.280029296875,-0.07427978515625,2425,-7890,968,28,14,-85
232453299,-0.76416015625,0.57562255859375,0.28314208984375,-0.06787109375,2392,-7562,1085,21,15,-62
232463283,-0.76641845703125,0.5721435546875,0.28521728515625,-0.06243896484375,2312,-7253,1179,17,15,-54
232473265,-0.7684326171875,0.56903076171875,0.2872314453125,-0.056884765625,2206,-6933,1244,13,15,-56
232483244,-0.77020263671875,0.56585693359375,0.289794921875,-0.0506591796875,2100,-6659,1285,11,14,-65
232493238,-0.77178955078125,0.5626220703125,0.2930908203125,-0.04364013671875,1973,-6407,1298,9,13,-73
232503220,-0.77313232421875,0.559326171875,0.296875,-0.0361328125,1833,-6185,1284,6,11,-79
232513205,-0.774169921875,0.55615234375,0.3009033203125,-0.02862548828125,1673,-5992,1216,5,9,-79
232523192,-0.77496337890625,0.55322265625,0.30487060546875,-0.021484375,1505,-5876,1086,4,6,-76
232533174,-0.77545166015625,0.550537109375,0.30889892578125,-0.014892578125,1346,-5802,947,4,4,-74
232543158,-0.7757568359375,0.54791259765625,0.31292724609375,-0.00872802734375,1241,-5730,839,4,1,-71
232553129,-0.77606201171875,0.54522705078125,0.31695556640625,-0.0030517578125,1207,-5660,787,6,-1,-68
232563108,-0.7763671875,0.54241943359375,0.32098388671875,0.0023193359375,1234,-5582,783,7,-2,-66
232573092,-0.77679443359375,0.53936767578125,0.32501220703125,0.007568359375,1322,-5499,838,9,-3,-66
232583074,-0.77728271484375,0.5360107421875,0.3291015625,0.0126953125,1440,-5421,929,11,-3,-65
232593058,-0.77789306640625,0.53265380859375,0.3330078125,0.0174560546875,1582,-5334,991,12,-4,-61
232603041,-0.7783203125,0.529541015625,0.336669921875,0.021728515625,1722,-5212,1014,11,-4,-54
232613021,-0.77862548828125,0.52685546875,0.33984375,0.02545166015625,1823,-5030,1038,8,-4,-47
232623005,-0.7786865234375,0.52471923828125,0.3427734375,0.02886962890625,1882,-4783,1055,3,-4,-43
232632993,-0.77838134765625,0.52288818359375,0.345947265625,0.0328369140625,1937,-4483,1082,-2,-5,-49
232642973,-0.77752685546875,0.5208740234375,0.3502197265625,0.03857421875,2023,-4207,1155,-9,-7,-69
232652950,-0.7760009765625,0.5181884765625,0.35650634765625,0.04718017578125,2182,-3947,1207,-16,-9,-98
232662934,-0.77362060546875,0.5147705078125,0.36474609375,0.05908203125,2388,-3711,1274,-24,-10,-129
232672917,-0.77032470703125,0.510498046875,0.3748779296875,0.07403564453125,2653,-3541,1333,-31,-11,-158
232682899,-0.76593017578125,0.5054931640625,0.386474609375,0.09173583984375,2960,-3408,1371,-38,-11,-183
232692882,-0.7603759765625,0.49981689453125,0.39935302734375,0.1116943359375,3240,-3312,1373,-45,-13,-205
232702867,-0.7535400390625,0.49310302734375,0.41351318359375,0.1341552734375,3443,-3285,1368,-50,-15,-234
232712849,-0.7449951171875,0.48486328125,0.429443359375,0.1595458984375,3771,-3234,1322,-55,-18,-266
232722831,-0.73455810546875,0.47503662109375,0.4468994140625,0.18719482421875,4167,-3192,1270,-58,-23,-292
232732814,-0.722412109375,0.46417236328125,0.46484375,0.21575927734375,4659,-3207,1209,-60,-27,-302
232742798,-0.7091064453125,0.45294189453125,0.48236083984375,0.2435302734375,5271,-3341,1191,-60,-30,-297
232752784,-0.69537353515625,0.44189453125,0.49853515625,0.26953125,5866,-3469,1281,-57,-32,-282
232762768,-0.681640625,0.430908203125,0.51318359375,0.293701171875,6341,-3416,1383,-53,-31,-267
232772752,-0.66778564453125,0.419921875,0.52679443359375,0.31646728515625,6704,-3232,1405,-51,-31,-257
232782738,-0.65338134765625,0.40838623046875,0.53997802734375,0.33856201171875,7031,-2921,1314,-48,-31,-259
232792716,-0.637939453125,0.39556884765625,0.553466796875,0.36083984375,7355,-2561,1211,-43,-32,-270
232802698,-0.62139892578125,0.38116455078125,0.567138671875,0.38323974609375,7677,-2155,1151,-38,-34,-281
232812680,-0.60455322265625,0.36627197265625,0.580322265625,0.40447998046875,7872,-1777,1058,-33,-34,-271
232822664,-0.5885009765625,0.35235595703125,0.59197998046875,0.42315673828125,8124,-1432,963,-28,-33,-245
232832648,-0.5740966796875,0.34027099609375,0.601806640625,0.43865966796875,8244,-1268,869,-23,-32,-209
232842635,-0.56182861328125,0.33050537109375,0.60986328125,0.45068359375,8521,-1210,763,-17,-30,-171
232852616,-0.55224609375,0.3233642578125,0.6160888671875,0.459228515625,9113,-1162,661,-11,-27,-129
232862596,-0.5457763671875,0.3189697265625,0.62042236328125,0.46417236328125,9483,-1089,509,-5,-22,-83
232872583,-0.5421142578125,0.3172607421875,0.62310791015625,0.46600341796875,9772,-955,409,0,-18,-41
232882562,-0.5408935546875,0.31768798828125,0.6243896484375,0.4654541015625,9991,-800,412,4,-15,-8
232892545,-0.5413818359375,0.3193359375,0.624755859375,0.4632568359375,10141,-654,466,8,-13,12
232902529,-0.54254150390625,0.321044921875,0.625,0.46026611328125,10223,-484,448,13,-11,15
232912516,-0.54327392578125,0.3214111328125,0.62603759765625,0.457763671875,10303,-350,367,18,-10,-2
232922493,-0.542724609375,0.31939697265625,0.62835693359375,0.4566650390625,10327,-137,265,23,-9,-31
232932482,-0.54052734375,0.3145751953125,0.6322021484375,0.4573974609375,10283,180,181,27,-8,-60
232942462,-0.53717041015625,0.3077392578125,0.63690185546875,0.45941162109375,10239,599,208,29,-8,-79
232952449,-0.5333251953125,0.2998046875,0.64190673828125,0.462158203125,10187,1114,337,30,-7,-84
232962435,-0.52978515625,0.2919921875,0.646484375,0.46478271484375,10141,1665,510,29,-7,-75
232972417,-0.527099609375,0.2855224609375,0.65032958984375,0.466552734375,10064,2245,632,27,-6,-55
232982398,-0.525390625,0.28082275390625,0.65325927734375,0.46722412109375,9968,2715,659,24,-6,-33
232992374,-0.52484130859375,0.27813720703125,0.65521240234375,0.46673583984375,9819,3071,618,20,-5,-12
233002361,-0.52508544921875,0.27685546875,0.65631103515625,0.46563720703125,9611,3331,562,16,-4,3
233012337,-0.5257568359375,0.2763671875,0.65692138671875,0.46429443359375,9367,3512,512,12,-2,8
233022325,-0.52642822265625,0.27593994140625,0.6572265625,0.46337890625,9107,3651,474,9,0,7
233032308,-0.52679443359375,0.275146484375,0.6573486328125,0.4632568359375,8834,3727,468,5,2,-1
233042287,-0.526611328125,0.27362060546875,0.657470703125,0.4642333984375,8579,3747,489,1,4,-12
233052274,-0.52587890625,0.271240234375,0.65753173828125,0.46630859375,8357,3697,513,-3,7,-24
233062256,-0.52459716796875,0.26824951171875,0.65765380859375,0.4693603515625,8163,3615,496,-6,8,-34
233072244,-0.52294921875,0.26483154296875,0.65771484375,0.4730224609375,8060,3483,463,-9,10,-41
233082228,-0.52117919921875,0.261474609375,0.6575927734375,0.4769287109375,7998,3350,403,-12,12,-42
233092210,-0.51947021484375,0.25830078125,0.6572265625,0.4810791015625,7949,3254,355,-15,13,-41
233102190,-0.5179443359375,0.2552490234375,0.656494140625,0.4853515625,7893,3209,326,-17,15,-39
233112180,-0.51654052734375,0.25250244140625,0.65545654296875,0.4896240234375,7837,3141,336,-19,16,-36
233122164,-0.5155029296875,0.25006103515625,0.65411376953125,0.4937744140625,7804,3078,388,-20,17,-33
233132142,-0.5147705078125,0.24798583984375,0.65240478515625,0.497802734375,7805,2995,432,-21,19,-28
233142118,-0.51446533203125,0.24627685546875,0.65045166015625,0.50152587890625,7856,2853,441,-21,20,-25
233152102,-0.514404296875,0.24456787109375,0.6484375,0.50506591796875,7916,2717,429,-20,22,-25
233162083,-0.51422119140625,0.2425537109375,0.64642333984375,0.50872802734375,7956,2668,424,-19,23,-29
233172067,-0.5137939453125,0.2398681640625,0.6446533203125,0.5126953125,7938,2667,448,-18,24,-35
233182053,-0.5130615234375,0.23651123046875,0.64300537109375,0.51702880859375,7861,2721,497,-17,25,-41
233192034,-0.51202392578125,0.23260498046875,0.6414794921875,0.52166748046875,7757,2820,585,-16,25,-44
233202017,-0.510986328125,0.228515625,0.63995361328125,0.5263671875,7631,2940,680,-16,26,-45
233212001,-0.510009765625,0.22467041015625,0.638427734375,0.53082275390625,7503,3046,750,-15,25,-40
233221987,-0.50933837890625,0.221435546875,0.63677978515625,0.5347900390625,7393,3140,827,-15,23,-33
233231965,-0.50921630859375,0.21905517578125,0.63494873046875,0.5380859375,7296,3216,895,-15,21,-22
233241949,-0.50958251953125,0.2177734375,0.63299560546875,0.54052734375,7203,3299,956,-15,18,-10
233251935,-0.5106201171875,0.2176513671875,0.63092041015625,0.54205322265625,7130,3349,1020,-15,15,4
233261913,-0.51226806640625,0.21868896484375,0.628662109375,0.54266357421875,7085,3349,1051,-14,12,16
233271899,-0.51434326171875,0.2205810546875,0.62640380859375,0.54254150390625,7062,3340,1042,-13,9,24
233281882,-0.5164794921875,0.22296142578125,0.6243896484375,0.5418701171875,7078,3297,988,-12,7,27
233291866,-0.5186767578125,0.2254638671875,0.62261962890625,0.54083251953125,7126,3237,925,-9,5,28
233301850,-0.52081298828125,0.22802734375,0.6209716796875,0.53948974609375,7211,3171,879,-7,4,29
233311831,-0.52313232421875,0.230712890625,0.6195068359375,0.537841796875,7314,3143,854,-5,4,32
233321816,-0.52587890625,0.23358154296875,0.617919921875,0.53570556640625,7423,3192,857,-4,5,39
233331799,-0.52935791015625,0.23699951171875,0.6160888671875,0.53289794921875,7518,3265,903,-2,6,50
233341775,-0.53387451171875,0.2412109375,0.61376953125,0.5291748046875,7588,3315,964,-1,7,65
233351766,-0.53948974609375,0.2464599609375,0.61083984375,0.5244140625,7602,3344,1038,-1,9,82
233361754,-0.54638671875,0.25286865234375,0.607177734375,0.5184326171875,7608,3310,1118,0,11,101
233371736,-0.5545654296875,0.26043701171875,0.60272216796875,0.51116943359375,7629,3173,1148,0,12,119
233381715,-0.56396484375,0.26910400390625,0.5975341796875,0.50238037109375,7668,2987,1145,2,15,138
233391697,-0.5745849609375,0.2789306640625,0.59149169921875,0.4920654296875,7732,2762,1111,3,17,158
233401681,-0.5865478515625,0.2900390625,0.58441162109375,0.4798583984375,7762,2509,1092,6,20,181
233411663,-0.59967041015625,0.30224609375,0.576171875,0.4658203125,7737,2252,1098,7,21,202
233421647,-0.613525390625,0.3150634765625,0.5670166015625,0.45025634765625,7705,1986,1123,10,23,217
233431635,-0.62774658203125,0.32843017578125,0.55706787109375,0.4332275390625,7693,1707,1137,12,23,230
233441615,-0.64215087890625,0.342041015625,0.54638671875,0.41473388671875,7743,1350,1140,15,22,241
233451597,-0.65643310546875,0.35577392578125,0.53515625,0.39508056640625,7789,938,1086,18,22,247
233461579,-0.6702880859375,0.3692626953125,0.5234375,0.37457275390625,7758,529,1036,20,21,248
233471564,-0.68328857421875,0.3818359375,0.51177978515625,0.3541259765625,7670,121,1013,23,20,239
233481548,-0.695068359375,0.39312744140625,0.50048828125,0.3343505859375,7613,-205,1041,24,19,225
233491529,-0.70556640625,0.40289306640625,0.4898681640625,0.31591796875,7645,-508,1127,24,18,205
233501513,-0.71490478515625,0.41143798828125,0.47979736328125,0.29901123046875,7710,-791,1259,22,18,189
233511494,-0.723388671875,0.4189453125,0.469970703125,0.28326416015625,7764,-1052,1413,20,19,176
233521479,-0.7310791015625,0.4256591796875,0.46044921875,0.26885986328125,7783,-1284,1524,18,21,162
233531461,-0.738037109375,0.4315185546875,0.451171875,0.25604248046875,7750,-1492,1609,15,24,147
233541449,-0.744140625,0.4365234375,0.44232177734375,0.2449951171875,7661,-1716,1693,11,27,129
233551432,-0.74951171875,0.440673828125,0.43402099609375,0.23583984375,7485,-1979,1757,8,30,110
233561417,-0.75421142578125,0.444091796875,0.42620849609375,0.2286376953125,7216,-2184,1843,5,31,92
233571399,-0.75823974609375,0.44671630859375,0.41912841796875,0.22320556640625,6882,-2394,1929,1,32,74
233581377,-0.76171875,0.44915771484375,0.41241455078125,0.218994140625,6503,-2475,1922,-2,32,65
233591360,-0.7647705078125,0.4517822265625,0.40582275390625,0.21527099609375,6122,-2401,1962,-8,32,64
233601340,-0.76776123046875,0.45526123046875,0.3984375,0.21099853515625,5861,-2364,2082,-14,32,79
233611323,-0.77105712890625,0.46063232421875,0.38922119140625,0.204345703125,5698,-2428,2160,-20,32,111
233621306,-0.77490234375,0.46856689453125,0.37744140625,0.1937255859375,5610,-2643,2229,-25,31,159
233631293,-0.779541015625,0.47943115234375,0.3619384765625,0.17724609375,5517,-3046,2201,-27,31,223
233641271,-0.78497314453125,0.49310302734375,0.342041015625,0.1539306640625,5376,-3598,2112,-26,31,292
233651256,-0.7904052734375,0.50872802734375,0.31793212890625,0.12408447265625,5161,-4196,2013,-24,30,353
233661245,-0.79498291015625,0.52490234375,0.29058837890625,0.08941650390625,4902,-4716,1950,-22,28,392
233671226,-0.7979736328125,0.54034423828125,0.26165771484375,0.05255126953125,4676,-5217,1914,-20,25,405
233681211,-0.79901123046875,0.5543212890625,0.23260498046875,0.01580810546875,4443,-5735,1908,-19,24,398
233691190,-0.7982177734375,0.56634521484375,0.204345703125,-0.0191650390625,4113,-6273,1920,-19,24,377
233701183,-0.79583740234375,0.57659912109375,0.1773681640625,-0.05157470703125,3639,-6850,1930,-18,24,349
233711165,-0.7923583984375,0.58514404296875,0.152099609375,-0.08111572265625,3137,-7371,1919,-17,24,320
233721143,-0.78802490234375,0.59228515625,0.12884521484375,-0.10748291015625,2641,-7745,1862,-17,24,288
233731120,-0.783203125,0.5982666015625,0.10772705078125,-0.13055419921875,2154,-8006,1840,-17,25,256
233741103,-0.7783203125,0.6031494140625,0.0882568359375,-0.15057373046875,1727,-8101,1855,-15,29,230
233751087,-0.7735595703125,0.60711669921875,0.07037353515625,-0.16741943359375,1356,-8098,1914,-14,34,201
233761068,-0.76922607421875,0.6104736328125,0.05413818359375,-0.18096923828125,946,-8081,1937,-13,40,171
233771052,-0.7650146484375,0.613525390625,0.039306640625,-0.19183349609375,477,-8070,1873,-13,43,148
233781036,-0.76080322265625,0.6165771484375,0.02557373046875,-0.20098876953125,5,-8030,1664,-15,43,132
233791019,-0.7562255859375,0.61981201171875,0.01251220703125,-0.2093505859375,-422,-7970,1344,-17,42,127
233801002,-0.7510986328125,0.62322998046875,-0.0006103515625,-0.2178955078125,-794,-7927,1022,-18,41,132
233810991,-0.7452392578125,0.6265869140625,-0.0145263671875,-0.22760009765625,-1104,-7864,795,-20,40,147
233820974,-0.738525390625,0.629638671875,-0.02996826171875,-0.23919677734375,-1406,-7756,773,-22,39,170
233830951,-0.73065185546875,0.63232421875,-0.04718017578125,-0.25311279296875,-1694,-7621,875,-25,38,196
233840934,-0.72137451171875,0.634521484375,-0.06640625,-0.2694091796875,-1880,-7457,964,-28,38,225
233850917,-0.71044921875,0.63623046875,-0.0875244140625,-0.28765869140625,-1939,-7238,952,-30,40,252
233860900,-0.69793701171875,0.63751220703125,-0.11029052734375,-0.30712890625,-1920,-6910,900,-32,44,270
233870885,-0.684326171875,0.63836669921875,-0.1336669921875,-0.32598876953125,-1941,-6493,800,-34,51,268
233880869,-0.67034912109375,0.63934326171875,-0.1563720703125,-0.3426513671875,-2075,-6043,704,-36,60,248
233890850,-0.656494140625,0.6407470703125,-0.177734375,-0.3563232421875,-2239,-5615,565,-37,70,223
233900833,-0.64251708984375,0.64263916015625,-0.1982421875,-0.36724853515625,-2489,-5231,404,-39,80,204
233910817,-0.6282958984375,0.64483642578125,-0.21856689453125,-0.37640380859375,-2842,-4807,215,-39,89,195
233920800,-0.6134033203125,0.64703369140625,-0.2392578125,-0.384521484375,-3222,-4291,-29,-38,96,192
233930784,-0.5977783203125,0.64892578125,-0.26055908203125,-0.39208984375,-3612,-3700,-267,-38,102,194
233940770,-0.58123779296875,0.650390625,-0.282470703125,-0.39923095703125,-4012,-3086,-492,-38,106,197
233950754,-0.56365966796875,0.65118408203125,-0.3050537109375,-0.40643310546875,-4312,-2463,-716,-38,109,205
233960738,-0.54510498046875,0.6512451171875,-0.32818603515625,-0.41357421875,-4515,-1883,-900,-38,112,212
233970714,-0.5257568359375,0.650634765625,-0.3514404296875,-0.42041015625,-4680,-1407,-1021,-38,114,214
233980696,-0.506103515625,0.6495361328125,-0.37420654296875,-0.42657470703125,-4895,-1025,-1089,-38,115,209
233990681,-0.4866943359375,0.64825439453125,-0.39581298828125,-0.431640625,-5205,-823,-1102,-37,116,197
234000663,-0.4681396484375,0.64715576171875,-0.41552734375,-0.4351806640625,-5672,-873,-1053,-35,116,178
234010645,-0.45135498046875,0.64678955078125,-0.43255615234375,-0.4368896484375,-6440,-1217,-994,-32,113,149
234020627,-0.43743896484375,0.64764404296875,-0.44586181640625,-0.43646240234375,-7432,-1679,-921,-29,108,107
234030612,-0.4268798828125,0.6505126953125,-0.45458984375,-0.43359375,-8252,-1900,-935,-27,100,52
234040592,-0.41973876953125,0.65594482421875,-0.4583740234375,-0.42840576171875,-8823,-1865,-1120,-26,91,-6
234050570,-0.41552734375,0.663818359375,-0.45758056640625,-0.421142578125,-9301,-1773,-1500,-26,81,-58
234060553,-0.4139404296875,0.67388916015625,-0.452392578125,-0.4122314453125,-9743,-1723,-2015,-28,71,-105
234070542,-0.4146728515625,0.6856689453125,-0.443115234375,-0.4019775390625,-10122,-1798,-2581,-29,59,-144
234080518,-0.41729736328125,0.69842529296875,-0.430419921875,-0.3909912109375,-10512,-1998,-3072,-31,47,-173
234090504,-0.4212646484375,0.71124267578125,-0.41510009765625,-0.3800048828125,-10968,-2321,-3484,-31,34,-189
234100487,-0.4261474609375,0.7232666015625,-0.3983154296875,-0.36968994140625,-11391,-2825,-3896,-30,20,-192
234110471,-0.43133544921875,0.73394775390625,-0.38116455078125,-0.36053466796875,-11686,-3441,-4314,-28,6,-182
234120453,-0.43658447265625,0.74267578125,-0.36474609375,-0.353271484375,-11829,-4070,-4576,-25,-9,-162
234130430,-0.441650390625,0.7491455078125,-0.3499755859375,-0.34820556640625,-11826,-4680,-4641,-20,-22,-134
234140422,-0.44647216796875,0.75311279296875,-0.33746337890625,-0.3458251953125,-11703,-5294,-4532,-14,-35,-100
234150406,-0.4510498046875,0.754638671875,-0.32769775390625,-0.34600830078125,-11490,-5856,-4354,-7,-46,-64
234160390,-0.4552001953125,0.75372314453125,-0.32098388671875,-0.3487548828125,-11321,-6291,-4123,1,-55,-28
234170370,-0.4588623046875,0.75042724609375,-0.31756591796875,-0.35418701171875,-11155,-6569,-3861,8,-64,11
234180350,-0.46173095703125,0.7447509765625,-0.3177490234375,-0.3623046875,-10956,-6725,-3546,16,-72,52
234190331,-0.4637451171875,0.73663330078125,-0.3212890625,-0.37298583984375,-10766,-6741,-3177,23,-78,90
234200314,-0.4649658203125,0.72650146484375,-0.32769775390625,-0.3856201171875,-10548,-6547,-2809,30,-84,121
234210297,-0.46527099609375,0.7144775390625,-0.33624267578125,-0.4000244140625,-10275,-6170,-2451,34,-89,146
234220281,-0.46484375,0.70098876953125,-0.34613037109375,-0.4156494140625,-10047,-5675,-2084,36,-94,161
234230266,-0.46380615234375,0.6864013671875,-0.3565673828125,-0.43206787109375,-9887,-5122,-1773,36,-99,169
234240256,-0.4622802734375,0.67095947265625,-0.3668212890625,-0.448974609375,-9795,-4554,-1483,35,-104,174
234250239,-0.46026611328125,0.65478515625,-0.3768310546875,-0.46636962890625,-9718,-3997,-1230,33,-110,177
234260222,-0.4576416015625,0.6378173828125,-0.3863525390625,-0.4842529296875,-9631,-3438,-1068,29,-116,181
234270205,-0.4544677734375,0.6204833984375,-0.39508056640625,-0.50238037109375,-9501,-2876,-945,23,-121,179
234280189,-0.4510498046875,0.6033935546875,-0.4024658203125,-0.5201416015625,-9391,-2362,-902,17,-123,168
234290179,-0.44805908203125,0.5872802734375,-0.4078369140625,-0.5367431640625,-9302,-1949,-940,11,-124,147
234300164,-0.446044921875,0.5726318359375,-0.41082763671875,-0.5517578125,-9281,-1589,-1043,6,-124,120
234310140,-0.4454345703125,0.55950927734375,-0.41156005859375,-0.56500244140625,-9237,-1269,-1149,3,-124,91
234320119,-0.44647216796875,0.5477294921875,-0.4100341796875,-0.57672119140625,-9157,-973,-1187,1,-125,64
234330103,-0.44866943359375,0.53692626953125,-0.406982421875,-0.58721923828125,-9019,-700,-1121,-1,-125,46
234340084,-0.4510498046875,0.52630615234375,-0.40338134765625,-0.597412109375,-8840,-437,-993,-3,-124,45
234350065,-0.452392578125,0.51519775390625,-0.40020751953125,-0.60809326171875,-8665,-173,-875,-6,-123,58
234360051,-0.45233154296875,0.50372314453125,-0.397705078125,-0.6192626953125,-8422,45,-764,-8,-120,69
234370030,-0.451416015625,0.492431640625,-0.3955078125,-0.63037109375,-8118,185,-702,-10,-115,72
234380017,-0.4500732421875,0.48162841796875,-0.39349365234375,-0.64080810546875,-7810,350,-585,-11,-107,71
234389999,-0.44769287109375,0.47125244140625,-0.3919677734375,-0.651123046875,-7493,557,-376,-14,-98,78
234399987,-0.44354248046875,0.46087646484375,-0.3912353515625,-0.66168212890625,-7126,736,-33,-19,-88,93
234409965,-0.4375,0.45086669921875,-0.3912353515625,-0.67254638671875,-6742,838,363,-23,-75,105
234419945,-0.4298095703125,0.4412841796875,-0.39208984375,-0.68328857421875,-6391,851,772,-25,-62,117
234429929,-0.420166015625,0.431884765625,-0.39434814453125,-0.69390869140625,-6103,842,1061,-22,-49,135
234439913,-0.4080810546875,0.42218017578125,-0.398681640625,-0.70452880859375,-5797,859,1178,-19,-37,159
234449896,-0.39306640625,0.41192626953125,-0.4051513671875,-0.71533203125,-5413,892,1188,-15,-25,187
234459880,-0.37451171875,0.40069580078125,-0.41400146484375,-0.7265625,-4910,992,1156,-12,-12,221
234469864,-0.35211181640625,0.38836669921875,-0.42498779296875,-0.73797607421875,-4300,1085,1135,-9,2,253
234479845,-0.32647705078125,0.37530517578125,-0.4378662109375,-0.74896240234375,-3674,1013,1145,-4,16,278
234489830,-0.29876708984375,0.3619384765625,-0.45196533203125,-0.7586669921875,-2991,1032,1161,5,30,288
234499810,-0.27008056640625,0.3487548828125,-0.46710205078125,-0.766357421875,-2398,987,1138,17,43,290
234509793,-0.24127197265625,0.33587646484375,-0.48321533203125,-0.771728515625,-1922,904,1073,31,54,286
234519775,-0.2125244140625,0.32330322265625,-0.50018310546875,-0.77471923828125,-1556,864,948,45,63,283
234529765,-0.1837158203125,0.31072998046875,-0.5179443359375,-0.77557373046875,-1279,833,830,58,69,282
234539748,-0.15521240234375,0.29803466796875,-0.5362548828125,-0.77435302734375,-1112,829,745,72,72,279
234549732,-0.1278076171875,0.28546142578125,-0.5548095703125,-0.77099609375,-1039,855,660,85,73,267
234559710,-0.10260009765625,0.273681640625,-0.5732421875,-0.7655029296875,-1126,963,592,98,72,246
234569695,-0.0804443359375,0.26324462890625,-0.5911865234375,-0.7581787109375,-1481,1192,643,109,69,217
234579681,-0.06280517578125,0.2552490234375,-0.60791015625,-0.74932861328125,-2253,1703,878,117,64,174
234589665,-0.05096435546875,0.2506103515625,-0.62249755859375,-0.73974609375,-3108,2477,1355,121,57,117
234599646,-0.04486083984375,0.24945068359375,-0.63494873046875,-0.7298583984375,-3357,3285,1565,120,50,59
234609629,-0.04278564453125,0.25115966796875,-0.6458740234375,-0.7197265625,-3197,4216,1422,116,46,13
234619607,-0.04351806640625,0.25518798828125,-0.65533447265625,-0.70965576171875,-2896,5334,1125,109,44,-23
234629587,-0.0465087890625,0.26165771484375,-0.6632080078125,-0.69976806640625,-2656,6460,712,100,45,-56
234639571,-0.05120849609375,0.270263671875,-0.66943359375,-0.69012451171875,-2489,7382,259,90,46,-80
234649552,-0.0567626953125,0.28057861328125,-0.67413330078125,-0.680908203125,-2423,8152,-113,81,49,-95
234659542,-0.0621337890625,0.29168701171875,-0.6776123046875,-0.6722412109375,-2507,8857,-400,70,53,-99
234669518,-0.06646728515625,0.3028564453125,-0.68011474609375,-0.66436767578125,-2707,9554,-719,58,57,-94
234679502,-0.06927490234375,0.31365966796875,-0.68182373046875,-0.65728759765625,-3056,10173,-1130,45,60,-84
234689486,-0.070556640625,0.32373046875,-0.68280029296875,-0.65118408203125,-3509,10728,-1561,31,60,-71
234699470,-0.0701904296875,0.33282470703125,-0.68310546875,-0.64630126953125,-3994,11177,-1928,17,61,-57
234709454,-0.06817626953125,0.3408203125,-0.68280029296875,-0.6427001953125,-4420,11441,-2224,2,60,-41
234719431,-0.06463623046875,0.34765625,-0.681884765625,-0.640380859375,-4811,11517,-2418,-12,59,-27
234729420,-0.059814453125,0.353515625,-0.68023681640625,-0.63934326171875,-5159,11396,-2508,-25,57,-15
234739405,-0.05419921875,0.35870361328125,-0.67791748046875,-0.63946533203125,-5477,11152,-2557,-37,55,-7
234749388,-0.04815673828125,0.36346435546875,-0.6748046875,-0.6405029296875,-5779,10878,-2561,-46,52,-3
234759369,-0.04168701171875,0.36767578125,-0.67108154296875,-0.64251708984375,-6033,10621,-2552,-56,49,2
234769350,-0.0350341796875,0.3714599609375,-0.666748046875,-0.64520263671875,-6283,10336,-2523,-63,45,5
234779328,-0.0283203125,0.37493896484375,-0.66192626953125,-0.6484375,-6515,9963,-2477,-68,42,6
234789314,-0.02197265625,0.37811279296875,-0.65673828125,-0.65216064453125,-6741,9542,-2341,-71,37,7
234799296,-0.01580810546875,0.380615234375,-0.65142822265625,-0.65618896484375,-6912,9091,-2114,-71,32,13
234809278,-0.0096435546875,0.382080078125,-0.646240234375,-0.6605224609375,-7039,8633,-1808,-71,26,20
234819262,-0.00372314453125,0.3826904296875,-0.64129638671875,-0.6650390625,-7112,8181,-1475,-68,20,24
234829244,0.00146484375,0.38275146484375,-0.63653564453125,-0.66961669921875,-7147,7797,-1141,-64,14,22
234839236,0.00537109375,0.38287353515625,-0.63165283203125,-0.67413330078125,-7120,7484,-856,-59,7,12
234849222,0.0074462890625,0.38360595703125,-0.626708984375,-0.67828369140625,-7022,7211,-664,-52,2,-2
234859194,0.0076904296875,0.3848876953125,-0.6217041015625,-0.68212890625,-6903,6966,-536,-46,-4,-16
234869184,0.00628662109375,0.3865966796875,-0.61676025390625,-0.6856689453125,-6783,6774,-399,-38,-9,-26
234879173,0.00390625,0.38812255859375,-0.61224365234375,-0.68890380859375,-6674,6642,-302,-32,-14,-27
234889144,0.0013427734375,0.388916015625,-0.60833740234375,-0.69189453125,-6527,6586,-241,-27,-18,-22
234899121,-0.00079345703125,0.388671875,-0.60540771484375,-0.69464111328125,-6344,6616,-235,-23,-22,-13
234909104,-0.00238037109375,0.38751220703125,-0.60321044921875,-0.69720458984375,-6131,6716,-268,-20,-23,-4
234919094,-0.00335693359375,0.38568115234375,-0.60150146484375,-0.69964599609375,-5903,6851,-306,-19,-24,2
234929071,-0.00384521484375,0.38336181640625,-0.6002197265625,-0.7020263671875,-5671,6980,-336,-19,-24,7
234939055,-0.00384521484375,0.3807373046875,-0.5989990234375,-0.7044677734375,-5437,7053,-335,-20,-23,10
234949037,-0.00372314453125,0.37811279296875,-0.59771728515625,-0.7069091796875,-5216,7053,-300,-21,-23,8
234959021,-0.00396728515625,0.37603759765625,-0.59613037109375,-0.70941162109375,-5030,7012,-260,-22,-22,2
234969005,-0.0050048828125,0.3746337890625,-0.593994140625,-0.71197509765625,-4889,7011,-227,-23,-22,-8
234978992,-0.0067138671875,0.37371826171875,-0.5914306640625,-0.7144775390625,-4779,7098,-233,-24,-22,-15
234988975,-0.0084228515625,0.37298583984375,-0.5888671875,-0.71697998046875,-4663,7280,-290,-24,-22,-16
234998951,-0.00946044921875,0.37188720703125,-0.58660888671875,-0.71942138671875,-4537,7476,-365,-25,-21,-9
235008934,-0.009521484375,0.370361328125,-0.5845947265625,-0.72186279296875,-4400,7611,-382,-27,-19,-1
235018922,-0.00860595703125,0.36834716796875,-0.582763671875,-0.724365234375,-4281,7647,-328,-29,-17,7
235028902,-0.0069580078125,0.3660888671875,-0.580810546875,-0.72711181640625,-4163,7585,-203,-32,-15,11
235038885,-0.00537109375,0.3641357421875,-0.57855224609375,-0.7298583984375,-4087,7382,-33,-33,-13,8
235048871,-0.00457763671875,0.3629150390625,-0.5755615234375,-0.7327880859375,-4067,7087,205,-34,-12,-3
235058849,-0.005126953125,0.36285400390625,-0.57183837890625,-0.73577880859375,-4093,6756,451,-34,-12,-18
235068833,-0.00714111328125,0.3638916015625,-0.5673828125,-0.73870849609375,-4133,6393,663,-33,-12,-32
235078819,-0.01031494140625,0.36566162109375,-0.5625,-0.74151611328125,-4175,6028,829,-31,-12,-42
235088803,-0.01446533203125,0.3680419921875,-0.55731201171875,-0.74420166015625,-4215,5662,971,-29,-12,-50
235098785,-0.01934814453125,0.37078857421875,-0.5518798828125,-0.7467041015625,-4274,5289,1156,-27,-13,-56
235108765,-0.024658203125,0.373779296875,-0.5462646484375,-0.74920654296875,-4359,4871,1420,-26,-13,-58
235118757,-0.03009033203125,0.3765869140625,-0.54071044921875,-0.7515869140625,-4489,4397,1746,-23,-13,-55
235128740,-0.03521728515625,0.37896728515625,-0.5355224609375,-0.75396728515625,-4672,3841,2101,-19,-13,-47
235138715,-0.039794921875,0.3807373046875,-0.53076171875,-0.75616455078125,-4902,3195,2481,-16,-13,-36
235148698,-0.0440673828125,0.3819580078125,-0.52655029296875,-0.75823974609375,-5137,2498,2824,-11,-14,-29
235158683,-0.04833984375,0.38299560546875,-0.5228271484375,-0.76007080078125,-5318,1804,3051,-6,-14,-25
235168666,-0.05279541015625,0.38397216796875,-0.51971435546875,-0.76141357421875,-5377,1194,3134,1,-14,-24
235178647,-0.057861328125,0.38525390625,-0.5172119140625,-0.7620849609375,-5354,749,3049,7,-13,-30
235188635,-0.0640869140625,0.38739013671875,-0.5150146484375,-0.761962890625,-5194,475,2884,15,-10,-44
235198616,-0.0721435546875,0.39068603515625,-0.51287841796875,-0.76104736328125,-4977,476,2693,22,-8,-64
235208598,-0.08203125,0.39532470703125,-0.5106201171875,-0.7591552734375,-4788,857,2405,28,-5,-86
235218580,-0.0933837890625,0.40130615234375,-0.50830078125,-0.7562255859375,-4683,1585,1876,33,-1,-106
235228567,-0.10552978515625,0.4085693359375,-0.5062255859375,-0.752197265625,-4628,2639,1098,34,3,-119
235238548,-0.11700439453125,0.4163818359375,-0.504638671875,-0.7471923828125,-4578,3933,117,34,9,-120
235248531,-0.126708984375,0.4241943359375,-0.50396728515625,-0.74169921875,-4674,5359,-852,30,15,-110
235258513,-0.1341552734375,0.431396484375,-0.504150390625,-0.736083984375,-4910,6839,-1679,27,20,-94
235268497,-0.139404296875,0.43780517578125,-0.505126953125,-0.7305908203125,-5224,8145,-2323,24,22,-78
235278481,-0.14337158203125,0.443603515625,-0.50653076171875,-0.725341796875,-5611,9253,-2751,23,23,-69
235288464,-0.1468505859375,0.44903564453125,-0.508056640625,-0.72021484375,-5959,10172,-3039,23,23,-67
235298449,-0.1505126953125,0.4542236328125,-0.509521484375,-0.71514892578125,-6249,10934,-3221,24,21,-69
235308436,-0.1546630859375,0.45947265625,-0.5106201171875,-0.7100830078125,-6421,11496,-3303,25,19,-76
235318419,-0.16009521484375,0.46502685546875,-0.51092529296875,-0.705078125,-6475,11847,-3247,26,16,-90
235328402,-0.16705322265625,0.47119140625,-0.5101318359375,-0.699951171875,-6435,11968,-3041,27,13,-106
235338378,-0.175537109375,0.47772216796875,-0.50811767578125,-0.69488525390625,-6324,11894,-2703,27,10,-121
235348361,-0.1849365234375,0.48431396484375,-0.50531005859375,-0.68988037109375,-6172,11669,-2247,27,7,-126
235358350,-0.19451904296875,0.490478515625,-0.5020751953125,-0.68524169921875,-5998,11345,-1751,27,5,-123
235368327,-0.2034912109375,0.49566650390625,-0.49896240234375,-0.68115234375,-5783,10953,-1243,25,2,-114
235378312,-0.21136474609375,0.49981689453125,-0.49615478515625,-0.67779541015625,-5559,10533,-791,22,-1,-98
235388293,-0.21746826171875,0.50244140625,-0.49407958984375,-0.6754150390625,-5314,10079,-367,18,-3,-75
235398275,-0.2213134765625,0.50347900390625,-0.492919921875,-0.67425537109375,-5074,9553,59,12,-5,-48
235408257,-0.2230224609375,0.5030517578125,-0.4923095703125,-0.6744384765625,-4826,8900,515,4,-6,-24
235418245,-0.22296142578125,0.5015869140625,-0.491943359375,-0.67578125,-4593,8180,984,-5,-8,-5
235428231,-0.22161865234375,0.49957275390625,-0.4913330078125,-0.67816162109375,-4428,7318,1432,-13,-9,6
235438211,-0.219970703125,0.49774169921875,-0.4898681640625,-0.68115234375,-4377,6219,1861,-22,-9,8
235448188,-0.2188720703125,0.49676513671875,-0.48681640625,-0.68438720703125,-4444,4809,2316,-30,-10,0
235458181,-0.21954345703125,0.4974365234375,-0.481201171875,-0.6876220703125,-4713,3016,2909,-38,-9,-19
235468165,-0.2227783203125,0.500244140625,-0.47247314453125,-0.69061279296875,-5164,1018,3605,-46,-9,-45
235478141,-0.228515625,0.505126953125,-0.46075439453125,-0.69305419921875,-5694,-1007,4058,-53,-8,-71
235488119,-0.2359619140625,0.51202392578125,-0.44683837890625,-0.69464111328125,-6117,-2846,4074,-60,-6,-91
235498101,-0.2437744140625,0.5205078125,-0.43182373046875,-0.69512939453125,-6416,-4492,3661,-65,-1,-98
235508089,-0.25091552734375,0.530029296875,-0.4166259765625,-0.69464111328125,-6637,-5933,2932,-69,6,-94
235518070,-0.25665283203125,0.5400390625,-0.40234375,-0.69329833984375,-6844,-7044,2008,-69,14,-83
235528052,-0.2607421875,0.55035400390625,-0.3895263671875,-0.69091796875,-7130,-7825,936,-66,22,-70
235538039,-0.2633056640625,0.5606689453125,-0.37860107421875,-0.68780517578125,-7574,-8181,-55,-60,30,-56
235548021,-0.2642822265625,0.57049560546875,-0.36981201171875,-0.68408203125,-8141,-8166,-985,-53,37,-40
235558003,-0.26409912109375,0.58001708984375,-0.36322021484375,-0.6796875,-8787,-7824,-1759,-43,44,-30
235567993,-0.26373291015625,0.589111328125,-0.3583984375,-0.67449951171875,-9496,-7218,-2417,-32,48,-28
235577977,-0.26373291015625,0.597900390625,-0.35498046875,-0.6685791015625,-10153,-6381,-2964,-20,51,-30
235587955,-0.264404296875,0.6060791015625,-0.3526611328125,-0.662109375,-10656,-5435,-3360,-8,50,-34
235597946,-0.26605224609375,0.613525390625,-0.3511962890625,-0.6553955078125,-10966,-4427,-3515,4,47,-39
235607921,-0.26898193359375,0.6201171875,-0.3499755859375,-0.6485595703125,-11115,-3370,-3439,14,43,-49
235617907,-0.27362060546875,0.62603759765625,-0.34857177734375,-0.64166259765625,-11211,-2214,-3204,23,38,-64
235627888,-0.27972412109375,0.63128662109375,-0.34686279296875,-0.634765625,-11334,-861,-2863,31,32,-77
235637877,-0.2864990234375,0.635498046875,-0.34539794921875,-0.62835693359375,-11502,633,-2401,38,26,-82
235647857,-0.293212890625,0.63812255859375,-0.34478759765625,-0.622802734375,-11628,2157,-1848,43,19,-76
235657839,-0.2996826171875,0.6392822265625,-0.34527587890625,-0.6182861328125,-11674,3609,-1238,49,13,-68
235667822,-0.30615234375,0.6392822265625,-0.34649658203125,-0.614501953125,-11680,4892,-556,54,9,-66
235677805,-0.31304931640625,0.638427734375,-0.347900390625,-0.611083984375,-11653,5987,64,58,5,-67
235687787,-0.32037353515625,0.636962890625,-0.3494873046875,-0.60791015625,-11622,6980,575,62,1,-69
235697766,-0.32757568359375,0.6346435546875,-0.3516845703125,-0.605224609375,-11577,7921,1002,65,-3,-62
235707756,-0.333740234375,0.63116455078125,-0.35498046875,-0.603515625,-11447,8726,1379,65,-8,-45
235717739,-0.3382568359375,0.62628173828125,-0.35986328125,-0.603271484375,-11163,9353,1709,63,-13,-20
235727718,-0.3408203125,0.619873046875,-0.36614990234375,-0.60467529296875,-10746,9761,1982,58,-19,6
235737697,-0.341552734375,0.6121826171875,-0.3734130859375,-0.60760498046875,-10256,9988,2206,52,-25,28
235747679,-0.3406982421875,0.603515625,-0.3812255859375,-0.61187744140625,-9696,10085,2319,44,-30,46
235757663,-0.33856201171875,0.59442138671875,-0.3887939453125,-0.6171875,-9083,10010,2353,35,-35,56
235767646,-0.33563232421875,0.5853271484375,-0.3956298828125,-0.62310791015625,-8468,9758,2285,25,-39,58
235777628,-0.33251953125,0.5767822265625,-0.40106201171875,-0.6292724609375,-7860,9344,2124,14,-42,54
235787612,-0.32952880859375,0.569091796875,-0.40478515625,-0.63543701171875,-7279,8745,1938,2,-44,45
235797594,-0.326904296875,0.56256103515625,-0.406494140625,-0.64141845703125,-6726,7997,1795,-9,-44,33
235807574,-0.3251953125,0.55755615234375,-0.40594482421875,-0.64703369140625,-6232,7120,1695,-19,-44,16
235817560,-0.324462890625,0.55419921875,-0.40301513671875,-0.652099609375,-5798,6080,1625,-30,-42,-3
235827542,-0.32464599609375,0.55267333984375,-0.39788818359375,-0.65643310546875,-5477,4703,1604,-39,-38,-17
235837522,-0.3255615234375,0.552490234375,-0.3909912109375,-0.6602783203125,-5279,2898,1723,-46,-33,-22
235847505,-0.32672119140625,0.55340576171875,-0.38287353515625,-0.6636962890625,-5150,829,1885,-51,-28,-20
235857488,-0.32769775390625,0.5552978515625,-0.37420654296875,-0.66656494140625,-5038,-1315,1962,-54,-21,-16
235867469,-0.32867431640625,0.558349609375,-0.36517333984375,-0.66845703125,-4925,-3457,1825,-55,-11,-18
235877458,-0.330078125,0.563232421875,-0.35577392578125,-0.66876220703125,-4854,-5486,1439,-54,0,-26
235887434,-0.33197021484375,0.57000732421875,-0.34625244140625,-0.6671142578125,-4928,-7208,844,-52,13,-33
235897426,-0.33331298828125,0.578125,-0.3375244140625,-0.6639404296875,-5241,-8464,102,-49,27,-30
235907410,-0.3330078125,0.58673095703125,-0.33087158203125,-0.65985107421875,-5741,-9240,-737,-45,39,-14
235917400,-0.3306884765625,0.595458984375,-0.326904296875,-0.6551513671875,-6422,-9621,-1657,-39,51,6
235927372,-0.3265380859375,0.60406494140625,-0.32568359375,-0.64990234375,-7225,-9617,-2505,-32,61,23
235937354,-0.3211669921875,0.6123046875,-0.32696533203125,-0.644287109375,-8137,-9271,-3267,-24,68,37
235947337,-0.31494140625,0.61968994140625,-0.3304443359375,-0.63848876953125,-9130,-8609,-3885,-15,71,48
235957320,-0.308349609375,0.6259765625,-0.335693359375,-0.6328125,-10086,-7700,-4330,-6,70,56
235967307,-0.3018798828125,0.630859375,-0.3421630859375,-0.6275634765625,-10946,-6616,-4598,3,64,60
235977293,-0.2957763671875,0.63433837890625,-0.3494873046875,-0.6229248046875,-11643,-5443,-4702,11,55,62
235987274,-0.29058837890625,0.63623046875,-0.3570556640625,-0.619140625,-12143,-4191,-4620,18,44,59
235997258,-0.2864990234375,0.6365966796875,-0.364501953125,-0.61627197265625,-12445,-2891,-4350,24,31,54
236007236,-0.2835693359375,0.63568115234375,-0.37158203125,-0.6143798828125,-12574,-1571,-3941,28,18,46
236017232,-0.28192138671875,0.633544921875,-0.3779296875,-0.61346435546875,-12578,-301,-3488,31,5,38
236027212,-0.28155517578125,0.6304931640625,-0.3834228515625,-0.6134033203125,-12475,862,-2999,33,-9,28
236037190,-0.28271484375,0.6265869140625,-0.38775634765625,-0.6141357421875,-12252,1850,-2442,36,-21,16
236047182,-0.2855224609375,0.62213134765625,-0.39080810546875,-0.61541748046875,-11885,2650,-1831,38,-33,1
236057163,-0.29022216796875,0.61724853515625,-0.3924560546875,-0.61712646484375,-11407,3262,-1205,40,-43,-13
236067137,-0.29644775390625,0.6119384765625,-0.39306640625,-0.6190185546875,-10847,3773,-607,43,-52,-25
236077115,-0.303955078125,0.606201171875,-0.392822265625,-0.6212158203125,-10231,4209,-80,45,-60,-34
236087098,-0.31207275390625,0.5999755859375,-0.3922119140625,-0.62353515625,-9593,4592,383,47,-66,-37
236097081,-0.3204345703125,0.59320068359375,-0.3916015625,-0.626220703125,-8926,4897,802,48,-70,-35
236107065,-0.328369140625,0.585693359375,-0.39117431640625,-0.62945556640625,-8244,5124,1217,47,-73,-29
236117051,-0.33575439453125,0.57763671875,-0.39105224609375,-0.63299560546875,-7566,5253,1593,45,-74,-22
236127031,-0.34228515625,0.5692138671875,-0.3912353515625,-0.63702392578125,-6915,5216,1916,41,-74,-11
236137017,-0.3477783203125,0.560546875,-0.39166259765625,-0.6414794921875,-6333,5026,2194,37,-72,-2
236147003,-0.3525390625,0.55224609375,-0.39202880859375,-0.64581298828125,-5790,4664,2347,32,-68,2
236156992,-0.3568115234375,0.544677734375,-0.39208984375,-0.64990234375,-5309,4104,2394,27,-62,3
236166973,-0.36065673828125,0.53802490234375,-0.39166259765625,-0.65350341796875,-4930,3374,2388,21,-56,3
236176952,-0.364013671875,0.53240966796875,-0.39093017578125,-0.65667724609375,-4672,2560,2395,16,-49,5
236186931,-0.36663818359375,0.527587890625,-0.39013671875,-0.65960693359375,-4500,1722,2416,12,-41,11
236199995,-0.367919921875,0.5234375,-0.38970947265625,-0.66241455078125,-4446,936,2371,7,-31,21
236206898,-0.36767578125,0.51995849609375,-0.3900146484375,-0.6651611328125,-4568,248,2195,2,-22,33
236216881,-0.365478515625,0.51702880859375,-0.39129638671875,-0.6678466796875,-4862,-243,1919,-1,-12,47
236226862,-0.361328125,0.5145263671875,-0.393798828125,-0.67059326171875,-5332,-551,1566,-5,-3,62
236236849,-0.35528564453125,0.51239013671875,-0.39752197265625,-0.6732177734375,-5953,-654,1129,-8,6,76
236246829,-0.3475341796875,0.51055908203125,-0.40240478515625,-0.67578125,-6719,-537,622,-9,13,87
236256813,-0.33843994140625,0.50897216796875,-0.4083251953125,-0.67803955078125,-7510,-216,98,-10,20,94
236266794,-0.32879638671875,0.50775146484375,-0.41461181640625,-0.67987060546875,-8258,226,-392,-10,25,93
236276775,-0.31903076171875,0.50701904296875,-0.42095947265625,-0.68115234375,-8917,757,-823,-10,28,88
236286767,-0.3095703125,0.506591796875,-0.42718505859375,-0.68194580078125,-9496,1368,-1132,-10,30,81
236296750,-0.3006591796875,0.50634765625,-0.4329833984375,-0.68243408203125,-9973,1950,-1342,-10,29,73
236306736,-0.29296875,0.506591796875,-0.43792724609375,-0.6824951171875,-10295,2468,-1466,-9,28,57
236316710,-0.28692626953125,0.5074462890625,-0.4415283203125,-0.68212890625,-10434,2862,-1488,-9,25,38
236326694,-0.282958984375,0.509033203125,-0.44366455078125,-0.68121337890625,-10391,3115,-1429,-9,22,15
236336676,-0.28125,0.51165771484375,-0.444091796875,-0.6796875,-10180,3229,-1290,-9,19,-10
236346654,-0.2818603515625,0.51531982421875,-0.4427490234375,-0.67755126953125,-9842,3219,-1105,-8,17,-35
236356638,-0.28466796875,0.51995849609375,-0.43963623046875,-0.6748046875,-9387,3101,-869,-8,15,-59
236366622,-0.28948974609375,0.5255126953125,-0.4349365234375,-0.6715087890625,-8867,2888,-578,-8,14,-81
236376604,-0.29583740234375,0.53173828125,-0.42877197265625,-0.66778564453125,-8306,2602,-284,-9,12,-97
236386588,-0.30316162109375,0.53839111328125,-0.421630859375,-0.6636962890625,-7737,2297,11,-9,11,-107
236396570,-0.310791015625,0.54498291015625,-0.4139404296875,-0.65960693359375,-7200,1972,313,-11,10,-109
236406553,-0.3182373046875,0.5513916015625,-0.4061279296875,-0.6556396484375,-6733,1626,599,-12,10,-105
236416542,-0.32489013671875,0.5572509765625,-0.39849853515625,-0.65203857421875,-6327,1292,869,-14,10,-96
236426522,-0.33050537109375,0.56243896484375,-0.39154052734375,-0.64898681640625,-6000,974,1116,-16,10,-81
236436504,-0.33453369140625,0.56683349609375,-0.385498046875,-0.646728515625,-5756,673,1293,-18,10,-62
236446485,-0.336669921875,0.57025146484375,-0.38079833984375,-0.6453857421875,-5638,446,1409,-20,10,-40
236456469,-0.3365478515625,0.57269287109375,-0.37774658203125,-0.64508056640625,-5670,323,1415,-23,11,-12
236466454,-0.333740234375,0.57391357421875,-0.37677001953125,-0.64599609375,-5853,309,1327,-25,11,18
236476432,-0.3282470703125,0.57379150390625,-0.37786865234375,-0.64825439453125,-6164,366,1186,-28,11,49
236486424,-0.3203125,0.5726318359375,-0.38079833984375,-0.651611328125,-6571,479,992,-30,11,75
236496408,-0.3104248046875,0.57049560546875,-0.38507080078125,-0.65570068359375,-7023,635,767,-31,11,95
236506390,-0.29931640625,0.5677490234375,-0.39019775390625,-0.66021728515625,-7493,821,534,-33,10,107
236516366,-0.28765869140625,0.56463623046875,-0.39556884765625,-0.66485595703125,-7968,1045,284,-34,9,109
236526350,-0.2762451171875,0.5616455078125,-0.40057373046875,-0.669189453125,-8467,1311,-8,-34,7,105
236536336,-0.265625,0.5589599609375,-0.40484619140625,-0.67315673828125,-8990,1612,-274,-34,5,92
236546318,-0.25640869140625,0.5567626953125,-0.407958984375,-0.6766357421875,-9470,1908,-518,-33,2,76
236556304,-0.2490234375,0.5552978515625,-0.40972900390625,-0.6795654296875,-9869,2151,-701,-33,-1,56
236566282,-0.24371337890625,0.5545654296875,-0.40997314453125,-0.68194580078125,-10134,2318,-796,-31,-4,34
236576268,-0.240478515625,0.55462646484375,-0.4088134765625,-0.68377685546875,-10248,2417,-820,-29,-6,13
236586256,-0.2391357421875,0.555419921875,-0.4063720703125,-0.68499755859375,-10198,2429,-754,-27,-7,-7
236596237,-0.23944091796875,0.556884765625,-0.4029541015625,-0.68572998046875,-9985,2377,-570,-24,-7,-23
236606219,-0.240966796875,0.55877685546875,-0.39886474609375,-0.68603515625,-9708,2299,-334,-21,-5,-34
236616205,-0.24310302734375,0.56109619140625,-0.39453125,-0.6859130859375,-9440,2252,-37,-19,-2,-40
236626187,-0.24530029296875,0.56353759765625,-0.39013671875,-0.68560791015625,-9162,2220,259,-18,1,-41
236636175,-0.2471923828125,0.56597900390625,-0.38604736328125,-0.68524169921875,-8872,2184,540,-18,4,-38
236646160,-0.2484130859375,0.568359375,-0.38232421875,-0.6849365234375,-8590,2130,798,-18,7,-31
236656128,-0.248779296875,0.57049560546875,-0.379150390625,-0.684814453125,-8348,2078,1041,-20,9,-22
236666112,-0.24822998046875,0.57232666015625,-0.37646484375,-0.6849365234375,-8146,2035,1228,-22,10,-13
236676095,-0.2467041015625,0.5738525390625,-0.37432861328125,-0.6854248046875,-7969,1976,1362,-24,11,-4
236686083,-0.2442626953125,0.57501220703125,-0.3726806640625,-0.6861572265625,-7817,1909,1465,-25,11,6
236696064,-0.240966796875,0.57574462890625,-0.37152099609375,-0.6873779296875,-7683,1878,1525,-27,11,15
236706051,-0.2369384765625,0.576171875,-0.37078857421875,-0.6888427734375,-7580,1868,1528,-28,9,22
236716028,-0.232421875,0.5762939453125,-0.3702392578125,-0.6905517578125,-7531,1880,1468,-30,8,26
236726011,-0.2276611328125,0.5762939453125,-0.36968994140625,-0.6923828125,-7501,1899,1361,-31,7,28
236735996,-0.2227783203125,0.57623291015625,-0.36920166015625,-0.6943359375,-7488,1904,1233,-32,5,29
236745983,-0.2177734375,0.5760498046875,-0.36865234375,-0.69635009765625,-7472,1943,1069,-33,4,30
236755960,-0.2127685546875,0.57586669921875,-0.3680419921875,-0.6983642578125,-7491,2001,899,-33,3,29
236765944,-0.2078857421875,0.57562255859375,-0.367431640625,-0.7003173828125,-7528,2045,724,-33,2,28
236775926,-0.20306396484375,0.57537841796875,-0.3668212890625,-0.7022705078125,-7531,2108,567,-32,1,28
236785915,-0.19842529296875,0.57525634765625,-0.36614990234375,-0.70404052734375,-7544,2163,416,-32,1,26
236795897,-0.19390869140625,0.5751953125,-0.365478515625,-0.70574951171875,-7565,2239,281,-31,1,24
236805882,-0.1895751953125,0.5751953125,-0.36468505859375,-0.707275390625,-7613,2311,175,-31,2,23
236815865,-0.1854248046875,0.57537841796875,-0.36395263671875,-0.7086181640625,-7645,2399,80,-30,3,20
236825848,-0.181396484375,0.5758056640625,-0.363037109375,-0.70977783203125,-7666,2480,14,-29,4,17
236835830,-0.177734375,0.57647705078125,-0.3619384765625,-0.710693359375,-7675,2540,-20,-29,6,13
236845813,-0.17437744140625,0.5775146484375,-0.3604736328125,-0.71142578125,-7677,2578,-15,-29,8,8
236855795,-0.17138671875,0.57891845703125,-0.3587646484375,-0.7119140625,-7674,2600,3,-29,10,4
236865772,-0.1685791015625,0.58050537109375,-0.35675048828125,-0.7122802734375,-7678,2612,57,-29,12,1
236875764,-0.16583251953125,0.582275390625,-0.35467529296875,-0.7125244140625,-7695,2614,91,-30,12,0
