subject,Two-hands and jerked
arm,neither
label,0
hz,100.17106135092234
time,5.061342

timestamp_us,q0,q1,q2,q3,ax,ay,az,gx,gy,gz
282747449,0.60406494140625,-0.77325439453125,0.19219970703125,-0.0157470703125,-1900,-7802,-2301,-5,-32,-8
282757432,0.60430908203125,-0.77386474609375,0.189208984375,-0.0130615234375,-1975,-7800,-2294,-5,-33,-9
282767416,0.6046142578125,-0.7744140625,0.18597412109375,-0.010498046875,-2064,-7808,-2275,-5,-33,-11
282777398,0.6048583984375,-0.77508544921875,0.18255615234375,-0.00799560546875,-2141,-7826,-2290,-5,-33,-13
282787376,0.605224609375,-0.775634765625,0.178955078125,-0.00555419921875,-2209,-7898,-2292,-5,-34,-15
282797358,0.6055908203125,-0.7762451171875,0.1751708984375,-0.0030517578125,-2288,-7988,-2296,-4,-36,-15
282807344,0.6060791015625,-0.7767333984375,0.1712646484375,-0.00048828125,-2346,-8085,-2286,-4,-36,-15
282817325,0.606689453125,-0.77716064453125,0.16729736328125,0.00213623046875,-2420,-8164,-2264,-3,-37,-17
282827306,0.60736083984375,-0.77752685546875,0.16302490234375,0.00469970703125,-2499,-8234,-2253,-2,-38,-19
282837293,0.608154296875,-0.77783203125,0.1583251953125,0.00701904296875,-2550,-8333,-2273,0,-39,-24
282847272,0.60906982421875,-0.77813720703125,0.153076171875,0.009033203125,-2558,-8470,-2291,2,-40,-29
282857256,0.6102294921875,-0.7783203125,0.1473388671875,0.0106201171875,-2533,-8650,-2298,4,-41,-33
282867237,0.61163330078125,-0.77838134765625,0.14105224609375,0.01190185546875,-2471,-8821,-2318,6,-41,-37
282877229,0.6131591796875,-0.7783203125,0.13446044921875,0.012939453125,-2390,-8993,-2372,8,-42,-40
282887211,0.61492919921875,-0.778076171875,0.12762451171875,0.013671875,-2284,-9191,-2403,12,-42,-41
282897193,0.61700439453125,-0.77752685546875,0.1207275390625,0.01434326171875,-2172,-9386,-2427,15,-42,-42
282907186,0.61932373046875,-0.7767333984375,0.11376953125,0.014892578125,-2063,-9549,-2463,18,-41,-42
282917173,0.62188720703125,-0.775634765625,0.10675048828125,0.0152587890625,-1946,-9639,-2471,22,-41,-43
282927154,0.624755859375,-0.7742919921875,0.09967041015625,0.01531982421875,-1817,-9644,-2440,25,-40,-45
282937123,0.62786865234375,-0.772705078125,0.09228515625,0.01495361328125,-1678,-9612,-2400,28,-38,-49
282947107,0.631103515625,-0.77093505859375,0.0848388671875,0.01416015625,-1533,-9552,-2368,31,-36,-51
282957089,0.634521484375,-0.7689208984375,0.077392578125,0.0130615234375,-1383,-9511,-2343,33,-35,-51
282967071,0.63800048828125,-0.7667236328125,0.07025146484375,0.0118408203125,-1234,-9474,-2319,35,-32,-49
282977056,0.64154052734375,-0.76434326171875,0.06378173828125,0.01080322265625,-1079,-9470,-2290,36,-30,-43
282987039,0.64501953125,-0.76190185546875,0.0579833984375,0.01007080078125,-912,-9473,-2229,36,-28,-36
282997022,0.64837646484375,-0.7593994140625,0.05316162109375,0.0098876953125,-739,-9473,-2153,35,-27,-26
283007002,0.65167236328125,-0.7568359375,0.04937744140625,0.01031494140625,-578,-9461,-2066,34,-25,-16
283016992,0.65472412109375,-0.75439453125,0.046630859375,0.011474609375,-436,-9416,-1974,32,-24,-6
283026980,0.65753173828125,-0.75201416015625,0.0447998046875,0.01312255859375,-309,-9271,-1884,30,-22,2
283036951,0.66015625,-0.749755859375,0.04345703125,0.01507568359375,-229,-9023,-1773,28,-21,6
283046934,0.66259765625,-0.74761962890625,0.042236328125,0.0169677734375,-172,-8682,-1655,26,-20,4
283056920,0.66497802734375,-0.74554443359375,0.04071044921875,0.0184326171875,-136,-8273,-1490,25,-19,-1
283066900,0.66729736328125,-0.7435302734375,0.0386962890625,0.0191650390625,-99,-7813,-1291,25,-17,-9
283076882,0.669677734375,-0.7415771484375,0.0360107421875,0.01910400390625,-83,-7320,-1059,24,-16,-17
283086866,0.6719970703125,-0.73956298828125,0.03265380859375,0.01824951171875,-61,-6794,-806,23,-14,-26
283096852,0.6744384765625,-0.737548828125,0.02874755859375,0.01654052734375,-58,-6232,-527,23,-13,-34
283106836,0.67694091796875,-0.73553466796875,0.02423095703125,0.01416015625,-100,-5635,-241,23,-11,-43
283116820,0.67950439453125,-0.73333740234375,0.01922607421875,0.01092529296875,-165,-5001,57,23,-9,-51
283126801,0.68206787109375,-0.73114013671875,0.013671875,0.00689697265625,-248,-4355,327,23,-7,-59
283136784,0.6846923828125,-0.72882080078125,0.0076904296875,0.00213623046875,-342,-3671,549,24,-5,-67
283146766,0.687255859375,-0.72637939453125,0.0013427734375,-0.0032958984375,-471,-2989,754,24,-3,-73
283156753,0.68988037109375,-0.723876953125,-0.00531005859375,-0.00921630859375,-616,-2321,945,24,-2,-78
283166741,0.69244384765625,-0.72119140625,-0.01202392578125,-0.015625,-800,-1727,1099,24,0,-82
283176713,0.69488525390625,-0.718505859375,-0.018798828125,-0.0224609375,-986,-1226,1211,23,2,-85
283186695,0.69720458984375,-0.7158203125,-0.025390625,-0.02947998046875,-1119,-921,1294,23,4,-85
283196679,0.6993408203125,-0.713134765625,-0.03155517578125,-0.03631591796875,-1185,-847,1305,21,6,-81
283206662,0.70123291015625,-0.710693359375,-0.03704833984375,-0.0428466796875,-1122,-1058,1262,19,7,-72
283216645,0.70281982421875,-0.70849609375,-0.0413818359375,-0.0484619140625,-909,-1644,1156,16,8,-58
283226628,0.70391845703125,-0.70697021484375,-0.0439453125,-0.05242919921875,-551,-2660,919,11,8,-33
283236614,0.70452880859375,-0.70635986328125,-0.04364013671875,-0.05328369140625,-100,-4001,565,4,6,7
283246591,0.7044677734375,-0.7069091796875,-0.03924560546875,-0.0496826171875,347,-5551,255,-5,3,61
283256572,0.703857421875,-0.70849609375,-0.03021240234375,-0.04107666015625,796,-7291,64,-15,0,118
283266559,0.70245361328125,-0.7110595703125,-0.01666259765625,-0.02752685546875,1197,-9235,-9,-27,-3,174
283276542,0.69989013671875,-0.71417236328125,0.00067138671875,-0.0101318359375,1444,-11102,-76,-38,-3,216
283286522,0.6959228515625,-0.71771240234375,0.02044677734375,0.009521484375,1414,-12503,-240,-48,-2,240
283296511,0.69049072265625,-0.7215576171875,0.0408935546875,0.02960205078125,1087,-13533,-581,-56,0,240
283306489,0.683837890625,-0.7255859375,0.06011962890625,0.0478515625,571,-14243,-1074,-61,4,216
283316471,0.67633056640625,-0.72998046875,0.076416015625,0.06256103515625,-25,-14601,-1677,-64,8,173
283326454,0.668701171875,-0.7347412109375,0.08819580078125,0.072265625,-643,-14792,-2326,-63,12,114
283336435,0.66156005859375,-0.74005126953125,0.09429931640625,0.0762939453125,-1185,-14915,-2966,-59,15,46
283346428,0.65557861328125,-0.7454833984375,0.09454345703125,0.0745849609375,-1595,-14921,-3447,-51,16,-21
283356406,0.651123046875,-0.7506103515625,0.08966064453125,0.068115234375,-1847,-14681,-3712,-41,16,-76
283366390,0.6480712890625,-0.75494384765625,0.08123779296875,0.05865478515625,-1961,-14150,-3754,-29,15,-110
283376366,0.6463623046875,-0.7581787109375,0.07098388671875,0.0478515625,-1976,-13289,-3552,-17,13,-125
283386350,0.64593505859375,-0.7601318359375,0.0601806640625,0.03680419921875,-1928,-12176,-3138,-5,11,-128
283396336,0.6466064453125,-0.7607421875,0.04974365234375,0.02630615234375,-1859,-10841,-2603,6,10,-123
283406319,0.64813232421875,-0.76031494140625,0.0399169921875,0.016357421875,-1784,-9349,-1998,14,9,-117
283416301,0.6502685546875,-0.759033203125,0.03070068359375,0.00701904296875,-1736,-7774,-1372,21,9,-111
283426284,0.6529541015625,-0.757080078125,0.02197265625,-0.00201416015625,-1698,-6200,-773,25,10,-108
283436268,0.65594482421875,-0.75457763671875,0.013671875,-0.01080322265625,-1678,-4680,-173,29,10,-104
283446256,0.6591796875,-0.751708984375,0.0057373046875,-0.019287109375,-1697,-3223,422,30,11,-100
283456240,0.66253662109375,-0.74853515625,-0.00164794921875,-0.0274658203125,-1759,-1882,1002,31,11,-96
283466222,0.666015625,-0.74505615234375,-0.00848388671875,-0.03515625,-1828,-751,1489,31,11,-89
283476205,0.66949462890625,-0.741455078125,-0.01458740234375,-0.042236328125,-1873,113,1824,31,11,-80
283486194,0.6727294921875,-0.738037109375,-0.01971435546875,-0.04833984375,-1882,655,1943,30,10,-68
283496178,0.67578125,-0.73480224609375,-0.023681640625,-0.05316162109375,-1829,879,1884,29,8,-53
283506158,0.67852783203125,-0.73193359375,-0.02618408203125,-0.0565185546875,-1704,803,1682,27,7,-34
283516129,0.68096923828125,-0.7294921875,-0.02716064453125,-0.05810546875,-1542,396,1379,24,5,-14
283526117,0.68310546875,-0.7275390625,-0.02630615234375,-0.0577392578125,-1314,-427,987,20,3,9
283536095,0.68475341796875,-0.726318359375,-0.02325439453125,-0.05487060546875,-1006,-1674,517,15,0,38
283546079,0.68585205078125,-0.725830078125,-0.0177001953125,-0.04931640625,-585,-3328,42,8,-2,71
283556060,0.6861572265625,-0.72625732421875,-0.00958251953125,-0.041015625,-122,-5465,-463,-1,-5,103
283566044,0.68548583984375,-0.72747802734375,0.0009765625,-0.03009033203125,260,-8034,-888,-12,-7,133
283576027,0.68365478515625,-0.7294921875,0.013916015625,-0.016845703125,526,-10249,-1178,-25,-7,160
283586010,0.680419921875,-0.73223876953125,0.0286865234375,-0.001953125,650,-11876,-1387,-39,-7,180
283595995,0.67578125,-0.73565673828125,0.04437255859375,0.01348876953125,597,-13072,-1726,-51,-5,185
283605980,0.669677734375,-0.73974609375,0.05950927734375,0.0279541015625,362,-13950,-2238,-59,-1,172
283615961,0.66259765625,-0.744384765625,0.0723876953125,0.03985595703125,7,-14596,-2911,-63,1,139
283625941,0.6553955078125,-0.7493896484375,0.08123779296875,0.04766845703125,-426,-15070,-3587,-60,4,87
283635925,0.64910888671875,-0.7542724609375,0.0845947265625,0.0501708984375,-852,-15419,-4083,-51,6,20
283645906,0.64459228515625,-0.7586669921875,0.0819091796875,0.04718017578125,-1186,-15647,-4322,-37,6,-47
283655888,0.64215087890625,-0.761962890625,0.07391357421875,0.03955078125,-1402,-15438,-4272,-20,6,-102
283665877,0.64166259765625,-0.76385498046875,0.06231689453125,0.02886962890625,-1485,-14722,-3964,-1,5,-137
283675858,0.64300537109375,-0.76409912109375,0.0489501953125,0.01678466796875,-1484,-13534,-3464,16,4,-153
283685838,0.645751953125,-0.7626953125,0.0350341796875,0.00433349609375,-1410,-11960,-2827,31,3,-156
283695823,0.64971923828125,-0.75982666015625,0.02166748046875,-0.0078125,-1328,-10064,-2134,45,4,-150
283705808,0.6546630859375,-0.75567626953125,0.00933837890625,-0.0191650390625,-1284,-7972,-1395,55,5,-138
283715790,0.6602783203125,-0.75048828125,-0.0015869140625,-0.02947998046875,-1310,-5855,-673,62,6,-124
283725771,0.66632080078125,-0.74456787109375,-0.01092529296875,-0.0386962890625,-1379,-3862,-53,67,8,-108
283735762,0.67266845703125,-0.73828125,-0.0185546875,-0.046630859375,-1457,-2113,420,69,9,-90
283745745,0.678955078125,-0.7318115234375,-0.02447509765625,-0.0531005859375,-1509,-725,732,69,10,-72
283755722,0.68505859375,-0.7255859375,-0.02874755859375,-0.058349609375,-1495,196,886,66,11,-54
283765704,0.6907958984375,-0.71966552734375,-0.031494140625,-0.06219482421875,-1392,591,952,61,11,-37
283775686,0.69598388671875,-0.71441650390625,-0.03265380859375,-0.06451416015625,-1191,407,950,54,10,-17
283785675,0.700439453125,-0.71002197265625,-0.0318603515625,-0.06488037109375,-841,-391,950,44,8,8
283795655,0.7041015625,-0.706787109375,-0.02874755859375,-0.06256103515625,-342,-1910,976,31,6,40
283805640,0.70660400390625,-0.70489501953125,-0.02288818359375,-0.05718994140625,305,-4216,1072,15,3,77
283815623,0.7078857421875,-0.70452880859375,-0.01397705078125,-0.04840087890625,930,-6953,1240,-4,-1,116
283825601,0.7076416015625,-0.70556640625,-0.0025634765625,-0.03680419921875,1405,-9454,1338,-22,-2,145
283835583,0.7056884765625,-0.70806884765625,0.01025390625,-0.023681640625,1686,-11292,1172,-38,-3,159
283845566,0.701904296875,-0.7117919921875,0.02325439453125,-0.0106201171875,1732,-12643,670,-51,-1,156
283855551,0.696533203125,-0.71661376953125,0.03509521484375,0.00103759765625,1574,-13635,-93,-60,1,136
283865532,0.69012451171875,-0.72222900390625,0.04449462890625,0.0098876953125,1245,-14364,-985,-65,3,101
283875514,0.68328857421875,-0.728271484375,0.05023193359375,0.01470947265625,853,-14900,-1829,-64,6,51
283885499,0.67681884765625,-0.73419189453125,0.05108642578125,0.01458740234375,514,-15149,-2463,-58,7,-9
283895478,0.671630859375,-0.7393798828125,0.04669189453125,0.0093994140625,294,-15065,-2806,-45,8,-67
283905461,0.66796875,-0.74322509765625,0.03826904296875,0.00048828125,183,-14616,-2895,-29,8,-108
283915449,0.66583251953125,-0.7454833984375,0.0277099609375,-0.0103759765625,154,-13702,-2775,-13,8,-126
283925438,0.6651611328125,-0.74615478515625,0.01678466796875,-0.02154541015625,164,-12337,-2469,2,8,-127
283935419,0.66583251953125,-0.74542236328125,0.0064697265625,-0.031982421875,151,-10622,-2029,16,8,-117
283945404,0.66754150390625,-0.743408203125,-0.00244140625,-0.041259765625,93,-8663,-1527,26,8,-102
283955381,0.670166015625,-0.740478515625,-0.00970458984375,-0.049072265625,-2,-6632,-1039,35,9,-83
283965363,0.67352294921875,-0.7369384765625,-0.0150146484375,-0.05535888671875,-109,-4640,-597,40,10,-63
283975350,0.6773681640625,-0.73297119140625,-0.0185546875,-0.06011962890625,-271,-2737,-229,44,11,-44
283985330,0.681396484375,-0.72882080078125,-0.02056884765625,-0.063720703125,-423,-1040,111,45,12,-29
283995312,0.685546875,-0.72467041015625,-0.02142333984375,-0.0665283203125,-578,402,419,43,14,-20
284005293,0.689453125,-0.720703125,-0.02166748046875,-0.06890869140625,-669,1445,637,39,15,-14
284015275,0.69287109375,-0.71722412109375,-0.02142333984375,-0.0711669921875,-696,1954,793,33,16,-11
284025259,0.69561767578125,-0.71435546875,-0.02069091796875,-0.0731201171875,-690,1946,906,25,17,-7
284035244,0.6976318359375,-0.71234130859375,-0.019287109375,-0.0745849609375,-564,1454,965,15,17,2
284045230,0.69866943359375,-0.71124267578125,-0.016845703125,-0.07513427734375,-316,413,943,3,17,14
284055216,0.69866943359375,-0.71142578125,-0.0130615234375,-0.074462890625,83,-1318,779,-10,17,31
284065196,0.69744873046875,-0.71295166015625,-0.0076904296875,-0.0723876953125,548,-3546,550,-23,17,49
284075188,0.695068359375,-0.71563720703125,-0.0006103515625,-0.0689697265625,1024,-5974,415,-38,18,67
284085173,0.691650390625,-0.71929931640625,0.00811767578125,-0.06439208984375,1440,-8445,308,-52,20,83
284095154,0.68701171875,-0.7239990234375,0.0181884765625,-0.05908203125,1788,-10551,45,-65,24,95
284105124,0.6810302734375,-0.72967529296875,0.0294189453125,-0.0533447265625,2020,-12098,-473,-75,27,104
284115106,0.673828125,-0.7362060546875,0.041259765625,-0.047607421875,2096,-13235,-1183,-83,31,106
284125090,0.6656494140625,-0.74310302734375,0.052978515625,-0.04278564453125,1983,-14070,-1991,-87,35,96
284135073,0.656982421875,-0.75018310546875,0.06317138671875,-0.03985595703125,1711,-14684,-2773,-86,39,70
284145060,0.6484375,-0.7569580078125,0.07012939453125,-0.0404052734375,1401,-15135,-3377,-78,42,25
284155051,0.6409912109375,-0.7628173828125,0.07257080078125,-0.0452880859375,1193,-15466,-3696,-63,45,-26
284165022,0.63525390625,-0.76715087890625,0.07073974609375,-0.05401611328125,1082,-15601,-3785,-43,46,-68
284175007,0.63153076171875,-0.769775390625,0.0660400390625,-0.0653076171875,1055,-15240,-3651,-20,47,-94
284184996,0.62994384765625,-0.7703857421875,0.06005859375,-0.077880859375,1065,-14336,-3283,2,48,-104
284194977,0.63018798828125,-0.76922607421875,0.053955078125,-0.0908203125,1062,-13022,-2794,21,51,-102
284204955,0.632080078125,-0.76641845703125,0.04864501953125,-0.10357666015625,1021,-11392,-2240,38,54,-94
284214937,0.6353759765625,-0.76220703125,0.0445556640625,-0.11572265625,917,-9627,-1695,50,57,-80
284224920,0.6395263671875,-0.75701904296875,0.04193115234375,-0.12689208984375,751,-7793,-1206,59,60,-66
284237995,0.64447021484375,-0.75115966796875,0.0408935546875,-0.13714599609375,531,-5990,-747,64,62,-50
284244889,0.64971923828125,-0.74481201171875,0.04119873046875,-0.146484375,284,-4259,-327,65,64,-38
284254871,0.6551513671875,-0.7381591796875,0.042724609375,-0.15509033203125,49,-2659,67,66,66,-27
284264854,0.66058349609375,-0.73138427734375,0.04510498046875,-0.1632080078125,-127,-1343,382,64,68,-19
284274836,0.66571044921875,-0.72479248046875,0.04827880859375,-0.17071533203125,-241,-390,581,60,68,-12
284284820,0.67047119140625,-0.718505859375,0.05218505859375,-0.1776123046875,-289,165,723,54,68,-4
284294808,0.67462158203125,-0.712646484375,0.056884765625,-0.183837890625,-270,317,853,46,68,3
284304788,0.67822265625,-0.7073974609375,0.0625,-0.1890869140625,-184,76,1019,36,66,13
284314768,0.6810302734375,-0.702880859375,0.06915283203125,-0.1932373046875,-26,-614,1201,23,64,25
284324761,0.6829833984375,-0.69940185546875,0.07708740234375,-0.1959228515625,219,-1891,1325,9,62,38
284334741,0.68389892578125,-0.6971435546875,0.08648681640625,-0.19696044921875,551,-3720,1430,-7,60,54
284344716,0.68389892578125,-0.6959228515625,0.09747314453125,-0.19622802734375,939,-5852,1571,-23,58,73
284354698,0.6827392578125,-0.69580078125,0.11016845703125,-0.1939697265625,1325,-7927,1678,-40,58,89
284364680,0.68035888671875,-0.69671630859375,0.1240234375,-0.19073486328125,1636,-9746,1612,-54,59,97
284374664,0.6763916015625,-0.69873046875,0.13824462890625,-0.1875,1870,-11297,1323,-67,62,93
284384645,0.67095947265625,-0.70172119140625,0.152099609375,-0.185302734375,2046,-12586,837,-76,66,82
284394635,0.6639404296875,-0.70562744140625,0.1649169921875,-0.1845703125,2145,-13531,144,-82,70,63
284404615,0.65557861328125,-0.71038818359375,0.17626953125,-0.185791015625,2200,-14075,-632,-85,73,41
284414599,0.646240234375,-0.71563720703125,0.185791015625,-0.1890869140625,2231,-14243,-1443,-84,76,16
284424582,0.63623046875,-0.72113037109375,0.193359375,-0.19451904296875,2282,-14069,-2152,-81,79,-8
284434563,0.6259765625,-0.7264404296875,0.19879150390625,-0.20220947265625,2363,-13661,-2650,-73,82,-31
284444546,0.6162109375,-0.73101806640625,0.2022705078125,-0.212158203125,2466,-13112,-2888,-60,86,-51
284454529,0.60723876953125,-0.734375,0.204345703125,-0.2239990234375,2544,-12449,-2933,-45,90,-64
284464512,0.59954833984375,-0.73626708984375,0.20574951171875,-0.2369384765625,2545,-11591,-2821,-29,95,-67
284474494,0.59320068359375,-0.73651123046875,0.20745849609375,-0.25042724609375,2480,-10536,-2566,-14,100,-62
284484475,0.58819580078125,-0.73504638671875,0.21014404296875,-0.26385498046875,2460,-9391,-2267,-2,106,-48
284494463,0.58453369140625,-0.73187255859375,0.21490478515625,-0.276611328125,2446,-8165,-1958,8,114,-23
284504449,0.58233642578125,-0.72686767578125,0.222412109375,-0.2882080078125,2424,-6930,-1679,17,122,8
284514431,0.58148193359375,-0.7200927734375,0.23291015625,-0.2984619140625,2385,-5779,-1452,24,130,38
284524415,0.581787109375,-0.71160888671875,0.24609375,-0.30755615234375,2304,-4793,-1323,30,138,64
284534396,0.5826416015625,-0.70172119140625,0.26153564453125,-0.31573486328125,2186,-4008,-1271,34,146,84
284544374,0.5838623046875,-0.69061279296875,0.278564453125,-0.32342529296875,2043,-3476,-1298,37,153,96
284554360,0.58502197265625,-0.678466796875,0.29656982421875,-0.3309326171875,1948,-3203,-1366,38,160,103
284564343,0.58575439453125,-0.66552734375,0.31512451171875,-0.338623046875,1881,-3178,-1507,40,167,106
284574325,0.5859375,-0.65191650390625,0.33416748046875,-0.346435546875,1811,-3401,-1704,41,173,107
284584308,0.58544921875,-0.6376953125,0.35345458984375,-0.3544921875,1710,-3842,-1936,41,179,106
284594293,0.58404541015625,-0.62298583984375,0.3729248046875,-0.3629150390625,1512,-4430,-2160,40,186,103
284604272,0.58160400390625,-0.60791015625,0.39239501953125,-0.371826171875,1247,-5107,-2340,38,192,96
284614256,0.577880859375,-0.5926513671875,0.41162109375,-0.3812255859375,885,-5852,-2448,34,198,87
284624236,0.57281494140625,-0.57757568359375,0.4305419921875,-0.39111328125,437,-6638,-2510,28,203,76
284634227,0.56622314453125,-0.562744140625,0.44915771484375,-0.401123046875,-135,-7420,-2556,21,206,66
284644211,0.5582275390625,-0.54852294921875,0.46734619140625,-0.41119384765625,-757,-8165,-2572,13,206,54
284654193,0.54888916015625,-0.53521728515625,0.4847412109375,-0.42108154296875,-1396,-8771,-2555,3,204,41
284664184,0.538330078125,-0.52301025390625,0.501220703125,-0.4306640625,-1995,-9185,-2465,-5,199,27
284674166,0.5267333984375,-0.51214599609375,0.5164794921875,-0.4398193359375,-2605,-9436,-2375,-14,191,13
284684142,0.51458740234375,-0.50262451171875,0.5306396484375,-0.44830322265625,-3242,-9556,-2297,-22,180,1
284694117,0.50213623046875,-0.4945068359375,0.543701171875,-0.455810546875,-3882,-9558,-2235,-29,167,-7
284704098,0.489990234375,-0.4874267578125,0.555908203125,-0.46185302734375,-4561,-9477,-2202,-36,152,-10
284714080,0.47869873046875,-0.48138427734375,0.56732177734375,-0.466064453125,-5239,-9304,-2205,-41,134,-9
284724062,0.4688720703125,-0.47613525390625,0.5780029296875,-0.46832275390625,-5858,-9071,-2188,-45,113,-4
284734054,0.46087646484375,-0.4716796875,0.58782958984375,-0.46856689453125,-6366,-8829,-2117,-48,91,3
284744032,0.45501708984375,-0.468017578125,0.59661865234375,-0.4669189453125,-6707,-8624,-2051,-48,66,11
284754015,0.45147705078125,-0.465087890625,0.604248046875,-0.46343994140625,-6967,-8459,-1978,-47,40,18
284764001,0.45037841796875,-0.463134765625,0.6103515625,-0.4583740234375,-7159,-8307,-1911,-43,14,21
284773986,0.45135498046875,-0.462646484375,0.61456298828125,-0.4522705078125,-7303,-8133,-1843,-39,-14,17
284783962,0.45416259765625,-0.46417236328125,0.6163330078125,-0.44537353515625,-7492,-7956,-1731,-35,-42,5
284793942,0.45855712890625,-0.4683837890625,0.615234375,-0.43804931640625,-7758,-7685,-1547,-32,-72,-15
284803924,0.464111328125,-0.47576904296875,0.61065673828125,-0.43048095703125,-7988,-7452,-1381,-30,-103,-42
284813908,0.4705810546875,-0.4866943359375,0.60247802734375,-0.4227294921875,-8112,-7363,-1397,-28,-135,-70
284823891,0.4776611328125,-0.501220703125,0.59051513671875,-0.41461181640625,-8051,-7436,-1637,-25,-167,-98
284833877,0.4853515625,-0.518798828125,0.57476806640625,-0.40606689453125,-7790,-7604,-2072,-20,-198,-120
284843859,0.49371337890625,-0.53875732421875,0.55535888671875,-0.39691162109375,-7323,-7758,-2623,-13,-226,-138
284853841,0.50262451171875,-0.56036376953125,0.53240966796875,-0.3870849609375,-6622,-7884,-3261,-5,-252,-151
284863830,0.51214599609375,-0.5828857421875,0.5062255859375,-0.37640380859375,-5672,-8043,-3973,4,-276,-158
284873810,0.5220947265625,-0.60540771484375,0.47735595703125,-0.36474609375,-4441,-8227,-4753,14,-293,-158
284883792,0.5323486328125,-0.62713623046875,0.446533203125,-0.35205078125,-3036,-8439,-5547,24,-305,-150
284893773,0.54290771484375,-0.64727783203125,0.41455078125,-0.33831787109375,-1566,-8610,-6289,35,-312,-138
284903765,0.55364990234375,-0.66534423828125,0.382080078125,-0.32366943359375,-149,-8683,-6867,45,-312,-123
284913750,0.564453125,-0.68109130859375,0.3499755859375,-0.3082275390625,1183,-8638,-7248,52,-308,-106
284923734,0.5751953125,-0.6943359375,0.31915283203125,-0.2918701171875,2455,-8480,-7413,56,-300,-82
284933710,0.5858154296875,-0.70501708984375,0.29058837890625,-0.27447509765625,3617,-8304,-7381,57,-288,-53
284943693,0.59625244140625,-0.7132568359375,0.26513671875,-0.25604248046875,4626,-8099,-7159,55,-273,-21
284953679,0.60626220703125,-0.7191162109375,0.2431640625,-0.2369384765625,5456,-7845,-6739,52,-253,8
284963657,0.6158447265625,-0.72308349609375,0.224853515625,-0.2176513671875,6097,-7548,-6155,48,-231,33
284973640,0.62469482421875,-0.72540283203125,0.21002197265625,-0.1986083984375,6531,-7205,-5470,42,-207,53
284983623,0.63262939453125,-0.7265625,0.1983642578125,-0.180419921875,6793,-6853,-4727,35,-182,66
284993605,0.639404296875,-0.72698974609375,0.189453125,-0.16351318359375,6982,-6488,-3982,27,-156,74
285003589,0.6448974609375,-0.72705078125,0.182861328125,-0.14862060546875,7177,-6213,-3253,19,-130,76
285013573,0.649169921875,-0.726806640625,0.17840576171875,-0.13604736328125,7339,-6028,-2585,12,-102,76
285023552,0.65228271484375,-0.72637939453125,0.17626953125,-0.1258544921875,7450,-5928,-1990,6,-74,76
285033542,0.654296875,-0.725830078125,0.17645263671875,-0.11810302734375,7461,-5850,-1488,0,-44,76
285043519,0.6552734375,-0.72515869140625,0.17889404296875,-0.11279296875,7345,-5784,-1095,-5,-16,73
285053505,0.6552734375,-0.72442626953125,0.1834716796875,-0.11016845703125,7109,-5745,-835,-8,13,68
285063483,0.65423583984375,-0.7237548828125,0.1898193359375,-0.1102294921875,6740,-5769,-691,-12,40,61
285073467,0.65203857421875,-0.72314453125,0.19781494140625,-0.11279296875,6232,-5870,-700,-15,65,53
285083450,0.6488037109375,-0.72265625,0.20745849609375,-0.11749267578125,5582,-6009,-839,-19,87,47
285093430,0.64447021484375,-0.72216796875,0.21856689453125,-0.12371826171875,4799,-6186,-1074,-22,105,43
285103422,0.6392822265625,-0.72161865234375,0.231201171875,-0.130859375,3931,-6434,-1363,-25,120,44
285113404,0.633544921875,-0.72064208984375,0.24530029296875,-0.13812255859375,3006,-6729,-1689,-26,129,49
285123390,0.6275634765625,-0.71905517578125,0.260986328125,-0.14495849609375,2124,-7047,-2006,-25,135,59
285133367,0.62176513671875,-0.71649169921875,0.278076171875,-0.1510009765625,1319,-7353,-2248,-23,138,74
285143350,0.6163330078125,-0.71270751953125,0.29644775390625,-0.15582275390625,576,-7646,-2438,-19,138,88
285153332,0.61138916015625,-0.70782470703125,0.315673828125,-0.1597900390625,-111,-7893,-2570,-13,137,98
285163315,0.60687255859375,-0.70208740234375,0.33477783203125,-0.1632080078125,-751,-8115,-2666,-9,134,99
285173298,0.60260009765625,-0.69598388671875,0.35302734375,-0.16680908203125,-1345,-8349,-2745,-4,130,91
285183285,0.5985107421875,-0.68988037109375,0.36962890625,-0.171142578125,-1845,-8542,-2804,1,126,76
285193266,0.59442138671875,-0.68408203125,0.38409423828125,-0.17657470703125,-2242,-8707,-2813,5,121,57
285203246,0.5904541015625,-0.67877197265625,0.39630126953125,-0.1832275390625,-2517,-8856,-2825,10,116,37
285213238,0.5865478515625,-0.6739501953125,0.406494140625,-0.19097900390625,-2637,-9048,-2847,14,111,22
285223222,0.58282470703125,-0.66943359375,0.41534423828125,-0.19927978515625,-2641,-9215,-2883,18,107,14
285233205,0.579345703125,-0.664794921875,0.42333984375,-0.2078857421875,-2569,-9317,-2916,22,104,11
285243194,0.57611083984375,-0.659912109375,0.430908203125,-0.21649169921875,-2449,-9328,-2965,25,101,11
285253177,0.57318115234375,-0.65484619140625,0.438232421875,-0.2249755859375,-2369,-9190,-3001,28,99,12
285263161,0.57037353515625,-0.6495361328125,0.44537353515625,-0.2332763671875,-2356,-8920,-3009,30,97,11
285273130,0.56756591796875,-0.64434814453125,0.4521484375,-0.24151611328125,-2421,-8603,-3020,30,95,7
285283112,0.56463623046875,-0.6392822265625,0.45849609375,-0.24957275390625,-2564,-8340,-3055,29,92,4
285293095,0.561767578125,-0.63433837890625,0.464599609375,-0.25732421875,-2714,-8155,-3079,29,89,3
285303084,0.55926513671875,-0.629150390625,0.47064208984375,-0.26446533203125,-2804,-8025,-3091,30,85,8
285313064,0.55731201171875,-0.6234130859375,0.4769287109375,-0.270751953125,-2809,-7908,-3066,31,80,20
285323051,0.55615234375,-0.6168212890625,0.48382568359375,-0.27587890625,-2807,-7809,-3051,33,75,33
285333031,0.55572509765625,-0.60955810546875,0.49114990234375,-0.280029296875,-2816,-7715,-3054,36,72,43
285343013,0.5557861328125,-0.6016845703125,0.4986572265625,-0.2835693359375,-2795,-7601,-3056,38,69,49
285352996,0.55609130859375,-0.5936279296875,0.5059814453125,-0.28692626953125,-2783,-7463,-3066,40,67,50
285362986,0.556396484375,-0.58563232421875,0.51300048828125,-0.29034423828125,-2791,-7307,-3092,42,65,47
285372963,0.5565185546875,-0.577880859375,0.51947021484375,-0.2940673828125,-2821,-7160,-3145,42,64,40
285382944,0.556396484375,-0.570556640625,0.525390625,-0.298095703125,-2864,-7041,-3202,42,63,34
285392928,0.55596923828125,-0.5635986328125,0.53094482421875,-0.3023681640625,-2939,-6907,-3265,41,63,29
285402912,0.55523681640625,-0.55694580078125,0.5361328125,-0.30670166015625,-2974,-6703,-3292,40,62,25
285412895,0.55419921875,-0.55059814453125,0.541259765625,-0.3109130859375,-2986,-6393,-3385,38,61,23
285422878,0.552978515625,-0.5445556640625,0.5462646484375,-0.3150634765625,-2983,-6217,-3390,35,61,21
285432861,0.55157470703125,-0.53857421875,0.55126953125,-0.3189697265625,-2908,-6048,-3424,33,60,23
285442844,0.5498046875,-0.53277587890625,0.556640625,-0.322509765625,-2868,-5814,-3524,29,60,25
285452826,0.54791259765625,-0.52691650390625,0.5621337890625,-0.32568359375,-2837,-5358,-3548,26,61,25
285462808,0.54522705078125,-0.52191162109375,0.56768798828125,-0.3287353515625,-2847,-4706,-3813,21,61,16
285472790,0.54156494140625,-0.51800537109375,0.572998046875,-0.33172607421875,-3020,-4281,-4128,15,61,7
285482772,0.53741455078125,-0.514892578125,0.57806396484375,-0.33447265625,-3153,-4138,-4207,8,59,1
285492761,0.53302001953125,-0.5123291015625,0.5830078125,-0.3369140625,-3295,-4144,-4181,1,58,1
285502745,0.5284423828125,-0.50994873046875,0.5882568359375,-0.338623046875,-3367,-4216,-4112,-7,56,6
285512720,0.5238037109375,-0.5076904296875,0.593994140625,-0.3392333984375,-3525,-4204,-4022,-14,54,11
285522703,0.51922607421875,-0.50543212890625,0.60015869140625,-0.3387451171875,-3544,-4079,-3890,-21,52,17
285532685,0.514404296875,-0.5035400390625,0.60650634765625,-0.3375244140625,-3328,-4029,-3716,-29,49,20
285542667,0.50927734375,-0.502197265625,0.61279296875,-0.33599853515625,-3087,-4088,-3499,-35,47,19
285552649,0.5040283203125,-0.50128173828125,0.61883544921875,-0.33416748046875,-3005,-4553,-3290,-40,45,19
285562642,0.4990234375,-0.50042724609375,0.6246337890625,-0.33221435546875,-3037,-5439,-3138,-41,42,19
285572622,0.49456787109375,-0.49945068359375,0.6298828125,-0.330322265625,-3141,-6541,-2924,-38,38,20
285582603,0.490966796875,-0.49822998046875,0.63446044921875,-0.32879638671875,-3295,-7661,-2726,-32,34,20
285592586,0.48834228515625,-0.49658203125,0.6383056640625,-0.3277587890625,-3559,-8753,-2533,-24,30,20
285602569,0.48687744140625,-0.49444580078125,0.641357421875,-0.3272705078125,-3896,-9657,-2384,-13,25,19
285612552,0.4866943359375,-0.49176025390625,0.64361572265625,-0.32720947265625,-4308,-10289,-2335,-2,19,18
285622542,0.4876708984375,-0.4886474609375,0.64508056640625,-0.32745361328125,-4737,-10604,-2353,10,12,17
285632520,0.489990234375,-0.48504638671875,0.6458740234375,-0.32781982421875,-5102,-10781,-2439,21,4,19
285642499,0.49359130859375,-0.48095703125,0.64599609375,-0.32818603515625,-5271,-10611,-2506,31,-5,25
285652481,0.4984130859375,-0.47637939453125,0.64544677734375,-0.32861328125,-5205,-10368,-2332,40,-13,26
285662464,0.504150390625,-0.47186279296875,0.64373779296875,-0.329833984375,-5026,-10229,-2000,48,-19,21
285672449,0.51043701171875,-0.46771240234375,0.64056396484375,-0.332275390625,-4848,-10246,-1593,57,-23,11
285682432,0.51702880859375,-0.464111328125,0.63580322265625,-0.33612060546875,-4666,-10424,-1318,66,-28,-2
285692415,0.52362060546875,-0.4613037109375,0.62957763671875,-0.34149169921875,-4384,-10532,-1116,76,-31,-17
285702397,0.5301513671875,-0.45904541015625,0.62200927734375,-0.3482666015625,-3881,-10362,-840,85,-33,-28
285712374,0.5362548828125,-0.45745849609375,0.6134033203125,-0.35626220703125,-3230,-9856,-645,89,-32,-40
285722357,0.5413818359375,-0.45654296875,0.604248046875,-0.36517333984375,-2657,-9236,-542,90,-29,-51
285732340,0.54547119140625,-0.456298828125,0.59490966796875,-0.3746337890625,-2195,-8577,-489,87,-25,-61
285742321,0.5484619140625,-0.45648193359375,0.58575439453125,-0.38427734375,-1859,-7926,-413,82,-19,-66
285752303,0.5506591796875,-0.456787109375,0.5772705078125,-0.39349365234375,-1573,-7371,-302,74,-14,-64
285762293,0.552490234375,-0.45660400390625,0.5699462890625,-0.4017333984375,-1282,-7012,-92,66,-9,-51
285772271,0.5545654296875,-0.455322265625,0.564208984375,-0.40850830078125,-1033,-6754,151,57,-4,-29
285782259,0.5570068359375,-0.45245361328125,0.5606689453125,-0.4130859375,-991,-6594,332,49,1,-2
285792238,0.5599365234375,-0.4482421875,0.5592041015625,-0.41571044921875,-1078,-6575,505,40,5,17
285802227,0.562744140625,-0.44354248046875,0.55889892578125,-0.41729736328125,-1257,-6689,607,33,9,24
285812210,0.56500244140625,-0.4390869140625,0.55938720703125,-0.41845703125,-1429,-6841,618,27,13,24
285822193,0.5662841796875,-0.435302734375,0.5601806640625,-0.41961669921875,-1543,-6977,556,21,16,17
285832183,0.56646728515625,-0.43243408203125,0.56103515625,-0.42108154296875,-1613,-7110,425,15,19,8
285842165,0.5657958984375,-0.4302978515625,0.56201171875,-0.42291259765625,-1673,-7364,280,11,21,2
285852142,0.564697265625,-0.4285888671875,0.56304931640625,-0.42474365234375,-1743,-7729,170,8,22,0
285862118,0.563232421875,-0.42706298828125,0.56414794921875,-0.42669677734375,-1801,-8058,82,7,24,-2
285872101,0.56134033203125,-0.4259033203125,0.5653076171875,-0.4288330078125,-1919,-8257,-61,5,25,-8
285882083,0.55865478515625,-0.4256591796875,0.56591796875,-0.4317626953125,-2182,-8500,-207,4,25,-25
285892069,0.55511474609375,-0.427001953125,0.56500244140625,-0.4361572265625,-2438,-8825,-355,9,20,-53
285902051,0.55108642578125,-0.4298095703125,0.56207275390625,-0.4422607421875,-2315,-8853,-377,14,15,-69
285912034,0.54730224609375,-0.43243408203125,0.55902099609375,-0.4483642578125,-2177,-8817,-516,16,15,-60
285922016,0.54437255859375,-0.433837890625,0.55682373046875,-0.45318603515625,-2088,-8657,-721,18,14,-42
285931999,0.54266357421875,-0.43377685546875,0.55572509765625,-0.4566650390625,-2063,-8411,-915,19,14,-22
285941989,0.54217529296875,-0.43231201171875,0.5556640625,-0.45867919921875,-2114,-8120,-1112,20,12,-3
285951975,0.54254150390625,-0.4300537109375,0.55621337890625,-0.45965576171875,-2246,-7960,-1221,20,11,7
285961953,0.54315185546875,-0.4278564453125,0.55621337890625,-0.46099853515625,-2394,-8021,-1147,24,7,-2
285971933,0.5435791015625,-0.426513671875,0.55413818359375,-0.46429443359375,-2380,-8086,-669,33,4,-24
285981919,0.54290771484375,-0.4266357421875,0.54986572265625,-0.469970703125,-2191,-7772,-616,40,3,-52
285991903,0.54083251953125,-0.42791748046875,0.5447998046875,-0.47705078125,-1871,-7189,-719,43,6,-65
286001887,0.53851318359375,-0.42889404296875,0.5400390625,-0.48419189453125,-1690,-6435,-764,41,10,-62
286011869,0.53619384765625,-0.42938232421875,0.5361328125,-0.49053955078125,-1736,-5690,-810,36,13,-55
286021854,0.53399658203125,-0.4296875,0.5333251953125,-0.49578857421875,-2021,-4860,-896,27,13,-50
286031836,0.53173828125,-0.43048095703125,0.5316162109375,-0.49932861328125,-2520,-3969,-1028,12,8,-46
286041814,0.52935791015625,-0.4326171875,0.531005859375,-0.5006103515625,-3059,-3352,-1175,-9,-1,-42
286051791,0.5272216796875,-0.43603515625,0.53167724609375,-0.49920654296875,-3333,-3143,-1356,-30,-12,-27
286061784,0.526123046875,-0.439697265625,0.5340576171875,-0.49456787109375,-3373,-3205,-1526,-46,-20,2
286071765,0.52642822265625,-0.4425048828125,0.53863525390625,-0.48675537109375,-3223,-3409,-1695,-58,-24,38
286081749,0.52813720703125,-0.44390869140625,0.54547119140625,-0.47589111328125,-2923,-3594,-1902,-68,-25,73
286091724,0.5303955078125,-0.44415283203125,0.55413818359375,-0.462890625,-2402,-3757,-2186,-78,-22,97
286101707,0.531982421875,-0.444091796875,0.56414794921875,-0.44891357421875,-1632,-4155,-2498,-86,-15,107
286111687,0.53192138671875,-0.4439697265625,0.5748291015625,-0.435302734375,-693,-4888,-2810,-91,-3,108
286121676,0.53021240234375,-0.4434814453125,0.58599853515625,-0.4228515625,221,-6108,-3062,-90,13,107
286131662,0.52734375,-0.441650390625,0.59759521484375,-0.4119873046875,1008,-7795,-3222,-82,30,111
286141645,0.52410888671875,-0.43756103515625,0.60943603515625,-0.40301513671875,1679,-9681,-3263,-67,47,120
286151635,0.52117919921875,-0.43035888671875,0.621337890625,-0.3963623046875,2225,-11431,-3047,-43,65,132
286161615,0.5185546875,-0.41973876953125,0.6329345703125,-0.39288330078125,2535,-12744,-2660,-14,85,134
286171601,0.5155029296875,-0.40673828125,0.64312744140625,-0.3939208984375,2524,-13710,-2205,20,106,113
286181583,0.5111083984375,-0.39312744140625,0.6510009765625,-0.40057373046875,2045,-14413,-1895,53,125,73
286191565,0.50469970703125,-0.3800048828125,0.6563720703125,-0.41241455078125,1193,-14740,-1750,81,140,26
286201546,0.49627685546875,-0.3680419921875,0.6591796875,-0.42864990234375,94,-14412,-1691,102,149,-22
286211525,0.4859619140625,-0.35748291015625,0.65985107421875,-0.4478759765625,-1157,-13187,-1659,115,155,-65
286221506,0.4739990234375,-0.34869384765625,0.65899658203125,-0.468505859375,-2749,-11366,-1592,116,154,-102
286231490,0.4613037109375,-0.34149169921875,0.6572265625,-0.48846435546875,-4447,-9392,-1430,106,145,-121
286241476,0.44964599609375,-0.3350830078125,0.655517578125,-0.50579833984375,-6240,-7372,-1014,87,129,-116
286251458,0.44073486328125,-0.328857421875,0.65460205078125,-0.51873779296875,-8073,-5424,-391,62,103,-93
286261439,0.43536376953125,-0.3228759765625,0.65496826171875,-0.5264892578125,-9812,-3985,277,33,74,-63
286271429,0.434326171875,-0.3173828125,0.65667724609375,-0.528564453125,-11352,-3116,854,4,37,-26
286281413,0.43768310546875,-0.312744140625,0.65948486328125,-0.5250244140625,-12343,-2778,1141,-21,-1,9
286291382,0.44439697265625,-0.30975341796875,0.662841796875,-0.51690673828125,-12790,-2691,1086,-42,-36,35
286301367,0.453369140625,-0.3089599609375,0.66619873046875,-0.505126953125,-12739,-2607,701,-59,-67,49
286311350,0.46337890625,-0.31097412109375,0.66925048828125,-0.49053955078125,-12233,-2529,86,-76,-93,50
286321331,0.473388671875,-0.31640625,0.6715087890625,-0.47418212890625,-11268,-2637,-698,-91,-115,43
286331314,0.48260498046875,-0.32525634765625,0.67279052734375,-0.456787109375,-9911,-3114,-1524,-103,-131,33
286341296,0.49078369140625,-0.3367919921875,0.67279052734375,-0.43939208984375,-8251,-4071,-2260,-110,-141,22
286351281,0.497802734375,-0.3502197265625,0.67138671875,-0.4228515625,-6403,-5550,-2831,-109,-145,15
286361267,0.50384521484375,-0.36419677734375,0.6685791015625,-0.407958984375,-4528,-7362,-3204,-101,-142,11
286371246,0.509033203125,-0.37786865234375,0.66455078125,-0.39556884765625,-2847,-9146,-3392,-86,-133,3
286381241,0.51336669921875,-0.39068603515625,0.659423828125,-0.385986328125,-1311,-10807,-3435,-67,-121,-4
286391220,0.51702880859375,-0.40203857421875,0.6533203125,-0.3797607421875,66,-12233,-3320,-44,-105,-10
286401205,0.52020263671875,-0.411376953125,0.64642333984375,-0.377197265625,1239,-13221,-3047,-17,-86,-16
286411194,0.52252197265625,-0.4188232421875,0.63885498046875,-0.37872314453125,2243,-13676,-2673,11,-63,-30
286421173,0.52337646484375,-0.4246826171875,0.63067626953125,-0.3846435546875,3021,-13659,-2351,36,-37,-49
286431156,0.5224609375,-0.42913818359375,0.62225341796875,-0.39453125,3390,-13202,-2101,58,-10,-68
286441131,0.52008056640625,-0.431884765625,0.6141357421875,-0.40716552734375,3357,-12333,-1840,72,15,-80
286451112,0.51666259765625,-0.4327392578125,0.6068115234375,-0.42144775390625,3003,-11198,-1544,81,36,-84
286461096,0.51251220703125,-0.431884765625,0.60052490234375,-0.43609619140625,2286,-9976,-1210,82,52,-82
286471078,0.50811767578125,-0.42950439453125,0.595703125,-0.45001220703125,1126,-8654,-837,76,60,-77
286481060,0.50396728515625,-0.4263916015625,0.5921630859375,-0.4620361328125,-337,-7347,-350,63,60,-70
286491051,0.50054931640625,-0.42333984375,0.589599609375,-0.4718017578125,-1921,-6182,273,46,51,-66
286501025,0.4979248046875,-0.42120361328125,0.5875244140625,-0.47906494140625,-3462,-5265,768,29,36,-61
286511010,0.49639892578125,-0.42022705078125,0.5860595703125,-0.48321533203125,-4938,-4531,1045,12,17,-51
286520996,0.49664306640625,-0.42041015625,0.5853271484375,-0.48370361328125,-6248,-3929,1116,-6,-8,-36
286530977,0.49896240234375,-0.42218017578125,0.58514404296875,-0.48004150390625,-7184,-3461,1005,-26,-37,-18
286540955,0.50274658203125,-0.42608642578125,0.5853271484375,-0.47235107421875,-7547,-3348,738,-48,-65,-2
286550941,0.5072021484375,-0.432373046875,0.5853271484375,-0.461669921875,-7527,-3609,303,-66,-88,4
286560922,0.5118408203125,-0.4410400390625,0.5848388671875,-0.44879150390625,-7298,-4002,-307,-79,-108,4
286570908,0.5166015625,-0.4517822265625,0.58349609375,-0.43414306640625,-6868,-4419,-970,-88,-126,2
286580893,0.521240234375,-0.4644775390625,0.5810546875,-0.4183349609375,-6236,-4884,-1668,-95,-142,-3
286590869,0.5255126953125,-0.478759765625,0.5771484375,-0.40191650390625,-5326,-5486,-2371,-99,-154,-9
286600858,0.529052734375,-0.494384765625,0.57171630859375,-0.3857421875,-4175,-6335,-3037,-99,-160,-17
286610840,0.53173828125,-0.51080322265625,0.56475830078125,-0.37066650390625,-2876,-7289,-3623,-94,-160,-27
286620823,0.53350830078125,-0.5272216796875,0.55645751953125,-0.35736083984375,-1550,-8265,-4098,-85,-154,-35
286630807,0.53460693359375,-0.5428466796875,0.54736328125,-0.34619140625,-206,-9293,-4313,-74,-143,-40
286640790,0.53533935546875,-0.556884765625,0.53790283203125,-0.33758544921875,1027,-10280,-4248,-59,-126,-42
286650770,0.5357666015625,-0.56890869140625,0.52825927734375,-0.33209228515625,2041,-10983,-4020,-41,-104,-46
286660763,0.53564453125,-0.5789794921875,0.5186767578125,-0.32989501953125,2981,-11362,-3728,-22,-81,-53
286670746,0.5350341796875,-0.587158203125,0.5091552734375,-0.33123779296875,3850,-11594,-3392,-3,-56,-58
286680722,0.5343017578125,-0.59295654296875,0.50048828125,-0.3353271484375,4404,-11744,-3012,14,-32,-54
286690703,0.53399658203125,-0.59576416015625,0.49365234375,-0.3409423828125,4603,-11800,-2598,28,-10,-39
286700686,0.534423828125,-0.59564208984375,0.4888916015625,-0.34735107421875,4478,-11632,-2216,40,9,-23
286710668,0.5350341796875,-0.59332275390625,0.48590087890625,-0.3543701171875,4124,-11204,-1943,48,26,-15
286720650,0.535400390625,-0.5897216796875,0.48406982421875,-0.36224365234375,3633,-10583,-1779,53,40,-15
286730635,0.53515625,-0.5855712890625,0.48291015625,-0.37091064453125,3049,-9771,-1648,55,51,-20
286740617,0.5340576171875,-0.58111572265625,0.48236083984375,-0.3800048828125,2440,-8725,-1552,52,60,-24
286750599,0.5318603515625,-0.57696533203125,0.482421875,-0.38922119140625,1852,-7573,-1443,43,66,-28
286760583,0.52850341796875,-0.5733642578125,0.4832763671875,-0.39794921875,1130,-6522,-1377,30,70,-32
286770565,0.5240478515625,-0.570556640625,0.485107421875,-0.40557861328125,401,-5659,-1290,14,70,-32
286780548,0.5189208984375,-0.5684814453125,0.48797607421875,-0.41156005859375,-320,-4987,-1266,-3,67,-28
286790529,0.513427734375,-0.56707763671875,0.4920654296875,-0.41558837890625,-896,-4457,-1334,-17,62,-17
286800512,0.50799560546875,-0.5660400390625,0.497314453125,-0.4173583984375,-1276,-4017,-1439,-31,55,-3
286810499,0.5025634765625,-0.56536865234375,0.5037841796875,-0.41705322265625,-1551,-3808,-1601,-43,49,10
286820478,0.49755859375,-0.56475830078125,0.511474609375,-0.4146728515625,-1805,-3898,-1750,-54,43,25
286830462,0.49298095703125,-0.56402587890625,0.52001953125,-0.410400390625,-2000,-4210,-1878,-62,36,38
286840449,0.489013671875,-0.56317138671875,0.52923583984375,-0.40447998046875,-2127,-4632,-2013,-68,29,51
286850435,0.4854736328125,-0.56219482421875,0.5389404296875,-0.39727783203125,-2135,-5097,-2157,-72,23,60
286860420,0.482177734375,-0.56121826171875,0.5487060546875,-0.3892822265625,-2038,-5523,-2321,-75,19,66
286870402,0.47894287109375,-0.5601806640625,0.55828857421875,-0.38092041015625,-1874,-5958,-2474,-76,16,68
286880380,0.47576904296875,-0.55926513671875,0.5675048828125,-0.37255859375,-1652,-6501,-2621,-74,15,68
286890362,0.47259521484375,-0.55816650390625,0.57623291015625,-0.36468505859375,-1401,-7377,-2747,-71,15,66
286900350,0.46978759765625,-0.5567626953125,0.584228515625,-0.357666015625,-1159,-8713,-2853,-64,15,65
286910328,0.46771240234375,-0.55462646484375,0.5914306640625,-0.3519287109375,-955,-10313,-2907,-52,17,66
286920314,0.466552734375,-0.5513916015625,0.59783935546875,-0.34771728515625,-781,-11750,-3033,-36,19,66
286930298,0.466064453125,-0.54718017578125,0.60345458984375,-0.34521484375,-618,-12725,-3166,-18,23,63
286940281,0.466064453125,-0.54217529296875,0.60833740234375,-0.3446044921875,-532,-13149,-3281,1,29,57
286950263,0.4664306640625,-0.53631591796875,0.612548828125,-0.3458251953125,-483,-13146,-3386,18,35,51
286960242,0.467041015625,-0.529541015625,0.6163330078125,-0.3487548828125,-391,-12816,-3515,34,42,50
286970234,0.4677734375,-0.5216064453125,0.6199951171875,-0.35302734375,-323,-12303,-3603,47,50,50
286980218,0.468505859375,-0.512939453125,0.6234130859375,-0.35870361328125,-310,-11650,-3573,59,57,45
286990205,0.46893310546875,-0.504150390625,0.62603759765625,-0.36602783203125,-415,-10937,-3464,68,64,31
287000188,0.4683837890625,-0.49615478515625,0.62744140625,-0.37518310546875,-611,-10212,-3342,74,69,7
287010173,0.46661376953125,-0.48956298828125,0.62738037109375,-0.3861083984375,-901,-9435,-3269,77,73,-19
287020146,0.46356201171875,-0.484375,0.62615966796875,-0.39801025390625,-1310,-8651,-3187,77,74,-42
287030121,0.45953369140625,-0.4808349609375,0.6236572265625,-0.41070556640625,-1661,-8031,-3039,73,73,-64
287040104,0.45416259765625,-0.4791259765625,0.61981201171875,-0.4241943359375,-1995,-7565,-2837,69,72,-88
287050089,0.44757080078125,-0.4793701171875,0.61456298828125,-0.43841552734375,-2324,-7206,-2576,64,70,-112
287060073,0.43994140625,-0.48126220703125,0.6080322265625,-0.452880859375,-2709,-6856,-2267,59,65,-131
287070056,0.431884765625,-0.48443603515625,0.6005859375,-0.46697998046875,-3038,-6484,-2030,53,57,-141
287080042,0.4241943359375,-0.48834228515625,0.5928955078125,-0.47967529296875,-3289,-6143,-1917,47,46,-137
287090024,0.4173583984375,-0.49237060546875,0.585693359375,-0.490234375,-3400,-5947,-1918,39,34,-124
287100008,0.41156005859375,-0.49652099609375,0.57904052734375,-0.498779296875,-3419,-6028,-1953,32,22,-111
287109995,0.40692138671875,-0.50079345703125,0.5728759765625,-0.50543212890625,-3303,-6310,-1953,25,9,-97
287119978,0.403564453125,-0.50506591796875,0.56695556640625,-0.51043701171875,-3080,-6705,-1932,21,-3,-84
287129953,0.40167236328125,-0.50921630859375,0.56158447265625,-0.5137939453125,-2788,-7036,-1952,18,-14,-67
287139937,0.4014892578125,-0.51300048828125,0.55694580078125,-0.51519775390625,-2451,-7217,-2036,15,-26,-46
287149917,0.4031982421875,-0.5162353515625,0.55340576171875,-0.51446533203125,-2018,-7342,-2122,11,-38,-21
287159904,0.4066162109375,-0.5186767578125,0.55096435546875,-0.511962890625,-1454,-7521,-2178,9,-46,3
287169882,0.41143798828125,-0.5201416015625,0.5494384765625,-0.50823974609375,-901,-7828,-2185,9,-50,23
287179866,0.41748046875,-0.5205078125,0.54876708984375,-0.503662109375,-443,-8156,-2172,10,-51,40
287189849,0.4244384765625,-0.51971435546875,0.548828125,-0.49853515625,-80,-8378,-2136,12,-51,54
287199834,0.43212890625,-0.51800537109375,0.5494384765625,-0.49298095703125,143,-8474,-2071,14,-49,64
287209814,0.44012451171875,-0.51568603515625,0.55023193359375,-0.48748779296875,230,-8494,-1925,16,-48,67
287219799,0.4481201171875,-0.5130615234375,0.55084228515625,-0.48223876953125,209,-8506,-1762,18,-46,65
287229784,0.455810546875,-0.510498046875,0.55096435546875,-0.4775390625,123,-8415,-1582,20,-44,58
287239769,0.46295166015625,-0.50830078125,0.550537109375,-0.47344970703125,5,-8206,-1466,22,-43,48
287249752,0.469482421875,-0.50665283203125,0.54949951171875,-0.47003173828125,-142,-7888,-1393,22,-42,37
287259735,0.4752197265625,-0.5057373046875,0.54791259765625,-0.46710205078125,-245,-7509,-1362,21,-41,27
287269712,0.4803466796875,-0.50537109375,0.54595947265625,-0.4644775390625,-316,-7133,-1356,20,-40,20
287279696,0.48486328125,-0.50555419921875,0.5438232421875,-0.46209716796875,-317,-6825,-1310,17,-40,15
287289680,0.489013671875,-0.50604248046875,0.54168701171875,-0.459716796875,-319,-6603,-1232,14,-39,14
287299661,0.49310302734375,-0.5064697265625,0.539794921875,-0.45709228515625,-304,-6457,-1121,11,-39,17
287309645,0.49737548828125,-0.5067138671875,0.538330078125,-0.45391845703125,-320,-6417,-988,7,-39,24
287319629,0.501953125,-0.5064697265625,0.53759765625,-0.45001220703125,-363,-6528,-853,4,-39,33
287329614,0.507080078125,-0.50555419921875,0.53759765625,-0.44525146484375,-436,-6765,-765,2,-40,45
287339597,0.51263427734375,-0.50408935546875,0.538330078125,-0.43963623046875,-532,-7047,-762,1,-40,56
287349577,0.5185546875,-0.502197265625,0.53955078125,-0.433349609375,-623,-7360,-782,0,-41,63
287359560,0.52447509765625,-0.50018310546875,0.54071044921875,-0.42706298828125,-678,-7649,-784,1,-40,61
287369546,0.52996826171875,-0.49853515625,0.541259765625,-0.42144775390625,-676,-7866,-756,3,-40,52
287379527,0.5347900390625,-0.49755859375,0.54095458984375,-0.41693115234375,-653,-8066,-735,5,-38,39
287389510,0.538818359375,-0.49725341796875,0.53973388671875,-0.41357421875,-614,-8248,-718,7,-36,24
287399494,0.5421142578125,-0.4976806640625,0.537841796875,-0.41131591796875,-600,-8396,-684,8,-34,12
287409474,0.54473876953125,-0.4986572265625,0.5352783203125,-0.40997314453125,-614,-8513,-661,9,-32,1
287419458,0.54681396484375,-0.50006103515625,0.53228759765625,-0.40936279296875,-652,-8592,-642,9,-30,-8
287429435,0.5484619140625,-0.5018310546875,0.52899169921875,-0.4093017578125,-638,-8662,-672,10,-28,-14
287439427,0.5496826171875,-0.503662109375,0.525634765625,-0.40972900390625,-563,-8771,-710,10,-25,-17
287449411,0.5506591796875,-0.50543212890625,0.52227783203125,-0.4105224609375,-451,-8902,-731,12,-22,-17
287459394,0.55157470703125,-0.5068359375,0.5191650390625,-0.4114990234375,-334,-9003,-739,13,-19,-15
287469370,0.55242919921875,-0.50787353515625,0.516357421875,-0.41265869140625,-229,-9027,-721,14,-15,-12
287479352,0.55322265625,-0.5084228515625,0.513916015625,-0.4139404296875,-157,-8930,-718,15,-11,-11
287489335,0.5538330078125,-0.5086669921875,0.51177978515625,-0.41546630859375,-111,-8744,-707,16,-7,-11
287499319,0.5540771484375,-0.5087890625,0.50982666015625,-0.4173583984375,-101,-8515,-700,16,-2,-13
287509303,0.553955078125,-0.5087890625,0.508056640625,-0.41973876953125,-81,-8268,-672,16,2,-16
287519284,0.5533447265625,-0.50885009765625,0.50634765625,-0.4224853515625,-65,-8071,-632,16,6,-19
287529267,0.5523681640625,-0.5087890625,0.50482177734375,-0.42572021484375,-66,-7938,-595,15,11,-22
287539256,0.55096435546875,-0.50860595703125,0.5035400390625,-0.42919921875,-78,-7861,-565,14,16,-22
287549237,0.5491943359375,-0.50823974609375,0.50262451171875,-0.432861328125,-86,-7827,-540,13,20,-22
287559220,0.54730224609375,-0.507568359375,0.502197265625,-0.4366455078125,-96,-7809,-528,13,24,-20
287569205,0.54522705078125,-0.506591796875,0.50213623046875,-0.44036865234375,-95,-7817,-506,12,28,-17
287579193,0.54302978515625,-0.50518798828125,0.50262451171875,-0.44415283203125,-88,-7827,-469,11,32,-14
287589174,0.540771484375,-0.50347900390625,0.50347900390625,-0.44781494140625,-59,-7814,-425,10,35,-11
287599160,0.5384521484375,-0.50146484375,0.50482177734375,-0.451416015625,-56,-7853,-383,9,38,-8
287609131,0.5360107421875,-0.49908447265625,0.506591796875,-0.45489501953125,-79,-7921,-365,9,41,-4
287619112,0.53363037109375,-0.49639892578125,0.50872802734375,-0.458251953125,-128,-8022,-349,8,43,-2
287629099,0.53118896484375,-0.49346923828125,0.51123046875,-0.46148681640625,-194,-8107,-345,8,45,0
287639081,0.5286865234375,-0.4903564453125,0.513916015625,-0.46466064453125,-280,-8167,-348,7,47,2
287649065,0.52630615234375,-0.48699951171875,0.51678466796875,-0.46771240234375,-373,-8227,-342,7,47,3
287659051,0.52392578125,-0.48345947265625,0.519775390625,-0.47076416015625,-444,-8254,-323,8,48,5
287669031,0.52166748046875,-0.4798583984375,0.52276611328125,-0.4736328125,-510,-8279,-294,8,48,6
287679013,0.51947021484375,-0.47601318359375,0.52581787109375,-0.47650146484375,-561,-8283,-251,8,48,8
287688998,0.51739501953125,-0.47210693359375,0.52886962890625,-0.479248046875,-623,-8293,-221,8,47,9
287698987,0.515380859375,-0.46820068359375,0.53179931640625,-0.48199462890625,-694,-8305,-182,9,47,8
287708964,0.51336669921875,-0.46441650390625,0.53460693359375,-0.4847412109375,-752,-8278,-153,9,46,6
287718947,0.51129150390625,-0.46075439453125,0.53717041015625,-0.48760986328125,-815,-8225,-116,10,45,3
287728930,0.50909423828125,-0.45733642578125,0.5394287109375,-0.49066162109375,-875,-8165,-85,10,44,0
287738913,0.50677490234375,-0.4541015625,0.54144287109375,-0.4937744140625,-933,-8120,-41,10,43,-2
287748894,0.50445556640625,-0.4510498046875,0.54327392578125,-0.4969482421875,-977,-8115,13,10,41,-4
287758877,0.502197265625,-0.447998046875,0.544921875,-0.5001220703125,-999,-8139,51,10,40,-4
287768862,0.50006103515625,-0.445068359375,0.5465087890625,-0.503173828125,-1016,-8156,94,11,39,-4
287778843,0.49810791015625,-0.44207763671875,0.54791259765625,-0.50616455078125,-1045,-8153,145,11,38,-3
287788827,0.49627685546875,-0.43902587890625,0.54931640625,-0.50909423828125,-1087,-8163,184,12,36,-3
287798809,0.49456787109375,-0.43609619140625,0.550537109375,-0.511962890625,-1136,-8155,219,12,35,-3
287808791,0.49298095703125,-0.43316650390625,0.5516357421875,-0.5147705078125,-1210,-8163,273,13,33,-4
