subject,Two-hands and jerked
arm,neither
label,0
hz,100.1711040101313
time,5.78011

timestamp_us,q0,q1,q2,q3,ax,ay,az,gx,gy,gz
287526805,0.59930419921875,-0.54486083984375,-0.0753173828125,0.58160400390625,-4257,-5999,3222,0,-3,3
287536788,0.59906005859375,-0.54461669921875,-0.0753173828125,0.58203125,-4247,-5992,3207,0,-3,3
287546768,0.59893798828125,-0.54437255859375,-0.07537841796875,0.5823974609375,-4268,-5987,3214,0,-3,2
287556760,0.598876953125,-0.5440673828125,-0.075439453125,0.582763671875,-4274,-5976,3224,1,-4,1
287566742,0.598876953125,-0.543701171875,-0.0755615234375,0.58306884765625,-4269,-5971,3233,1,-4,1
287576720,0.59893798828125,-0.54339599609375,-0.07562255859375,0.58331298828125,-4262,-5960,3233,1,-3,0
287586704,0.59893798828125,-0.5430908203125,-0.07568359375,0.58355712890625,-4260,-5950,3234,1,-3,1
287596687,0.59893798828125,-0.54278564453125,-0.07574462890625,0.58380126953125,-4265,-5943,3228,1,-3,0
287606670,0.5989990234375,-0.54248046875,-0.07586669921875,0.58404541015625,-4287,-5947,3213,1,-3,0
287616651,0.59906005859375,-0.54217529296875,-0.07586669921875,0.58428955078125,-4304,-5947,3222,1,-3,0
287626639,0.59912109375,-0.5418701171875,-0.07598876953125,0.58447265625,-4332,-5968,3221,1,-3,-1
287636622,0.5992431640625,-0.54150390625,-0.0760498046875,0.584716796875,-4350,-5986,3233,2,-4,0
287646601,0.59930419921875,-0.5411376953125,-0.07611083984375,0.5849609375,-4371,-6007,3242,2,-4,0
287656584,0.599365234375,-0.5406494140625,-0.076171875,0.5853271484375,-4373,-6005,3259,2,-4,1
287666568,0.59942626953125,-0.54022216796875,-0.07611083984375,0.585693359375,-4375,-6020,3282,2,-4,2
287676549,0.59942626953125,-0.539794921875,-0.07598876953125,0.5860595703125,-4384,-6025,3295,3,-4,2
287686532,0.5994873046875,-0.53936767578125,-0.075927734375,0.58642578125,-4402,-6027,3302,3,-4,1
287696516,0.59954833984375,-0.53887939453125,-0.07586669921875,0.5867919921875,-4419,-6022,3311,3,-4,1
287706500,0.599609375,-0.53839111328125,-0.07586669921875,0.587158203125,-4436,-6024,3333,3,-4,0
287716481,0.5997314453125,-0.53790283203125,-0.07586669921875,0.5875244140625,-4444,-6021,3359,2,-4,0
287726465,0.59991455078125,-0.53741455078125,-0.075927734375,0.58782958984375,-4429,-6012,3390,3,-4,0
287736450,0.60009765625,-0.536865234375,-0.07598876953125,0.58807373046875,-4419,-6004,3406,2,-4,-1
287746436,0.60028076171875,-0.53643798828125,-0.07611083984375,0.58831787109375,-4404,-5967,3407,2,-4,-1
287756418,0.60040283203125,-0.5360107421875,-0.07623291015625,0.5885009765625,-4394,-5934,3390,2,-4,-1
287766400,0.6005859375,-0.53564453125,-0.07635498046875,0.58868408203125,-4384,-5916,3395,1,-4,-1
287776376,0.6007080078125,-0.5352783203125,-0.07647705078125,0.58880615234375,-4380,-5909,3401,1,-3,-1
287786368,0.60076904296875,-0.5350341796875,-0.0765380859375,0.58905029296875,-4373,-5901,3411,0,-3,0
287796350,0.6007080078125,-0.5347900390625,-0.0765380859375,0.58929443359375,-4360,-5880,3405,0,-3,1
287806329,0.6005859375,-0.53460693359375,-0.0765380859375,0.589599609375,-4347,-5854,3405,0,-3,1
287816313,0.60040283203125,-0.53448486328125,-0.0765380859375,0.58984375,-4341,-5833,3395,-1,-2,1
287826293,0.60028076171875,-0.534423828125,-0.0765380859375,0.59002685546875,-4334,-5829,3403,-1,-2,1
287836276,0.6002197265625,-0.53436279296875,-0.07666015625,0.59014892578125,-4347,-5834,3389,-2,-2,0
287846260,0.60009765625,-0.53436279296875,-0.07672119140625,0.5902099609375,-4359,-5859,3363,-1,-1,-1
287856237,0.60003662109375,-0.534423828125,-0.076904296875,0.5902099609375,-4383,-5885,3358,-1,-1,-1
287866229,0.60003662109375,-0.534423828125,-0.0770263671875,0.5902099609375,-4391,-5902,3353,-1,-1,-1
287876210,0.60003662109375,-0.53448486328125,-0.0771484375,0.59014892578125,-4378,-5902,3353,-1,-1,-1
287886192,0.5999755859375,-0.5345458984375,-0.0772705078125,0.59014892578125,-4367,-5908,3351,-1,-1,-1
287896193,0.59991455078125,-0.53460693359375,-0.07733154296875,0.59014892578125,-4369,-5907,3339,-1,-1,0
287906174,0.599853515625,-0.53466796875,-0.07733154296875,0.59014892578125,-4382,-5904,3344,-1,0,0
287916146,0.59979248046875,-0.53472900390625,-0.0772705078125,0.59014892578125,-4412,-5918,3340,-1,0,0
287926123,0.59979248046875,-0.5347900390625,-0.0772705078125,0.59014892578125,-4426,-5927,3332,-1,0,-1
287936104,0.59979248046875,-0.53485107421875,-0.07733154296875,0.59002685546875,-4446,-5942,3345,-1,0,-2
287946092,0.599853515625,-0.53485107421875,-0.077392578125,0.5899658203125,-4449,-5927,3333,0,0,-2
287956081,0.5999755859375,-0.534912109375,-0.07745361328125,0.58984375,-4449,-5914,3339,0,0,-2
287966060,0.60009765625,-0.53485107421875,-0.0775146484375,0.5897216796875,-4431,-5899,3340,0,0,-2
287976042,0.60015869140625,-0.534912109375,-0.0775146484375,0.589599609375,-4410,-5876,3338,0,0,-2
287986021,0.6002197265625,-0.53497314453125,-0.0775146484375,0.58953857421875,-4395,-5852,3339,-1,0,-1
287996003,0.60015869140625,-0.53509521484375,-0.07745361328125,0.58941650390625,-4384,-5839,3337,-1,1,-1
288005991,0.60015869140625,-0.53515625,-0.077392578125,0.58935546875,-4392,-5819,3348,-1,1,-1
288015975,0.60015869140625,-0.5352783203125,-0.07733154296875,0.58929443359375,-4391,-5800,3351,-1,1,-1
288025951,0.60015869140625,-0.53546142578125,-0.0772705078125,0.589111328125,-4392,-5781,3330,-1,1,-1
288035935,0.60015869140625,-0.53570556640625,-0.07720947265625,0.58892822265625,-4395,-5750,3340,-2,1,-2
288045917,0.60009765625,-0.53594970703125,-0.07720947265625,0.5887451171875,-4398,-5747,3335,-2,1,-2
288055898,0.60003662109375,-0.53619384765625,-0.07720947265625,0.588623046875,-4401,-5730,3347,-3,1,-1
288065882,0.599853515625,-0.5364990234375,-0.07720947265625,0.5885009765625,-4420,-5740,3345,-3,1,-1
288075869,0.59967041015625,-0.536865234375,-0.0771484375,0.58843994140625,-4437,-5747,3339,-3,1,0
288085849,0.599365234375,-0.53717041015625,-0.0771484375,0.58837890625,-4457,-5760,3350,-4,1,0
288095832,0.59912109375,-0.53753662109375,-0.07708740234375,0.58831787109375,-4489,-5792,3341,-3,1,0
288105816,0.59881591796875,-0.53790283203125,-0.07708740234375,0.58831787109375,-4535,-5811,3354,-4,1,0
288115798,0.59857177734375,-0.5382080078125,-0.0771484375,0.58831787109375,-4571,-5820,3366,-4,0,0
288125784,0.59832763671875,-0.53851318359375,-0.0772705078125,0.5882568359375,-4592,-5824,3367,-4,0,-1
288135770,0.59814453125,-0.5386962890625,-0.0775146484375,0.58819580078125,-4604,-5816,3359,-4,-1,-2
288145749,0.59796142578125,-0.5389404296875,-0.077880859375,0.588134765625,-4590,-5806,3346,-4,-1,-3
288155733,0.59783935546875,-0.53912353515625,-0.0782470703125,0.58807373046875,-4582,-5805,3342,-4,-2,-2
288165709,0.59759521484375,-0.53924560546875,-0.07861328125,0.58807373046875,-4582,-5829,3338,-4,-2,-1
288175700,0.5972900390625,-0.5394287109375,-0.0789794921875,0.58819580078125,-4598,-5845,3335,-5,-3,0
288185679,0.5968017578125,-0.53961181640625,-0.07928466796875,0.5885009765625,-4606,-5858,3320,-5,-3,1
288195656,0.5963134765625,-0.53973388671875,-0.07958984375,0.5888671875,-4584,-5851,3329,-5,-4,2
288205641,0.595703125,-0.539794921875,-0.079833984375,0.58935546875,-4564,-5833,3329,-5,-4,3
288215623,0.594970703125,-0.5399169921875,-0.080078125,0.5899658203125,-4551,-5808,3340,-5,-4,4
288225605,0.59429931640625,-0.5400390625,-0.08038330078125,0.59051513671875,-4533,-5796,3341,-6,-5,4
288238995,0.593505859375,-0.5401611328125,-0.08087158203125,0.591064453125,-4523,-5795,3329,-7,-5,3
288245571,0.5927734375,-0.540283203125,-0.08135986328125,0.59161376953125,-4526,-5809,3314,-7,-6,3
288255555,0.592041015625,-0.54046630859375,-0.08197021484375,0.5921630859375,-4555,-5835,3301,-7,-6,2
288265542,0.59136962890625,-0.54058837890625,-0.08270263671875,0.59259033203125,-4560,-5842,3295,-8,-6,1
288275520,0.59075927734375,-0.540771484375,-0.08349609375,0.59295654296875,-4564,-5825,3292,-8,-6,0
288285505,0.590087890625,-0.5408935546875,-0.08447265625,0.59332275390625,-4539,-5817,3294,-9,-6,-1
288295490,0.58941650390625,-0.5411376953125,-0.08544921875,0.59368896484375,-4500,-5808,3277,-10,-6,0
288305470,0.58856201171875,-0.54150390625,-0.08636474609375,0.59405517578125,-4459,-5798,3255,-11,-5,2
288315452,0.58746337890625,-0.5419921875,-0.08721923828125,0.59454345703125,-4428,-5784,3215,-12,-5,4
288325433,0.5863037109375,-0.54266357421875,-0.0880126953125,0.594970703125,-4390,-5781,3169,-13,-4,5
288335423,0.58489990234375,-0.54345703125,-0.0887451171875,0.59552001953125,-4346,-5755,3120,-14,-4,6
288345408,0.58343505859375,-0.54437255859375,-0.08953857421875,0.59600830078125,-4319,-5750,3063,-15,-3,6
288355390,0.58184814453125,-0.54547119140625,-0.09039306640625,0.59637451171875,-4272,-5730,3037,-17,-2,7
288365372,0.58013916015625,-0.54681396484375,-0.0911865234375,0.59674072265625,-4249,-5735,3000,-18,0,7
288375352,0.5782470703125,-0.54833984375,-0.09197998046875,0.5970458984375,-4251,-5769,2979,-20,1,8
288385335,0.576171875,-0.55010986328125,-0.09283447265625,0.5972900390625,-4279,-5805,2909,-22,2,8
288395318,0.5740966796875,-0.55206298828125,-0.09375,0.59735107421875,-4295,-5811,2820,-23,2,7
288405302,0.57208251953125,-0.55419921875,-0.0948486328125,0.59710693359375,-4289,-5801,2721,-25,4,4
288415284,0.5701904296875,-0.5565185546875,-0.0963134765625,0.5965576171875,-4282,-5793,2635,-27,5,0
288425266,0.56842041015625,-0.55902099609375,-0.09814453125,0.5955810546875,-4253,-5798,2533,-29,6,-3
288435245,0.56671142578125,-0.561767578125,-0.1002197265625,0.59429931640625,-4243,-5852,2446,-31,7,-6
288445235,0.56494140625,-0.56463623046875,-0.10247802734375,0.59283447265625,-4243,-5916,2336,-32,8,-7
288455223,0.56317138671875,-0.56781005859375,-0.1048583984375,0.59112548828125,-4256,-6001,2193,-34,9,-7
288465206,0.561279296875,-0.571044921875,-0.10736083984375,0.58929443359375,-4270,-6060,2060,-35,9,-8
288475193,0.55938720703125,-0.57440185546875,-0.10992431640625,0.58740234375,-4278,-6126,1920,-36,9,-8
288485175,0.557373046875,-0.57769775390625,-0.112548828125,0.58551025390625,-4276,-6190,1824,-36,9,-8
288495159,0.5552978515625,-0.5810546875,-0.11517333984375,0.583740234375,-4282,-6248,1755,-37,8,-7
288505130,0.5531005859375,-0.5843505859375,-0.11767578125,0.58203125,-4300,-6266,1694,-37,8,-6
288515114,0.55084228515625,-0.58758544921875,-0.12030029296875,0.580322265625,-4329,-6251,1643,-38,7,-7
288525097,0.5487060546875,-0.5908203125,-0.12310791015625,0.57855224609375,-4317,-6209,1607,-38,7,-9
288535080,0.546630859375,-0.5938720703125,-0.12615966796875,0.57672119140625,-4294,-6170,1594,-39,6,-11
288545061,0.54461669921875,-0.59674072265625,-0.12939453125,0.57489013671875,-4267,-6139,1589,-39,5,-12
288555044,0.5426025390625,-0.59967041015625,-0.13262939453125,0.57305908203125,-4247,-6154,1592,-40,4,-12
288565027,0.54034423828125,-0.60247802734375,-0.13580322265625,0.57147216796875,-4243,-6214,1599,-40,3,-9
288575011,0.53790283203125,-0.605224609375,-0.13873291015625,0.5701904296875,-4238,-6296,1614,-39,3,-5
288584999,0.53515625,-0.60791015625,-0.14129638671875,0.56927490234375,-4234,-6353,1636,-38,1,0
288594985,0.5321044921875,-0.6104736328125,-0.1435546875,0.56884765625,-4246,-6410,1657,-37,0,5
288604965,0.5289306640625,-0.6129150390625,-0.14556884765625,0.568603515625,-4272,-6468,1678,-37,-1,7
288614943,0.5257568359375,-0.615234375,-0.14752197265625,0.56854248046875,-4304,-6507,1693,-35,-1,7
288624924,0.52276611328125,-0.61737060546875,-0.1495361328125,0.5684814453125,-4341,-6567,1715,-34,-3,5
288634907,0.51995849609375,-0.6192626953125,-0.15167236328125,0.5684814453125,-4389,-6639,1731,-33,-4,4
288644891,0.517333984375,-0.62091064453125,-0.15399169921875,0.56842041015625,-4426,-6736,1744,-32,-5,2
288654878,0.51495361328125,-0.622314453125,-0.15631103515625,0.56842041015625,-4448,-6829,1764,-30,-7,1
288664856,0.5126953125,-0.62347412109375,-0.15869140625,0.56854248046875,-4462,-6929,1798,-28,-8,1
288674839,0.5106201171875,-0.6243896484375,-0.1610107421875,0.5687255859375,-4482,-7018,1824,-26,-9,1
288684822,0.50860595703125,-0.6251220703125,-0.1632080078125,0.56915283203125,-4507,-7090,1854,-25,-10,1
288694806,0.5067138671875,-0.6256103515625,-0.16534423828125,0.56964111328125,-4527,-7150,1871,-23,-11,1
288704788,0.5048828125,-0.6259765625,-0.16741943359375,0.57025146484375,-4547,-7199,1887,-21,-12,1
288714770,0.50311279296875,-0.62615966796875,-0.1693115234375,0.571044921875,-4565,-7258,1874,-19,-13,3
288724762,0.501220703125,-0.62628173828125,-0.17095947265625,0.57208251953125,-4584,-7306,1850,-18,-14,5
288734744,0.49932861328125,-0.62628173828125,-0.17242431640625,0.57330322265625,-4587,-7311,1827,-16,-15,8
288744721,0.49725341796875,-0.626220703125,-0.17364501953125,0.5748291015625,-4557,-7266,1814,-16,-16,10
288754703,0.4951171875,-0.6260986328125,-0.1746826171875,0.57647705078125,-4526,-7215,1784,-14,-16,12
288764687,0.4927978515625,-0.62603759765625,-0.175537109375,0.5782470703125,-4492,-7150,1758,-15,-16,14
288774668,0.490478515625,-0.6259765625,-0.17633056640625,0.580078125,-4465,-7080,1738,-15,-16,15
288784652,0.4881591796875,-0.6258544921875,-0.17724609375,0.58184814453125,-4435,-7007,1710,-15,-16,14
288794635,0.4859619140625,-0.62579345703125,-0.17822265625,0.58349609375,-4406,-6941,1674,-15,-16,11
288804620,0.48388671875,-0.625732421875,-0.17950439453125,0.58489990234375,-4374,-6879,1619,-15,-15,8
288814601,0.4820556640625,-0.6256103515625,-0.18096923828125,0.5860595703125,-4336,-6834,1556,-16,-15,6
288824584,0.4803466796875,-0.62554931640625,-0.1826171875,0.5870361328125,-4319,-6821,1496,-16,-15,4
288834566,0.47869873046875,-0.62542724609375,-0.184326171875,0.58795166015625,-4302,-6843,1428,-16,-14,3
288844549,0.47711181640625,-0.6253662109375,-0.18603515625,0.58880615234375,-4302,-6878,1370,-15,-14,4
288854533,0.4754638671875,-0.6253662109375,-0.18756103515625,0.58966064453125,-4317,-6939,1308,-14,-14,4
288864517,0.47381591796875,-0.62530517578125,-0.18902587890625,0.59051513671875,-4325,-6990,1248,-14,-13,5
288874498,0.47216796875,-0.625244140625,-0.19024658203125,0.59149169921875,-4336,-7029,1205,-12,-13,7
288884481,0.4705810546875,-0.6251220703125,-0.19134521484375,0.592529296875,-4320,-7042,1172,-11,-13,8
288894464,0.46905517578125,-0.625,-0.19232177734375,0.59356689453125,-4312,-7060,1144,-10,-13,8
288904449,0.46759033203125,-0.6248779296875,-0.1932373046875,0.59454345703125,-4309,-7084,1109,-9,-12,7
288914436,0.46636962890625,-0.62469482421875,-0.19415283203125,0.59539794921875,-4317,-7120,1077,-8,-11,6
288924419,0.46533203125,-0.62451171875,-0.195068359375,0.59613037109375,-4333,-7128,1058,-7,-11,4
288934401,0.464599609375,-0.6241455078125,-0.196044921875,0.59674072265625,-4331,-7137,1037,-6,-10,1
288944380,0.464111328125,-0.623779296875,-0.197021484375,0.59722900390625,-4346,-7147,1009,-4,-10,0
288954362,0.4637451171875,-0.62335205078125,-0.19793701171875,0.59759521484375,-4355,-7153,994,-3,-9,-1
288964342,0.463623046875,-0.6229248046875,-0.19879150390625,0.597900390625,-4377,-7173,968,-2,-8,-2
288974331,0.46356201171875,-0.6224365234375,-0.1995849609375,0.59820556640625,-4385,-7189,944,0,-8,-2
288984310,0.46368408203125,-0.62188720703125,-0.2001953125,0.59844970703125,-4401,-7173,923,1,-7,-3
288994295,0.4638671875,-0.62139892578125,-0.20074462890625,0.5986328125,-4403,-7145,910,2,-6,-3
289004277,0.46429443359375,-0.620849609375,-0.2012939453125,0.5987548828125,-4397,-7103,893,3,-5,-4
289014260,0.46484375,-0.6202392578125,-0.20172119140625,0.5987548828125,-4389,-7064,880,4,-5,-5
289024238,0.4654541015625,-0.61968994140625,-0.2021484375,0.5986328125,-4384,-7017,861,4,-4,-6
289034231,0.4661865234375,-0.61920166015625,-0.20245361328125,0.59857177734375,-4383,-6984,841,5,-3,-6
289044212,0.46697998046875,-0.61871337890625,-0.20257568359375,0.598388671875,-4378,-6969,835,6,-2,-5
289054191,0.4677734375,-0.61822509765625,-0.20257568359375,0.5982666015625,-4365,-6951,835,7,-1,-4
289064189,0.46856689453125,-0.61785888671875,-0.20245361328125,0.59808349609375,-4358,-6922,827,7,0,-4
289074174,0.46942138671875,-0.61749267578125,-0.20220947265625,0.59783935546875,-4362,-6909,842,8,1,-4
289084153,0.4703369140625,-0.61712646484375,-0.20184326171875,0.59765625,-4386,-6882,866,8,1,-4
289094121,0.4713134765625,-0.6168212890625,-0.201416015625,0.59735107421875,-4407,-6861,873,9,2,-5
289104105,0.4722900390625,-0.6165771484375,-0.20098876953125,0.596923828125,-4431,-6846,882,8,3,-5
289114089,0.473388671875,-0.61639404296875,-0.2005615234375,0.596435546875,-4448,-6820,875,9,4,-6
289124071,0.47454833984375,-0.6162109375,-0.2000732421875,0.59588623046875,-4448,-6781,875,9,4,-6
289134055,0.4755859375,-0.6160888671875,-0.199462890625,0.5953369140625,-4420,-6732,881,9,5,-4
289144038,0.47650146484375,-0.61614990234375,-0.1986083984375,0.59478759765625,-4366,-6669,875,8,7,-2
289154024,0.47705078125,-0.61651611328125,-0.197509765625,0.59442138671875,-4305,-6583,874,7,8,3
289164005,0.4771728515625,-0.6171875,-0.19598388671875,0.5941162109375,-4226,-6499,892,5,10,8
289173994,0.47686767578125,-0.6181640625,-0.194091796875,0.59393310546875,-4193,-6415,902,4,12,13
289183975,0.47625732421875,-0.6195068359375,-0.19189453125,0.59375,-4187,-6388,933,2,15,16
289193955,0.4754638671875,-0.62115478515625,-0.189697265625,0.5933837890625,-4217,-6425,929,-1,17,16
289203933,0.47467041015625,-0.62298583984375,-0.18756103515625,0.59271240234375,-4270,-6489,888,-2,19,14
289213917,0.47406005859375,-0.625,-0.18572998046875,0.5916748046875,-4333,-6561,833,-2,20,11
289223901,0.4737548828125,-0.6270751953125,-0.18414306640625,0.59027099609375,-4351,-6586,765,-3,21,7
289233884,0.47357177734375,-0.6292724609375,-0.1827392578125,0.5885009765625,-4311,-6548,698,-4,24,4
289243867,0.47344970703125,-0.63165283203125,-0.181396484375,0.58648681640625,-4237,-6461,641,-6,26,4
289253848,0.47314453125,-0.63433837890625,-0.17999267578125,0.584228515625,-4162,-6364,590,-8,29,5
289263832,0.4727783203125,-0.63739013671875,-0.1785888671875,0.5816650390625,-4156,-6294,523,-10,32,4
289273815,0.472412109375,-0.640625,-0.17730712890625,0.5787353515625,-4218,-6257,418,-12,34,0
289283799,0.4722900390625,-0.64410400390625,-0.176513671875,0.5753173828125,-4318,-6232,274,-13,35,-6
289293784,0.4725341796875,-0.6475830078125,-0.17633056640625,0.57122802734375,-4384,-6175,126,-15,36,-15
289303767,0.47320556640625,-0.6510009765625,-0.1768798828125,0.56658935546875,-4407,-6101,-1,-17,37,-22
289313751,0.47418212890625,-0.6544189453125,-0.17803955078125,0.5614013671875,-4438,-6073,-130,-19,38,-29
289323733,0.47528076171875,-0.65789794921875,-0.1796875,0.55584716796875,-4490,-6110,-233,-20,38,-33
289333711,0.476318359375,-0.661376953125,-0.1815185546875,0.55023193359375,-4584,-6183,-374,-22,37,-33
289343693,0.47698974609375,-0.6649169921875,-0.183349609375,0.54473876953125,-4666,-6285,-529,-23,36,-30
289353680,0.47711181640625,-0.6685791015625,-0.1849365234375,0.53961181640625,-4738,-6382,-686,-25,34,-24
289363666,0.4765625,-0.67236328125,-0.1861572265625,0.53497314453125,-4809,-6451,-826,-26,32,-18
289373649,0.475341796875,-0.67620849609375,-0.18701171875,0.53082275390625,-4836,-6460,-956,-28,31,-11
289383635,0.4735107421875,-0.68023681640625,-0.1876220703125,0.52716064453125,-4809,-6434,-1074,-30,28,-5
289393621,0.4710693359375,-0.68438720703125,-0.1881103515625,0.52374267578125,-4728,-6352,-1168,-34,28,0
289403597,0.468017578125,-0.68878173828125,-0.18853759765625,0.5205078125,-4586,-6191,-1236,-38,28,3
289413580,0.4644775390625,-0.69354248046875,-0.189208984375,0.51715087890625,-4448,-5956,-1335,-44,28,4
289423565,0.46038818359375,-0.69866943359375,-0.1903076171875,0.51348876953125,-4330,-5656,-1388,-51,29,1
289433548,0.45587158203125,-0.7041015625,-0.1922607421875,0.50933837890625,-4188,-5284,-1403,-60,30,-5
289443528,0.451171875,-0.7099609375,-0.19549560546875,0.504150390625,-4002,-4923,-1456,-70,33,-16
289453512,0.44610595703125,-0.71624755859375,-0.2003173828125,0.497802734375,-3881,-4633,-1611,-82,35,-28
289463494,0.4407958984375,-0.7230224609375,-0.2069091796875,0.489990234375,-3678,-4491,-1795,-94,38,-41
289473477,0.43511962890625,-0.73016357421875,-0.21502685546875,0.48095703125,-3463,-4537,-1992,-105,40,-50
289483459,0.42877197265625,-0.73773193359375,-0.22412109375,0.4708251953125,-3234,-4721,-2204,-116,44,-52
289493439,0.42156982421875,-0.745849609375,-0.2335205078125,0.45989990234375,-2971,-4900,-2456,-126,48,-49
289503431,0.4130859375,-0.754638671875,-0.242919921875,0.4482421875,-2747,-5052,-2783,-136,52,-45
289513417,0.4034423828125,-0.7640380859375,-0.2520751953125,0.43585205078125,-2537,-5171,-3203,-145,57,-41
289523400,0.39263916015625,-0.7740478515625,-0.2608642578125,0.42266845703125,-2336,-5237,-3672,-153,62,-34
289533378,0.3804931640625,-0.78472900390625,-0.26873779296875,0.408935546875,-2181,-5293,-4152,-160,67,-23
289543360,0.3670654296875,-0.7960205078125,-0.275146484375,0.39483642578125,-2028,-5396,-4625,-167,73,-7
289553343,0.35223388671875,-0.80804443359375,-0.279541015625,0.38067626953125,-1962,-5593,-5082,-172,79,13
289563324,0.33624267578125,-0.82061767578125,-0.28167724609375,0.3663330078125,-2003,-5809,-5509,-175,85,32
289573307,0.31939697265625,-0.83355712890625,-0.28179931640625,0.35186767578125,-2169,-5990,-5900,-177,92,46
289583293,0.3021240234375,-0.846435546875,-0.2803955078125,0.33709716796875,-2387,-6081,-6288,-176,98,54
289593274,0.28466796875,-0.85919189453125,-0.27783203125,0.3218994140625,-2635,-6103,-6662,-175,104,60
289603256,0.26715087890625,-0.87158203125,-0.2742919921875,0.3062744140625,-2857,-6045,-6972,-173,109,64
289613237,0.2498779296875,-0.8834228515625,-0.26983642578125,0.29046630859375,-3064,-5919,-7228,-170,112,68
289623230,0.23272705078125,-0.894775390625,-0.26434326171875,0.2745361328125,-3330,-5616,-7370,-165,114,73
289633212,0.2158203125,-0.9053955078125,-0.25848388671875,0.2587890625,-3455,-5229,-7412,-161,116,69
289643193,0.19970703125,-0.91497802734375,-0.25341796875,0.242431640625,-3485,-4909,-7425,-157,117,58
289653185,0.18450927734375,-0.92340087890625,-0.25,0.22552490234375,-3280,-4553,-7601,-154,118,39
289663166,0.17010498046875,-0.93048095703125,-0.25,0.2069091796875,-3087,-4309,-7895,-155,123,3
289673142,0.1566162109375,-0.93609619140625,-0.253662109375,0.18695068359375,-3044,-4220,-8081,-157,129,-30
289683119,0.1439208984375,-0.940185546875,-0.26019287109375,0.16632080078125,-3023,-4167,-8228,-157,132,-56
289693101,0.13177490234375,-0.94293212890625,-0.26904296875,0.1455078125,-2930,-4125,-8274,-156,129,-75
289703084,0.119873046875,-0.94451904296875,-0.27923583984375,0.12493896484375,-2738,-4007,-8448,-154,124,-87
289713066,0.1080322265625,-0.9449462890625,-0.29052734375,0.10498046875,-2594,-3922,-8699,-153,117,-97
289723051,0.09625244140625,-0.94439697265625,-0.3026123046875,0.08587646484375,-2507,-3948,-9021,-151,110,-104
289733033,0.0845947265625,-0.9429931640625,-0.31475830078125,0.06787109375,-2543,-4080,-9409,-149,103,-105
289743019,0.07305908203125,-0.94097900390625,-0.32659912109375,0.0513916015625,-2591,-4235,-9703,-146,94,-102
289753001,0.06182861328125,-0.9385986328125,-0.3375244140625,0.03631591796875,-2563,-4430,-9874,-141,84,-94
289762990,0.051025390625,-0.93634033203125,-0.3468017578125,0.02288818359375,-2525,-4684,-9914,-135,74,-78
289772975,0.0408935546875,-0.9345703125,-0.3533935546875,0.0111083984375,-2429,-4927,-9887,-128,64,-54
289782952,0.03143310546875,-0.9337158203125,-0.35675048828125,0.0008544921875,-2365,-5022,-9868,-119,56,-25
289792939,0.02252197265625,-0.9339599609375,-0.35662841796875,-0.00799560546875,-2581,-4960,-9991,-110,51,5
289802915,0.01422119140625,-0.93548583984375,-0.3529052734375,-0.01531982421875,-3251,-4892,-10074,-101,49,38
289812902,0.0069580078125,-0.93804931640625,-0.34588623046875,-0.021484375,-3746,-4833,-9755,-91,49,64
289822885,0.00079345703125,-0.94122314453125,-0.33673095703125,-0.02740478515625,-3734,-4615,-9391,-81,45,80
289832867,-0.0045166015625,-0.94476318359375,-0.32611083984375,-0.0330810546875,-3366,-4294,-9104,-73,41,92
289842849,-0.00921630859375,-0.94854736328125,-0.314208984375,-0.0384521484375,-2840,-3885,-8972,-66,34,103
289852833,-0.0135498046875,-0.9525146484375,-0.3011474609375,-0.04327392578125,-2237,-3377,-9068,-60,28,112
289862815,-0.0177001953125,-0.95654296875,-0.2872314453125,-0.04779052734375,-1612,-2843,-9128,-56,25,118
289872801,-0.02166748046875,-0.96044921875,-0.27288818359375,-0.052001953125,-1078,-2375,-9160,-53,20,120
289882785,-0.02557373046875,-0.96405029296875,-0.25860595703125,-0.0556640625,-684,-1948,-9198,-51,16,118
289892773,-0.02960205078125,-0.9674072265625,-0.2447509765625,-0.05889892578125,-460,-1543,-9214,-50,13,113
289902754,-0.0338134765625,-0.97027587890625,-0.231689453125,-0.06170654296875,-313,-1150,-9247,-49,12,105
289912737,-0.0382080078125,-0.97271728515625,-0.21966552734375,-0.064208984375,-303,-836,-9298,-49,11,96
289922716,-0.0426025390625,-0.9747314453125,-0.20904541015625,-0.06640625,-337,-627,-9374,-48,10,83
289932699,-0.0469970703125,-0.976318359375,-0.20013427734375,-0.06829833984375,-327,-437,-9399,-47,9,67
289942681,-0.05145263671875,-0.97723388671875,-0.19378662109375,-0.07025146484375,-176,-236,-9355,-46,9,44
289952665,-0.0560302734375,-0.97747802734375,-0.19061279296875,-0.07208251953125,-20,-112,-9276,-45,8,16
289962646,-0.0606689453125,-0.97698974609375,-0.1907958984375,-0.07373046875,145,11,-9167,-44,8,-12
289972625,-0.0654296875,-0.9759521484375,-0.19403076171875,-0.0751953125,310,149,-9042,-43,8,-36
289982609,-0.0703125,-0.97442626953125,-0.1995849609375,-0.0765380859375,475,337,-8898,-42,7,-54
289992592,-0.0753173828125,-0.97247314453125,-0.20648193359375,-0.0777587890625,611,534,-8740,-41,6,-64
290002574,-0.080322265625,-0.9703369140625,-0.21405029296875,-0.07891845703125,720,714,-8564,-40,6,-68
290012558,-0.085205078125,-0.96807861328125,-0.22174072265625,-0.08013916015625,816,852,-8384,-39,7,-68
290022542,-0.09002685546875,-0.9658203125,-0.22930908203125,-0.081298828125,881,978,-8303,-39,6,-66
290032523,-0.0947265625,-0.96356201171875,-0.23638916015625,-0.08245849609375,961,1047,-8222,-38,6,-62
290042507,-0.09912109375,-0.96142578125,-0.242919921875,-0.08355712890625,1072,1044,-8130,-37,5,-58
290052490,-0.10321044921875,-0.9593505859375,-0.24884033203125,-0.084716796875,1178,1040,-8087,-36,4,-53
290062470,-0.10687255859375,-0.95751953125,-0.25396728515625,-0.08587646484375,1260,1013,-8032,-33,5,-45
290072453,-0.110107421875,-0.9559326171875,-0.2579345703125,-0.0870361328125,1269,972,-7973,-30,5,-34
290082434,-0.1129150390625,-0.95477294921875,-0.2606201171875,-0.08831787109375,1235,957,-7868,-28,6,-22
290092430,-0.11517333984375,-0.9541015625,-0.26165771484375,-0.0897216796875,1211,948,-7753,-25,6,-8
290102415,-0.1168212890625,-0.953857421875,-0.26116943359375,-0.0914306640625,1220,955,-7671,-22,8,6
290112393,-0.1180419921875,-0.9541015625,-0.25909423828125,-0.093505859375,1266,1009,-7642,-19,10,19
290122368,-0.1187744140625,-0.95465087890625,-0.25592041015625,-0.09588623046875,1313,1057,-7640,-16,11,29
290132352,-0.1190185546875,-0.95538330078125,-0.251953125,-0.098388671875,1309,1098,-7626,-13,13,34
290142334,-0.1190185546875,-0.95623779296875,-0.247802734375,-0.10089111328125,1234,1136,-7590,-11,14,36
290152320,-0.11865234375,-0.95697021484375,-0.24395751953125,-0.103271484375,1127,1162,-7539,-8,15,33
290162300,-0.11798095703125,-0.9576416015625,-0.24078369140625,-0.1055908203125,1032,1192,-7433,-5,17,27
290172284,-0.1170654296875,-0.95806884765625,-0.238525390625,-0.10772705078125,944,1208,-7339,-1,17,19
290182270,-0.115966796875,-0.95831298828125,-0.23712158203125,-0.1099853515625,1007,1323,-7279,2,19,13
290192256,-0.11468505859375,-0.9583740234375,-0.23626708984375,-0.112548828125,1155,1449,-7295,3,21,8
290202238,-0.11322021484375,-0.958251953125,-0.236083984375,-0.115234375,1283,1560,-7378,5,22,3
290212224,-0.111572265625,-0.9580078125,-0.236572265625,-0.117919921875,1396,1606,-7536,7,24,-3
290222206,-0.109619140625,-0.95758056640625,-0.23785400390625,-0.12042236328125,1454,1641,-7763,9,24,-9
290232192,-0.107421875,-0.95703125,-0.239990234375,-0.12274169921875,1524,1699,-7977,12,25,-16
290242175,-0.10504150390625,-0.956298828125,-0.24267578125,-0.125,1607,1769,-8188,15,25,-20
290252158,-0.1024169921875,-0.95562744140625,-0.245361328125,-0.12738037109375,1727,1896,-8380,17,26,-18
290262128,-0.099609375,-0.95501708984375,-0.24755859375,-0.12994384765625,1794,2034,-8511,18,27,-13
290272112,-0.09661865234375,-0.95440673828125,-0.24981689453125,-0.13214111328125,1761,1963,-8346,21,24,-16
290282095,-0.093017578125,-0.95367431640625,-0.25335693359375,-0.13336181640625,1706,1919,-8477,29,20,-29
290292079,-0.08880615234375,-0.95263671875,-0.25848388671875,-0.1336669921875,1866,1888,-8772,36,16,-42
290302062,-0.08380126953125,-0.951171875,-0.26544189453125,-0.13385009765625,2194,1857,-9129,44,16,-58
290312051,-0.078125,-0.94915771484375,-0.27398681640625,-0.13421630859375,2624,2014,-9576,50,19,-69
290322030,-0.07220458984375,-0.947021484375,-0.28240966796875,-0.13525390625,2950,2319,-9990,52,25,-62
290332013,-0.06634521484375,-0.94512939453125,-0.28912353515625,-0.13702392578125,3010,2708,-10405,51,30,-45
290341996,-0.0609130859375,-0.94390869140625,-0.2935791015625,-0.13885498046875,2793,3080,-10834,46,31,-24
290351985,-0.0562744140625,-0.9432373046875,-0.2957763671875,-0.140380859375,2333,3516,-11172,39,28,-7
290361965,-0.05316162109375,-0.94305419921875,-0.296630859375,-0.14129638671875,1802,4011,-11368,29,21,2
290371947,-0.05230712890625,-0.94281005859375,-0.29730224609375,-0.1414794921875,1268,4480,-11438,16,11,-2
290381927,-0.0537109375,-0.9422607421875,-0.29937744140625,-0.14068603515625,794,4821,-11379,3,1,-18
290391910,-0.0572509765625,-0.94110107421875,-0.302978515625,-0.1390380859375,465,5059,-11177,-10,-10,-35
290401890,-0.0628662109375,-0.9395751953125,-0.30767822265625,-0.13653564453125,282,5209,-10847,-22,-22,-45
290411878,-0.0701904296875,-0.93780517578125,-0.31280517578125,-0.13360595703125,298,5237,-10409,-35,-31,-51
290421856,-0.07879638671875,-0.93572998046875,-0.318115234375,-0.13055419921875,471,5104,-9807,-46,-38,-55
290431838,-0.0882568359375,-0.9334716796875,-0.323486328125,-0.12762451171875,731,4799,-9035,-53,-42,-58
290441818,-0.09808349609375,-0.93096923828125,-0.3289794921875,-0.124755859375,1022,4281,-8078,-58,-44,-61
290451802,-0.107666015625,-0.9283447265625,-0.33441162109375,-0.1219482421875,1304,3575,-7043,-59,-45,-62
290461786,-0.11651611328125,-0.9256591796875,-0.3397216796875,-0.11920166015625,1590,2787,-6084,-57,-44,-61
290471766,-0.12432861328125,-0.9229736328125,-0.3450927734375,-0.1168212890625,1872,1994,-5161,-51,-39,-61
290481756,-0.13079833984375,-0.92034912109375,-0.35028076171875,-0.11492919921875,2116,1282,-4250,-45,-32,-59
290491740,-0.135986328125,-0.91778564453125,-0.3553466796875,-0.11383056640625,2378,759,-3466,-37,-23,-55
290501716,-0.13970947265625,-0.91534423828125,-0.360107421875,-0.114013671875,2605,457,-3010,-29,-11,-50
290511705,-0.141845703125,-0.913330078125,-0.364013671875,-0.1153564453125,2732,285,-2721,-21,2,-37
290521687,-0.14251708984375,-0.91192626953125,-0.36627197265625,-0.1181640625,2785,239,-2441,-15,15,-18
290531672,-0.141845703125,-0.91131591796875,-0.36663818359375,-0.12255859375,2693,103,-2119,-9,30,2
290541652,-0.13916015625,-0.91168212890625,-0.36517333984375,-0.12713623046875,966,-1237,-354,0,40,23
290551636,-0.1357421875,-0.9132080078125,-0.3619384765625,-0.12933349609375,-122,-1076,522,15,37,46
290561620,-0.1307373046875,-0.91558837890625,-0.35638427734375,-0.13287353515625,197,-900,-103,25,34,61
290571602,-0.1239013671875,-0.91851806640625,-0.349853515625,-0.13677978515625,493,-452,-1095,35,35,69
290581582,-0.11639404296875,-0.92156982421875,-0.34295654296875,-0.14007568359375,233,39,-2513,41,37,73
290591565,-0.1085205078125,-0.92486572265625,-0.3358154296875,-0.14215087890625,-5,529,-3942,46,37,78
290601549,-0.10009765625,-0.92822265625,-0.3277587890625,-0.1451416015625,846,1225,-5316,49,36,85
290611533,-0.09136962890625,-0.93145751953125,-0.3189697265625,-0.14971923828125,1996,2057,-6976,48,40,88
290621515,-0.0828857421875,-0.934326171875,-0.31005859375,-0.15509033203125,2951,2693,-8617,44,45,87
290631504,-0.07501220703125,-0.9366455078125,-0.3021240234375,-0.1610107421875,3794,3183,-10177,38,50,76
290641486,-0.06829833984375,-0.93792724609375,-0.29608154296875,-0.16748046875,4523,3598,-11635,29,53,55
290651467,-0.0631103515625,-0.93817138671875,-0.29254150390625,-0.17425537109375,5121,3894,-12845,18,55,32
290661450,-0.0599365234375,-0.93756103515625,-0.2911376953125,-0.1810302734375,5465,4034,-13766,5,54,12
290671437,-0.05859375,-0.9364013671875,-0.291015625,-0.18731689453125,5531,4062,-14395,-8,49,0
290681418,-0.05938720703125,-0.93511962890625,-0.2913818359375,-0.19293212890625,5427,4040,-14655,-22,41,-6
290691398,-0.06207275390625,-0.93377685546875,-0.2919921875,-0.1976318359375,4993,3932,-14565,-34,32,-10
290701375,-0.0665283203125,-0.93243408203125,-0.29315185546875,-0.20086669921875,4193,3741,-14158,-44,21,-19
290711359,-0.0726318359375,-0.93109130859375,-0.29510498046875,-0.20208740234375,3211,3508,-13558,-50,6,-28
290721343,-0.0799560546875,-0.9298095703125,-0.2977294921875,-0.2012939453125,2237,3182,-12743,-53,-10,-34
290731321,-0.087890625,-0.9288330078125,-0.30047607421875,-0.198486328125,1290,2820,-11777,-53,-27,-35
290741303,-0.09613037109375,-0.92828369140625,-0.30267333984375,-0.19366455078125,345,2487,-10662,-51,-42,-29
290751286,-0.10430908203125,-0.92852783203125,-0.3033447265625,-0.18707275390625,-619,2202,-9452,-47,-57,-14
290761276,-0.112060546875,-0.92974853515625,-0.3018798828125,-0.17889404296875,-1486,1907,-8155,-41,-70,6
290771257,-0.11907958984375,-0.931884765625,-0.298095703125,-0.1693115234375,-2358,1555,-6768,-33,-81,25
290781238,-0.12518310546875,-0.9346923828125,-0.29278564453125,-0.158203125,-3217,1098,-5308,-23,-92,37
290791229,-0.12994384765625,-0.93792724609375,-0.28704833984375,-0.1453857421875,-3918,541,-3847,-9,-101,38
290801215,-0.1329345703125,-0.94110107421875,-0.2821044921875,-0.13116455078125,-4350,43,-2525,9,-107,30
290811196,-0.134033203125,-0.94403076171875,-0.27838134765625,-0.1158447265625,-4504,-227,-1403,28,-111,20
290821187,-0.1331787109375,-0.94671630859375,-0.27581787109375,-0.09991455078125,-4404,-290,-507,47,-111,13
290831174,-0.13031005859375,-0.94921875,-0.27392578125,-0.08416748046875,-3880,-227,197,64,-108,7
290841154,-0.12548828125,-0.951416015625,-0.2725830078125,-0.06939697265625,-2976,-7,691,79,-100,4
290851125,-0.11859130859375,-0.95361328125,-0.2708740234375,-0.056640625,-1742,351,885,91,-86,10
290861109,-0.10992431640625,-0.9560546875,-0.2679443359375,-0.04669189453125,-297,781,781,100,-69,24
290871091,-0.09967041015625,-0.95867919921875,-0.2635498046875,-0.0399169921875,1271,1235,174,105,-48,37
290881074,-0.08795166015625,-0.96142578125,-0.25811767578125,-0.0367431640625,3004,1737,-1201,108,-25,46
290891063,-0.07525634765625,-0.96405029296875,-0.25225830078125,-0.03753662109375,4852,2363,-3577,106,0,51
290901041,-0.0625,-0.96630859375,-0.24627685546875,-0.04248046875,6852,2925,-6696,96,26,53
290911025,-0.0504150390625,-0.968017578125,-0.24041748046875,-0.0516357421875,8773,3234,-9266,80,51,51
290921008,-0.039794921875,-0.96905517578125,-0.2352294921875,-0.06427001953125,10315,3218,-11154,58,74,45
290930995,-0.03118896484375,-0.96917724609375,-0.231201171875,-0.0794677734375,11219,2863,-12541,33,91,33
290940977,-0.02545166015625,-0.96832275390625,-0.2294921875,-0.09527587890625,11071,2378,-13560,6,100,10
290950953,-0.02337646484375,-0.96661376953125,-0.2303466796875,-0.110107421875,10130,1790,-14309,-22,98,-15
290960930,-0.02471923828125,-0.96441650390625,-0.23297119140625,-0.122802734375,8647,1188,-14860,-46,87,-30
290970912,-0.029052734375,-0.96234130859375,-0.23577880859375,-0.1324462890625,6827,545,-15264,-65,68,-31
290980898,-0.035400390625,-0.96075439453125,-0.2379150390625,-0.13861083984375,4931,11,-15394,-75,46,-26
290990881,-0.04302978515625,-0.9595947265625,-0.2393798828125,-0.1417236328125,3062,-349,-14578,-79,23,-21
291000863,-0.051513671875,-0.9588623046875,-0.2406005859375,-0.141845703125,1258,-647,-13148,-77,1,-22
291010844,-0.05999755859375,-0.958251953125,-0.24267578125,-0.13916015625,-387,-978,-11423,-69,-18,-31
291020825,-0.06787109375,-0.95758056640625,-0.24615478515625,-0.1337890625,-1802,-1322,-9571,-56,-35,-41
291030810,-0.074462890625,-0.95697021484375,-0.2506103515625,-0.12615966796875,-2889,-1587,-7681,-39,-48,-47
291040793,-0.07916259765625,-0.95648193359375,-0.25537109375,-0.11700439453125,-3678,-1736,-5840,-19,-58,-46
291050784,-0.0819091796875,-0.956298828125,-0.2596435546875,-0.1068115234375,-4103,-1711,-4034,1,-63,-38
291060767,-0.08251953125,-0.95654296875,-0.2626953125,-0.0965576171875,-4099,-1449,-2402,21,-63,-25
291070749,-0.0811767578125,-0.95709228515625,-0.2642822265625,-0.0870361328125,-3689,-937,-1109,38,-59,-11
291080738,-0.078125,-0.95806884765625,-0.2642822265625,-0.07891845703125,-2880,-292,-285,50,-50,3
291090711,-0.07354736328125,-0.959228515625,-0.26312255859375,-0.072998046875,-1636,355,-194,59,-37,13
291100693,-0.06732177734375,-0.9603271484375,-0.261474609375,-0.0699462890625,-9,1066,-983,64,-20,16
291110683,-0.060302734375,-0.961181640625,-0.2601318359375,-0.07012939453125,1731,1888,-2398,65,1,13
291120661,-0.05303955078125,-0.961669921875,-0.2587890625,-0.0738525390625,3507,2630,-4336,59,23,16
291130644,-0.04595947265625,-0.9620361328125,-0.2567138671875,-0.08087158203125,5084,3141,-6612,49,44,23
291140624,-0.03948974609375,-0.96221923828125,-0.25384521484375,-0.09039306640625,6155,3399,-8968,35,63,29
291150608,-0.0343017578125,-0.962158203125,-0.250732421875,-0.10125732421875,6539,3402,-10932,19,75,30
291160591,-0.03070068359375,-0.9617919921875,-0.24798583984375,-0.11224365234375,6293,3176,-12378,3,81,23
291170576,-0.029052734375,-0.9610595703125,-0.2462158203125,-0.1224365234375,5452,2833,-13374,-12,79,13
291180559,-0.0294189453125,-0.9599609375,-0.2459716796875,-0.13092041015625,4235,2478,-13753,-25,71,-2
291190542,-0.03192138671875,-0.9586181640625,-0.24725341796875,-0.1375732421875,2973,2114,-13667,-37,59,-16
291200523,-0.03607177734375,-0.95721435546875,-0.24945068359375,-0.142578125,1878,1668,-13245,-47,45,-25
291210506,-0.041259765625,-0.95587158203125,-0.2518310546875,-0.14599609375,845,1145,-12605,-53,32,-26
291220488,-0.04693603515625,-0.954833984375,-0.2537841796875,-0.14752197265625,-284,534,-11790,-55,19,-22
291230471,-0.05255126953125,-0.9542236328125,-0.2552490234375,-0.14697265625,-1507,-111,-10900,-52,6,-18
291240453,-0.05767822265625,-0.95404052734375,-0.25640869140625,-0.144287109375,-2741,-739,-10057,-46,-6,-16
291250436,-0.06219482421875,-0.9541015625,-0.25775146484375,-0.13958740234375,-3884,-1348,-9378,-37,-17,-17
291260421,-0.065673828125,-0.95428466796875,-0.25946044921875,-0.13336181640625,-4684,-1931,-8896,-28,-24,-18
291270404,-0.06787109375,-0.95465087890625,-0.26092529296875,-0.12664794921875,-4944,-2435,-8602,-18,-28,-13
291280395,-0.06829833984375,-0.9554443359375,-0.2607421875,-0.12042236328125,-4668,-2734,-8494,-8,-27,4
291290371,-0.0672607421875,-0.95697021484375,-0.25787353515625,-0.115234375,-4168,-2647,-8466,1,-22,31
291300355,-0.06536865234375,-0.959228515625,-0.2515869140625,-0.1112060546875,-3551,-2142,-8395,8,-18,62
291310335,-0.06304931640625,-0.962158203125,-0.241943359375,-0.10845947265625,-2912,-1333,-8206,12,-13,89
291320319,-0.06103515625,-0.96533203125,-0.2303466796875,-0.1068115234375,-2296,-375,-7895,11,-9,103
291330301,-0.05987548828125,-0.96832275390625,-0.2181396484375,-0.10601806640625,-1670,591,-7502,6,-7,104
291340287,-0.0596923828125,-0.97100830078125,-0.20611572265625,-0.1058349609375,-873,1336,-7137,-1,-8,101
291350266,-0.0599365234375,-0.973388671875,-0.1944580078125,-0.10601806640625,259,1726,-6873,-4,-13,96
291360256,-0.05950927734375,-0.97552490234375,-0.183349609375,-0.106201171875,1675,1854,-6772,1,-20,89
291370239,-0.05804443359375,-0.97747802734375,-0.173583984375,-0.105712890625,3222,1870,-6917,11,-31,75
291380223,-0.0552978515625,-0.97906494140625,-0.16619873046875,-0.10406494140625,4826,1819,-7248,24,-44,54
291390207,-0.05126953125,-0.98046875,-0.160888671875,-0.10107421875,6442,1759,-7550,37,-58,38
291400187,-0.04595947265625,-0.98162841796875,-0.15802001953125,-0.09722900390625,8255,1752,-7917,50,-70,16
291410178,-0.03985595703125,-0.98211669921875,-0.1590576171875,-0.0931396484375,10051,1809,-8354,60,-74,-20
291420158,-0.0333251953125,-0.98175048828125,-0.16485595703125,-0.08941650390625,11631,1970,-8672,67,-73,-59
291430127,-0.026611328125,-0.98046875,-0.17474365234375,-0.08642578125,12859,2250,-8836,72,-67,-89
291440113,-0.0201416015625,-0.97845458984375,-0.1873779296875,-0.08447265625,13566,2902,-8962,74,-55,-108
291450099,-0.0150146484375,-0.9757080078125,-0.20184326171875,-0.08416748046875,13694,3767,-8853,67,-39,-121
291460082,-0.0118408203125,-0.9722900390625,-0.2174072265625,-0.0855712890625,12958,4494,-8623,52,-18,-130
291470069,-0.0108642578125,-0.96826171875,-0.23370361328125,-0.08819580078125,11027,4953,-8275,30,3,-135
291480051,-0.0126953125,-0.9642333984375,-0.24871826171875,-0.0911865234375,8080,4977,-7947,4,22,-121
291490029,-0.01666259765625,-0.96075439453125,-0.260498046875,-0.09423828125,4615,4332,-7820,-23,37,-93
291500010,-0.021728515625,-0.9581298828125,-0.26885986328125,-0.09674072265625,842,3155,-7806,-42,46,-66
291509996,-0.027587890625,-0.956298828125,-0.27423095703125,-0.09796142578125,-2915,1806,-7688,-55,49,-41
291519982,-0.033935546875,-0.95538330078125,-0.27667236328125,-0.0980224609375,-6066,546,-7507,-63,46,-16
291529964,-0.04034423828125,-0.9554443359375,-0.2757568359375,-0.097412109375,-8328,-576,-7356,-67,39,14
291539942,-0.046142578125,-0.95672607421875,-0.27099609375,-0.09600830078125,-9747,-1615,-7226,-64,29,48
291549926,-0.05059814453125,-0.95892333984375,-0.2630615234375,-0.093505859375,-10412,-2481,-7101,-55,16,72
291559908,-0.05352783203125,-0.961669921875,-0.25372314453125,-0.0897216796875,-10319,-3090,-7015,-40,1,79
291569891,-0.05474853515625,-0.96435546875,-0.24481201171875,-0.084716796875,-9420,-3364,-7072,-22,-15,72
291579878,-0.054443359375,-0.9666748046875,-0.23736572265625,-0.0791015625,-7643,-3231,-7316,-5,-29,58
291589861,-0.05303955078125,-0.9686279296875,-0.2315673828125,-0.0738525390625,-5218,-2700,-7767,8,-39,44
291599840,-0.05108642578125,-0.9700927734375,-0.22711181640625,-0.06951904296875,-2560,-1964,-8350,16,-43,32
291609823,-0.048828125,-0.97119140625,-0.22381591796875,-0.06634521484375,-5,-1229,-8979,19,-42,23
291619805,-0.0465087890625,-0.97198486328125,-0.22149658203125,-0.064208984375,2185,-558,-9471,20,-39,14
291629788,-0.04425048828125,-0.97247314453125,-0.22021484375,-0.06304931640625,4001,44,-9761,20,-34,6
291639771,-0.04217529296875,-0.97265625,-0.2198486328125,-0.06298828125,5471,594,-9868,19,-28,-1
291649759,-0.04022216796875,-0.97259521484375,-0.22003173828125,-0.0640869140625,6608,1079,-9810,17,-20,-5
291659742,-0.0384521484375,-0.972412109375,-0.22052001953125,-0.06622314453125,7431,1506,-9647,15,-11,-6
291669718,-0.03692626953125,-0.97210693359375,-0.22119140625,-0.069580078125,7939,1872,-9383,12,-2,-8
291679704,-0.03582763671875,-0.97149658203125,-0.22247314453125,-0.07379150390625,8024,2157,-9050,8,8,-13
291689683,-0.03509521484375,-0.970703125,-0.22454833984375,-0.07861328125,7709,2337,-8668,4,17,-20
291699667,-0.03485107421875,-0.96966552734375,-0.227294921875,-0.08367919921875,7053,2399,-8268,0,25,-24
291709649,-0.03485107421875,-0.96856689453125,-0.23004150390625,-0.0887451171875,6165,2352,-7899,-3,29,-23
291719635,-0.0350341796875,-0.967529296875,-0.23248291015625,-0.09356689453125,5136,2222,-7616,-5,32,-20
291729613,-0.03533935546875,-0.96649169921875,-0.2347412109375,-0.09783935546875,4055,2035,-7429,-7,33,-19
291739597,-0.035888671875,-0.96551513671875,-0.23712158203125,-0.1015625,2955,1830,-7307,-8,32,-21
291749578,-0.03668212890625,-0.96453857421875,-0.23980712890625,-0.10455322265625,1879,1594,-7200,-10,30,-23
291759562,-0.03753662109375,-0.96356201171875,-0.2425537109375,-0.10675048828125,904,1317,-7118,-11,26,-23
291769545,-0.03851318359375,-0.96270751953125,-0.2452392578125,-0.10821533203125,69,1025,-7079,-10,23,-22
291779528,-0.03936767578125,-0.96197509765625,-0.24761962890625,-0.10888671875,-568,713,-7089,-10,18,-19
291789510,-0.0399169921875,-0.96142578125,-0.24957275390625,-0.1090087890625,-1034,401,-7185,-8,13,-16
291799494,-0.040283203125,-0.9610595703125,-0.25115966796875,-0.10845947265625,-1380,100,-7407,-6,9,-12
291809477,-0.040283203125,-0.96087646484375,-0.2523193359375,-0.1072998046875,-1653,-214,-7751,-4,5,-10
291819459,-0.039794921875,-0.9608154296875,-0.25335693359375,-0.10565185546875,-1959,-576,-8134,-1,3,-8
291829449,-0.0389404296875,-0.96087646484375,-0.254150390625,-0.103271484375,-2361,-973,-8493,1,1,-6
291839437,-0.03765869140625,-0.96112060546875,-0.25457763671875,-0.1004638671875,-2715,-1342,-8818,3,0,-2
291849423,-0.0360107421875,-0.9615478515625,-0.25433349609375,-0.097412109375,-2995,-1652,-9166,5,-1,5
291859402,-0.0341796875,-0.96234130859375,-0.2529296875,-0.09423828125,-3155,-1886,-9608,5,-1,15
291869380,-0.0321044921875,-0.96343994140625,-0.24993896484375,-0.09130859375,-3088,-2038,-10162,5,-1,30
291879366,-0.02996826171875,-0.96502685546875,-0.244873046875,-0.0889892578125,-2807,-2052,-10688,4,1,48
291889350,-0.02813720703125,-0.96697998046875,-0.23785400390625,-0.0875244140625,-2415,-1829,-11054,1,3,63
291899332,-0.02685546875,-0.9691162109375,-0.2294921875,-0.08685302734375,-1994,-1412,-11193,-3,5,73
291909310,-0.0264892578125,-0.97119140625,-0.2205810546875,-0.08697509765625,-1569,-878,-11108,-8,7,75
291919294,-0.02716064453125,-0.97308349609375,-0.21173095703125,-0.0875244140625,-1153,-349,-10826,-14,6,73
291929279,-0.02862548828125,-0.97479248046875,-0.20306396484375,-0.088134765625,-637,46,-10376,-19,3,71
291939263,-0.0302734375,-0.9764404296875,-0.1944580078125,-0.08892822265625,326,176,-9825,-21,-3,70
291949240,-0.03106689453125,-0.97802734375,-0.18548583984375,-0.090087890625,1756,41,-9145,-15,-10,73
291959236,-0.02978515625,-0.979736328125,-0.1761474609375,-0.0908203125,3289,-273,-8454,1,-21,76
291969216,-0.02569580078125,-0.9815673828125,-0.16693115234375,-0.09002685546875,4668,-664,-7869,26,-35,74
291979206,-0.01873779296875,-0.98321533203125,-0.15936279296875,-0.08709716796875,6070,-879,-7498,53,-53,59
291989188,-0.00946044921875,-0.984375,-0.15545654296875,-0.082275390625,7438,-816,-7341,78,-69,26
291999174,0.00115966796875,-0.98455810546875,-0.1578369140625,-0.076171875,8791,-582,-7307,97,-81,-29
292009143,0.012939453125,-0.9835205078125,-0.16680908203125,-0.06939697265625,9994,-105,-7278,115,-86,-79
292019125,0.02532958984375,-0.981201171875,-0.1807861328125,-0.06298828125,11227,674,-7342,127,-84,-115
292029107,0.0379638671875,-0.977783203125,-0.197998046875,-0.058349609375,12394,1579,-7391,133,-73,-139
292039091,0.05010986328125,-0.97320556640625,-0.2174072265625,-0.05633544921875,13221,2556,-7390,130,-52,-155
292049076,0.061279296875,-0.9676513671875,-0.23797607421875,-0.057373046875,13391,3585,-7218,120,-25,-164
292059062,0.0703125,-0.9615478515625,-0.2584228515625,-0.06121826171875,12654,4575,-6925,100,3,-163
292069041,0.076416015625,-0.95526123046875,-0.2777099609375,-0.067626953125,11079,5313,-6718,71,32,-157
292079022,0.0791015625,-0.94921875,-0.2950439453125,-0.075927734375,8469,5568,-6567,36,57,-143
292089001,0.07867431640625,-0.94403076171875,-0.30908203125,-0.08477783203125,5165,4858,-6782,0,76,-119
292098993,0.07647705078125,-0.9400634765625,-0.3192138671875,-0.093017578125,1522,3395,-7296,-28,86,-90
292108966,0.07305908203125,-0.93756103515625,-0.3251953125,-0.09967041015625,-2075,1648,-7858,-48,88,-57
292118950,0.068603515625,-0.93658447265625,-0.32757568359375,-0.10455322265625,-5311,4,-8385,-61,82,-29
292128933,0.06292724609375,-0.93670654296875,-0.327392578125,-0.10760498046875,-7933,-1347,-8826,-72,71,-8
292138918,0.05609130859375,-0.93768310546875,-0.32513427734375,-0.1094970703125,-9583,-2328,-9317,-80,59,9
292148899,0.0484619140625,-0.939453125,-0.32086181640625,-0.110595703125,-10350,-3010,-9754,-86,46,28
292158885,0.0404052734375,-0.94195556640625,-0.314453125,-0.1109619140625,-10419,-3440,-10061,-88,32,47
292168869,0.03228759765625,-0.94488525390625,-0.306640625,-0.1104736328125,-9934,-3646,-10209,-86,18,58
292178852,0.02435302734375,-0.94781494140625,-0.298583984375,-0.109130859375,-9083,-3710,-10168,-81,4,59
292188835,0.016845703125,-0.95062255859375,-0.2911376953125,-0.10675048828125,-7972,-3727,-9943,-74,-11,54
292198816,0.01019287109375,-0.95306396484375,-0.28448486328125,-0.1033935546875,-6472,-3746,-9632,-63,-26,48
292208799,0.00518798828125,-0.955322265625,-0.2784423828125,-0.0992431640625,-4576,-3759,-9372,-47,-39,45
292218784,0.00238037109375,-0.95751953125,-0.27264404296875,-0.09454345703125,-2441,-3692,-9167,-27,-49,44
292228772,0.0018310546875,-0.95941162109375,-0.2674560546875,-0.0894775390625,-286,-3421,-8963,-6,-56,39
292241995,0.00335693359375,-0.96087646484375,-0.26385498046875,-0.08453369140625,1811,-2955,-8785,15,-58,26
292248736,0.00677490234375,-0.961669921875,-0.26226806640625,-0.080078125,3834,-2324,-8654,33,-55,10
292258716,0.01177978515625,-0.9617919921875,-0.26275634765625,-0.07672119140625,5792,-1555,-8648,50,-49,-6
292268693,0.018310546875,-0.961181640625,-0.2650146484375,-0.0751953125,7570,-783,-8673,61,-36,-18
292278676,0.02587890625,-0.96002197265625,-0.2684326171875,-0.07586669921875,9047,10,-8783,69,-19,-26
292288663,0.03399658203125,-0.95843505859375,-0.2723388671875,-0.07867431640625,10103,870,-8932,71,0,-29
292298641,0.041748046875,-0.9564208984375,-0.27679443359375,-0.0836181640625,10630,1835,-9059,67,18,-34
292308624,0.0479736328125,-0.95391845703125,-0.28216552734375,-0.090576171875,10486,2839,-9094,55,35,-43
292318607,0.0518798828125,-0.95111083984375,-0.28802490234375,-0.09869384765625,9649,3633,-9231,35,50,-48
292328590,0.0533447265625,-0.94854736328125,-0.29302978515625,-0.1075439453125,8488,3947,-9742,11,59,-40
292338573,0.0526123046875,-0.94671630859375,-0.2957763671875,-0.1163330078125,6950,3750,-10412,-13,63,-21
292348561,0.0499267578125,-0.946044921875,-0.2952880859375,-0.12408447265625,5006,3210,-10932,-35,61,4
292358542,0.0452880859375,-0.9462890625,-0.2926025390625,-0.13018798828125,2807,2581,-11201,-53,54,18
292368524,0.03851318359375,-0.94696044921875,-0.28948974609375,-0.13421630859375,416,1906,-11225,-68,42,16
292378510,0.02960205078125,-0.94769287109375,-0.28753662109375,-0.13568115234375,-2067,1169,-11044,-80,26,2
292388492,0.01910400390625,-0.94818115234375,-0.287353515625,-0.1343994140625,-4278,229,-10789,-88,7,-14
292398470,0.00799560546875,-0.9486083984375,-0.28826904296875,-0.13043212890625,-6015,-863,-10451,-90,-13,-21
292408455,-0.00238037109375,-0.94927978515625,-0.28900146484375,-0.1240234375,-7213,-1996,-9980,-83,-30,-15
292418435,-0.0108642578125,-0.95037841796875,-0.2886962890625,-0.11572265625,-7896,-3244,-9367,-67,-44,-3
292428431,-0.01617431640625,-0.95184326171875,-0.2874755859375,-0.10552978515625,-8252,-4354,-8627,-41,-54,6
292438412,-0.017822265625,-0.9534912109375,-0.28594970703125,-0.09375,-8163,-5023,-7851,-9,-62,11
292448398,-0.01605224609375,-0.95513916015625,-0.28448486328125,-0.08123779296875,-7554,-5158,-7093,24,-66,13
292458371,-0.0111083984375,-0.9566650390625,-0.28289794921875,-0.06890869140625,-6428,-4856,-6540,53,-66,17
292468353,-0.0032958984375,-0.95806884765625,-0.28076171875,-0.0574951171875,-4920,-4200,-6205,78,-61,24
292478336,0.00665283203125,-0.95947265625,-0.27777099609375,-0.04779052734375,-3135,-3141,-6057,97,-52,32
292488319,0.0177001953125,-0.960693359375,-0.27423095703125,-0.04022216796875,-1238,-1797,-5995,108,-41,36
292498301,0.02886962890625,-0.961669921875,-0.2705078125,-0.03521728515625,984,-328,-6121,109,-31,36
292508285,0.03948974609375,-0.96221923828125,-0.2674560546875,-0.03369140625,3738,1057,-6567,101,-18,29
292518269,0.048828125,-0.96221923828125,-0.26544189453125,-0.0364990234375,6895,2017,-7359,83,-3,20
292528256,0.05645751953125,-0.9619140625,-0.2640380859375,-0.0433349609375,9411,2281,-8475,57,16,16
292538242,0.0621337890625,-0.961669921875,-0.26202392578125,-0.05291748046875,11260,1925,-9611,27,36,20
292548222,0.0654296875,-0.9615478515625,-0.2589111328125,-0.06494140625,12619,1360,-10586,-3,51,26
292558206,0.06591796875,-0.9613037109375,-0.25579833984375,-0.0789794921875,13617,719,-11208,-33,61,19
292568187,0.0633544921875,-0.96044921875,-0.25439453125,-0.09442138671875,14025,119,-11404,-62,65,-3
292578176,0.057373046875,-0.958984375,-0.25531005859375,-0.1094970703125,13560,-439,-11362,-87,64,-27
292588157,0.04852294921875,-0.95703125,-0.25811767578125,-0.12335205078125,12417,-1111,-11177,-108,58,-45
292598128,0.03765869140625,-0.95489501953125,-0.26190185546875,-0.13507080078125,10604,-1945,-10917,-121,49,-56
292608111,0.02606201171875,-0.9527587890625,-0.266357421875,-0.14373779296875,8240,-2889,-10609,-123,37,-62
292618098,0.01458740234375,-0.95074462890625,-0.27154541015625,-0.14898681640625,5664,-3744,-10188,-116,24,-68
292628080,0.003662109375,-0.9488525390625,-0.27740478515625,-0.15118408203125,3078,-4244,-9625,-104,11,-70
292638062,-0.00592041015625,-0.94720458984375,-0.28314208984375,-0.1505126953125,547,-4857,-9050,-87,0,-64
292648051,-0.0125732421875,-0.94622802734375,-0.2879638671875,-0.14703369140625,-1865,-5524,-8457,-60,-7,-50
292658027,-0.015380859375,-0.9459228515625,-0.29180908203125,-0.14105224609375,-4032,-5906,-7762,-25,-12,-35
292668012,-0.0146484375,-0.946044921875,-0.295166015625,-0.1331787109375,-6018,-5899,-6995,10,-14,-26
292677995,-0.01043701171875,-0.94635009765625,-0.29840087890625,-0.123779296875,-7713,-5670,-6311,45,-14,-20
292687984,-0.00274658203125,-0.94677734375,-0.30145263671875,-0.11297607421875,-8990,-5086,-5843,79,-14,-14
292697961,0.0078125,-0.94732666015625,-0.30377197265625,-0.1015625,-9673,-3997,-5620,109,-14,-3
292707946,0.02032470703125,-0.94793701171875,-0.30487060546875,-0.09027099609375,-9672,-2482,-5603,131,-12,8
292717925,0.03387451171875,-0.94842529296875,-0.30499267578125,-0.08013916015625,-9058,-670,-5725,145,-7,15
292727910,0.0477294921875,-0.94866943359375,-0.30450439453125,-0.07183837890625,-7912,1273,-6010,150,-1,20
292737898,0.060791015625,-0.94866943359375,-0.30352783203125,-0.065673828125,-6403,3148,-6338,145,4,22
292747879,0.0723876953125,-0.94854736328125,-0.3021240234375,-0.0618896484375,-4542,4666,-6855,130,9,24
292757861,0.08203125,-0.948486328125,-0.29998779296875,-0.060546875,-2233,5779,-7625,109,12,30
292767843,0.08929443359375,-0.9488525390625,-0.296630859375,-0.06182861328125,387,6431,-8483,82,14,41
292777827,0.09381103515625,-0.94964599609375,-0.2918701171875,-0.06524658203125,2823,6518,-9226,50,14,50
292787809,0.09515380859375,-0.95074462890625,-0.28680419921875,-0.06988525390625,4882,5954,-9776,15,11,46
292797789,0.09368896484375,-0.95159912109375,-0.2830810546875,-0.07537841796875,6737,4789,-10236,-18,6,29
292807766,0.0897216796875,-0.95184326171875,-0.28179931640625,-0.08154296875,8312,3208,-10622,-46,0,3
292817763,0.08392333984375,-0.95147705078125,-0.282958984375,-0.08782958984375,9517,1427,-10904,-68,-6,-20
292827742,0.07684326171875,-0.95068359375,-0.28558349609375,-0.09375,10289,-180,-11010,-81,-12,-33
292837718,0.0689697265625,-0.94989013671875,-0.2884521484375,-0.09918212890625,10611,-1503,-10868,-88,-15,-34
292847701,0.06109619140625,-0.94927978515625,-0.29052734375,-0.10382080078125,10301,-2537,-10465,-88,-15,-27
292857682,0.0538330078125,-0.94915771484375,-0.2911376953125,-0.107177734375,9329,-3268,-9880,-81,-15,-13
292867665,0.04742431640625,-0.94952392578125,-0.29034423828125,-0.109130859375,8003,-3650,-9209,-71,-14,-1
292877653,0.0419921875,-0.95001220703125,-0.28912353515625,-0.11016845703125,6643,-3751,-8540,-59,-12,1
292887635,0.03765869140625,-0.9503173828125,-0.28863525390625,-0.11077880859375,5395,-3609,-7938,-47,-9,-5
292897616,0.0343017578125,-0.9501953125,-0.2891845703125,-0.1112060546875,4388,-3288,-7418,-34,-5,-13
292907601,0.031982421875,-0.94989013671875,-0.29034423828125,-0.1116943359375,3500,-2791,-6952,-24,-1,-14
292917592,0.03045654296875,-0.9498291015625,-0.29058837890625,-0.11199951171875,2538,-2154,-6555,-14,1,0
292927568,0.02947998046875,-0.95062255859375,-0.2882080078125,-0.11151123046875,1634,-1491,-6311,-8,0,26
292937554,0.0289306640625,-0.95245361328125,-0.28277587890625,-0.1102294921875,896,-868,-6311,-4,-3,53
292947535,0.02886962890625,-0.95489501953125,-0.27508544921875,-0.1083984375,426,-406,-6492,0,-6,69
292957517,0.0294189453125,-0.95733642578125,-0.26708984375,-0.10650634765625,224,-97,-6811,5,-6,68
292967501,0.030517578125,-0.95941162109375,-0.26007080078125,-0.1048583984375,248,116,-7146,9,-4,59
292977488,0.03204345703125,-0.96099853515625,-0.2545166015625,-0.10382080078125,331,288,-7456,12,1,45
292987465,0.03375244140625,-0.96197509765625,-0.2508544921875,-0.10321044921875,318,464,-7696,15,5,28
292997449,0.03546142578125,-0.96234130859375,-0.2491455078125,-0.10296630859375,239,645,-7893,17,8,12
293007434,0.03717041015625,-0.96234130859375,-0.2490234375,-0.1029052734375,94,766,-8062,18,11,0
293017419,0.03887939453125,-0.96197509765625,-0.25006103515625,-0.10284423828125,-13,808,-8242,19,12,-9
293027401,0.04083251953125,-0.96142578125,-0.251953125,-0.10302734375,5,766,-8427,20,13,-16
293037377,0.04302978515625,-0.96063232421875,-0.2545166015625,-0.1033935546875,93,697,-8595,22,14,-21
293047359,0.04541015625,-0.95965576171875,-0.25738525390625,-0.10400390625,243,653,-8702,23,15,-23
293057344,0.0479736328125,-0.958740234375,-0.26007080078125,-0.10479736328125,517,649,-8796,24,15,-20
293067326,0.05059814453125,-0.9580078125,-0.2618408203125,-0.10589599609375,834,672,-8911,24,16,-11
293077310,0.053466796875,-0.95751953125,-0.26239013671875,-0.10711669921875,1052,674,-8995,24,17,-1
293087295,0.0562744140625,-0.9573974609375,-0.26190185546875,-0.10809326171875,1115,664,-9013,23,16,8
293097276,0.05889892578125,-0.9573974609375,-0.2611083984375,-0.10882568359375,1129,638,-9006,22,14,8
293107259,0.06134033203125,-0.957275390625,-0.26080322265625,-0.10919189453125,1098,585,-8964,21,11,3
293117242,0.06341552734375,-0.95697021484375,-0.261474609375,-0.10919189453125,1064,542,-8898,20,8,-7
293127230,0.06512451171875,-0.95635986328125,-0.26336669921875,-0.10906982421875,1121,510,-8832,19,5,-17
293137213,0.06640625,-0.95550537109375,-0.26611328125,-0.10870361328125,1231,502,-8793,17,1,-23
293147192,0.0673828125,-0.9547119140625,-0.26910400390625,-0.108154296875,1332,465,-8745,15,-2,-24
293157181,0.06805419921875,-0.9539794921875,-0.271728515625,-0.1072998046875,1344,405,-8654,13,-5,-20
293167165,0.06854248046875,-0.9534912109375,-0.2738037109375,-0.10601806640625,1286,302,-8561,11,-8,-14
293177142,0.06884765625,-0.9532470703125,-0.2752685546875,-0.10430908203125,1247,186,-8434,9,-11,-10
293187119,0.06903076171875,-0.953125,-0.27630615234375,-0.10235595703125,1232,63,-8359,7,-14,-7
293197102,0.06903076171875,-0.953125,-0.277099609375,-0.1002197265625,1248,-53,-8281,6,-15,-5
293207086,0.06890869140625,-0.95318603515625,-0.27783203125,-0.09796142578125,1273,-165,-8200,5,-17,-5
293217066,0.0687255859375,-0.9532470703125,-0.27850341796875,-0.09576416015625,1306,-279,-8147,4,-17,-5
293227051,0.06842041015625,-0.9532470703125,-0.2791748046875,-0.09356689453125,1359,-408,-8126,3,-17,-5
293237033,0.068115234375,-0.9532470703125,-0.27996826171875,-0.0914306640625,1400,-544,-8108,2,-17,-6
293247015,0.06787109375,-0.9532470703125,-0.28076171875,-0.0894775390625,1470,-673,-8099,1,-16,-7
293257000,0.06768798828125,-0.953125,-0.2816162109375,-0.08770751953125,1567,-776,-8070,1,-15,-7
293266990,0.06756591796875,-0.95306396484375,-0.28228759765625,-0.08624267578125,1698,-843,-8060,1,-13,-5
293276966,0.06756591796875,-0.953125,-0.2825927734375,-0.08514404296875,1835,-873,-8063,1,-11,-1
293286953,0.067626953125,-0.9532470703125,-0.2823486328125,-0.0843505859375,1964,-886,-8074,1,-8,3
293296933,0.06781005859375,-0.9534912109375,-0.281494140625,-0.08392333984375,2059,-921,-8090,0,-6,8
293306915,0.068115234375,-0.95391845703125,-0.28021240234375,-0.0836181640625,2116,-963,-8127,0,-4,12
