subject,Two-hands and jerked
arm,neither
label,0
hz,100.17060803559077
time,5.660343

timestamp_us,q0,q1,q2,q3,ax,ay,az,gx,gy,gz
243075193,0.79974365234375,-0.34619140625,-0.4847412109375,0.07440185546875,4769,-4038,1872,-14,-10,15
243085185,0.79833984375,-0.348388671875,-0.4853515625,0.07568359375,4645,-4140,2001,-15,-15,14
243095173,0.79656982421875,-0.35052490234375,-0.4864501953125,0.07696533203125,4533,-4253,2127,-16,-20,12
243105145,0.7945556640625,-0.3525390625,-0.48809814453125,0.0782470703125,4441,-4355,2234,-17,-25,9
243115122,0.79229736328125,-0.35455322265625,-0.49017333984375,0.07952880859375,4360,-4455,2355,-18,-30,8
243125105,0.789794921875,-0.35650634765625,-0.49249267578125,0.0809326171875,4277,-4538,2544,-19,-33,8
243135089,0.787109375,-0.35858154296875,-0.4949951171875,0.08258056640625,4236,-4623,2778,-20,-37,11
243145071,0.7841796875,-0.36090087890625,-0.49761962890625,0.08465576171875,4256,-4733,2993,-22,-40,14
243155054,0.78106689453125,-0.3634033203125,-0.50030517578125,0.08697509765625,4327,-4906,3143,-23,-42,16
243165037,0.7777099609375,-0.3660888671875,-0.503173828125,0.08929443359375,4417,-5146,3211,-24,-43,15
243175021,0.7742919921875,-0.36859130859375,-0.50616455078125,0.09136962890625,4532,-5420,3199,-24,-43,11
243185004,0.7708740234375,-0.37091064453125,-0.5093994140625,0.09307861328125,4666,-5683,3138,-24,-43,7
243194991,0.7674560546875,-0.3729248046875,-0.5128173828125,0.094482421875,4807,-5921,2993,-22,-43,3
243204962,0.76409912109375,-0.37469482421875,-0.516357421875,0.09564208984375,4908,-6121,2804,-20,-42,1
243214946,0.7607421875,-0.376220703125,-0.5198974609375,0.0968017578125,5027,-6299,2592,-19,-42,0
243224930,0.7574462890625,-0.37762451171875,-0.5234375,0.09814453125,5205,-6493,2362,-16,-41,2
243234917,0.75421142578125,-0.3790283203125,-0.52679443359375,0.09991455078125,5409,-6665,2113,-13,-40,5
243244903,0.75103759765625,-0.38037109375,-0.5299072265625,0.1021728515625,5632,-6829,1818,-9,-39,9
243254886,0.74798583984375,-0.3817138671875,-0.53265380859375,0.10498046875,5805,-6963,1524,-5,-37,14
243264870,0.7451171875,-0.38299560546875,-0.53515625,0.10821533203125,5925,-7033,1236,-2,-35,17
243274856,0.74249267578125,-0.3841552734375,-0.5372314453125,0.1119384765625,6000,-7038,991,2,-33,20
243284838,0.74005126953125,-0.3851318359375,-0.5390625,0.115966796875,6027,-6989,788,5,-31,23
243294820,0.73773193359375,-0.38604736328125,-0.54058837890625,0.120361328125,6044,-6890,616,8,-30,26
243304804,0.73553466796875,-0.38702392578125,-0.54180908203125,0.12518310546875,6066,-6751,477,10,-29,31
243314785,0.73333740234375,-0.3880615234375,-0.54278564453125,0.13043212890625,6097,-6592,350,12,-29,36
243324766,0.73114013671875,-0.3892822265625,-0.54351806640625,0.13592529296875,6124,-6416,209,12,-28,40
243334759,0.72894287109375,-0.390625,-0.54400634765625,0.14166259765625,6118,-6235,70,12,-27,43
243344741,0.72674560546875,-0.39215087890625,-0.54443359375,0.14739990234375,6087,-6075,-46,12,-26,44
243354718,0.72454833984375,-0.39361572265625,-0.54473876953125,0.15289306640625,6025,-5936,-136,11,-25,43
243364700,0.72235107421875,-0.39508056640625,-0.5450439453125,0.15814208984375,5960,-5812,-208,10,-24,41
243374684,0.72027587890625,-0.396484375,-0.54541015625,0.1629638671875,5915,-5690,-227,8,-22,38
243384668,0.71826171875,-0.397705078125,-0.54583740234375,0.167236328125,5896,-5595,-226,6,-21,34
243394649,0.71636962890625,-0.39874267578125,-0.54644775390625,0.1708984375,5887,-5535,-171,4,-20,29
243404635,0.7147216796875,-0.3995361328125,-0.54718017578125,0.17376708984375,5865,-5494,-93,3,-19,22
243414617,0.7132568359375,-0.39990234375,-0.54815673828125,0.17578125,5801,-5476,21,1,-18,13
243424599,0.7120361328125,-0.3997802734375,-0.5494384765625,0.17681884765625,5722,-5461,165,-1,-16,3
243434575,0.7110595703125,-0.399169921875,-0.5511474609375,0.1768798828125,5664,-5467,305,-3,-15,-6
243444555,0.7103271484375,-0.39813232421875,-0.5531005859375,0.17620849609375,5610,-5490,458,-4,-15,-14
243454542,0.70965576171875,-0.3968505859375,-0.55517578125,0.17498779296875,5575,-5538,609,-5,-15,-18
243464521,0.7091064453125,-0.39544677734375,-0.557373046875,0.173583984375,5525,-5608,751,-6,-15,-20
243474505,0.70849609375,-0.39410400390625,-0.55950927734375,0.17230224609375,5492,-5693,878,-6,-15,-19
243484489,0.7078857421875,-0.39288330078125,-0.56146240234375,0.1712646484375,5467,-5805,999,-5,-15,-16
243494470,0.7071533203125,-0.39190673828125,-0.56317138671875,0.17071533203125,5469,-5922,1139,-5,-16,-12
243504453,0.7064208984375,-0.39117431640625,-0.5645751953125,0.17071533203125,5490,-6025,1293,-4,-17,-6
243514449,0.70562744140625,-0.39068603515625,-0.5657958984375,0.17132568359375,5523,-6100,1446,-3,-17,0
243524428,0.7047119140625,-0.39056396484375,-0.56658935546875,0.172607421875,5543,-6165,1574,-2,-18,6
243534409,0.70361328125,-0.390869140625,-0.567138671875,0.174560546875,5582,-6221,1650,-1,-18,14
243544393,0.702392578125,-0.3916015625,-0.5673828125,0.17724609375,5624,-6280,1687,-1,-19,22
243554374,0.700927734375,-0.39288330078125,-0.56719970703125,0.18060302734375,5675,-6375,1679,0,-19,29
243564355,0.6993408203125,-0.39459228515625,-0.56671142578125,0.1845703125,5740,-6503,1634,0,-18,36
243574343,0.69757080078125,-0.39678955078125,-0.56591796875,0.18902587890625,5847,-6639,1552,0,-18,43
243584328,0.69561767578125,-0.3994140625,-0.56475830078125,0.1939697265625,5977,-6797,1456,1,-17,50
243594309,0.693603515625,-0.4024658203125,-0.56317138671875,0.1995849609375,6109,-6982,1348,2,-16,57
243604293,0.69140625,-0.4058837890625,-0.5611572265625,0.205810546875,6225,-7166,1222,4,-15,64
243614276,0.689208984375,-0.409423828125,-0.5587158203125,0.21258544921875,6274,-7329,1122,7,-14,69
243624258,0.68719482421875,-0.41290283203125,-0.555908203125,0.2197265625,6273,-7490,1023,10,-13,71
243634238,0.68524169921875,-0.4161376953125,-0.552978515625,0.22711181640625,6242,-7661,888,14,-12,71
243644230,0.6834716796875,-0.4189453125,-0.54986572265625,0.2344970703125,6200,-7829,747,18,-11,69
243654214,0.681884765625,-0.42144775390625,-0.546630859375,0.24200439453125,6134,-8001,602,22,-10,69
243664194,0.680419921875,-0.4237060546875,-0.543212890625,0.249755859375,6037,-8158,440,25,-9,70
243674185,0.67901611328125,-0.42578125,-0.53961181640625,0.25775146484375,5885,-8311,280,29,-8,70
243684173,0.67767333984375,-0.427734375,-0.5357666015625,0.2659912109375,5714,-8437,121,32,-8,71
243694146,0.67645263671875,-0.42938232421875,-0.53173828125,0.2744140625,5534,-8544,-23,36,-7,71
243704122,0.6754150390625,-0.4306640625,-0.527587890625,0.2828369140625,5359,-8612,-187,39,-7,69
243714106,0.67437744140625,-0.43182373046875,-0.5233154296875,0.291259765625,5163,-8682,-315,42,-5,69
243724087,0.67352294921875,-0.43280029296875,-0.518798828125,0.2998046875,5010,-8687,-413,44,-3,71
243734073,0.672607421875,-0.43414306640625,-0.513671875,0.30865478515625,4831,-8657,-486,45,-1,76
243744058,0.67181396484375,-0.435546875,-0.5081787109375,0.31744384765625,4609,-8574,-493,45,3,77
243754042,0.6712646484375,-0.43707275390625,-0.5020751953125,0.3260498046875,4294,-8515,-425,46,7,77
243764024,0.6710205078125,-0.43841552734375,-0.49566650390625,0.33441162109375,3932,-8369,-361,48,10,72
243774008,0.67120361328125,-0.4393310546875,-0.4892578125,0.3421630859375,3561,-8144,-306,49,12,66
243783996,0.67181396484375,-0.439697265625,-0.4830322265625,0.34930419921875,3229,-7865,-267,50,14,57
243793980,0.67279052734375,-0.43963623046875,-0.47705078125,0.35565185546875,2923,-7594,-239,51,15,50
243803957,0.67413330078125,-0.43914794921875,-0.47125244140625,0.36138916015625,2634,-7323,-193,51,16,44
243813941,0.67559814453125,-0.43841552734375,-0.46563720703125,0.3668212890625,2367,-7079,-119,51,15,39
243823923,0.67730712890625,-0.43719482421875,-0.46038818359375,0.37164306640625,2167,-6877,-23,50,15,32
243833906,0.67938232421875,-0.43548583984375,-0.45574951171875,0.3756103515625,2065,-6718,85,49,15,22
243843890,0.681884765625,-0.43328857421875,-0.45172119140625,0.37847900390625,2044,-6535,178,47,15,11
243853877,0.68463134765625,-0.430908203125,-0.44805908203125,0.380615234375,2074,-6376,288,45,17,7
243863854,0.6873779296875,-0.42877197265625,-0.4442138671875,0.382568359375,2078,-6267,424,42,19,9
243873837,0.68975830078125,-0.42718505859375,-0.440185546875,0.38470458984375,2048,-6196,529,39,20,15
243883819,0.69158935546875,-0.42626953125,-0.435791015625,0.3873291015625,1927,-6138,597,37,20,23
243893804,0.69268798828125,-0.42633056640625,-0.430908203125,0.39080810546875,1747,-6061,649,34,19,35
243903787,0.69281005859375,-0.42730712890625,-0.4254150390625,0.39556884765625,1545,-5910,737,30,18,51
243913769,0.69183349609375,-0.4293212890625,-0.4193115234375,0.4014892578125,1375,-5724,881,26,16,66
243923759,0.6900634765625,-0.43212890625,-0.412841796875,0.40814208984375,1251,-5484,1078,20,16,77
243933743,0.68756103515625,-0.435791015625,-0.40606689453125,0.415283203125,1127,-5297,1329,14,16,86
243943720,0.6844482421875,-0.4400634765625,-0.399169921875,0.4224853515625,978,-5127,1689,7,16,90
243953698,0.680908203125,-0.44476318359375,-0.39215087890625,0.4298095703125,801,-5018,2190,1,16,93
243963680,0.67694091796875,-0.4498291015625,-0.3851318359375,0.43707275390625,576,-4939,2700,-6,15,94
243973661,0.67266845703125,-0.4552001953125,-0.37835693359375,0.44403076171875,193,-4681,3165,-12,14,91
243983643,0.66815185546875,-0.460693359375,-0.37200927734375,0.450439453125,-214,-4338,3611,-19,12,84
243993627,0.66375732421875,-0.46588134765625,-0.36688232421875,0.455810546875,-491,-4011,4015,-27,9,70
244003609,0.6597900390625,-0.47052001953125,-0.36358642578125,0.45941162109375,-497,-3833,4347,-35,6,51
244013593,0.65643310546875,-0.474609375,-0.3623046875,0.4610595703125,-270,-3831,4579,-43,4,34
244023575,0.65325927734375,-0.478515625,-0.36248779296875,0.46136474609375,111,-3953,4721,-50,2,24
244033557,0.6500244140625,-0.48248291015625,-0.36346435546875,0.46099853515625,450,-4235,4764,-54,2,22
244043542,0.6463623046875,-0.4869384765625,-0.36468505859375,0.46051025390625,604,-4685,4651,-57,2,24
244053524,0.64227294921875,-0.491943359375,-0.3658447265625,0.46002197265625,581,-5153,4391,-59,3,25
244063508,0.6380615234375,-0.49725341796875,-0.36700439453125,0.45928955078125,609,-5672,3979,-59,4,24
244073490,0.63385009765625,-0.502685546875,-0.36859130859375,0.45782470703125,717,-6224,3460,-59,6,19
244083473,0.62994384765625,-0.50811767578125,-0.37060546875,0.45562744140625,797,-6787,2890,-58,8,13
244093456,0.62628173828125,-0.5135498046875,-0.37261962890625,0.45294189453125,796,-7330,2354,-56,11,10
244103437,0.62286376953125,-0.51910400390625,-0.374267578125,0.4500732421875,742,-7875,1895,-54,14,10
244113429,0.61962890625,-0.52459716796875,-0.37554931640625,0.447021484375,684,-8431,1475,-51,18,9
244123412,0.61700439453125,-0.5299072265625,-0.3765869140625,0.4434814453125,627,-9012,1110,-47,22,4
244133390,0.61492919921875,-0.53485107421875,-0.37738037109375,0.439697265625,566,-9589,796,-41,25,1
244143366,0.61346435546875,-0.5394287109375,-0.377685546875,0.4359130859375,485,-10161,545,-34,28,0
244153350,0.61260986328125,-0.54351806640625,-0.377197265625,0.4324951171875,360,-10673,387,-26,30,2
244163338,0.61224365234375,-0.54718017578125,-0.37591552734375,0.429443359375,198,-11047,280,-17,31,3
244173325,0.61248779296875,-0.5501708984375,-0.3740234375,0.4268798828125,48,-11207,233,-9,32,3
244183303,0.61334228515625,-0.55255126953125,-0.3717041015625,0.42462158203125,-98,-11193,221,-1,32,1
244193293,0.61474609375,-0.5543212890625,-0.36920166015625,0.4224853515625,-254,-11092,217,5,32,-3
244205995,0.61688232421875,-0.555419921875,-0.36663818359375,0.420166015625,-373,-10983,265,11,33,-8
244213245,0.61962890625,-0.55584716796875,-0.36407470703125,0.41778564453125,-456,-10852,365,15,33,-12
244223237,0.6229248046875,-0.55572509765625,-0.361328125,0.4154052734375,-535,-10681,524,20,34,-15
244233221,0.6268310546875,-0.5550537109375,-0.35845947265625,0.4129638671875,-621,-10454,706,25,34,-19
244243205,0.63116455078125,-0.55377197265625,-0.35565185546875,0.41046142578125,-720,-10174,882,29,33,-24
244253191,0.635986328125,-0.55194091796875,-0.35296630859375,0.40777587890625,-822,-9825,1067,32,33,-29
244263177,0.64117431640625,-0.549560546875,-0.35052490234375,0.40496826171875,-929,-9433,1256,34,31,-34
244273161,0.64666748046875,-0.546630859375,-0.34844970703125,0.4019775390625,-996,-9034,1449,36,29,-39
244283137,0.65240478515625,-0.54315185546875,-0.346923828125,0.3988037109375,-1080,-8626,1656,36,25,-47
244293113,0.65826416015625,-0.5391845703125,-0.3460693359375,0.39520263671875,-1199,-8241,1837,35,21,-55
244303096,0.66400146484375,-0.53497314453125,-0.34600830078125,0.391357421875,-1313,-7905,1969,33,17,-59
244313080,0.6693115234375,-0.53082275390625,-0.34637451171875,0.3876953125,-1419,-7670,2056,29,12,-58
244323064,0.673828125,-0.52691650390625,-0.34698486328125,0.38458251953125,-1467,-7454,2141,26,7,-52
244333042,0.67755126953125,-0.52325439453125,-0.34771728515625,0.38232421875,-1410,-7223,2267,22,1,-43
244343027,0.68048095703125,-0.5198974609375,-0.34857177734375,0.3809814453125,-1281,-6960,2394,19,-4,-34
244353006,0.68267822265625,-0.516845703125,-0.34942626953125,0.38031005859375,-1081,-6705,2507,15,-9,-26
244362996,0.68414306640625,-0.5142822265625,-0.35040283203125,0.38037109375,-844,-6486,2602,11,-12,-18
244372978,0.6849365234375,-0.5120849609375,-0.35150146484375,0.380859375,-563,-6288,2663,7,-15,-11
244382955,0.68511962890625,-0.5103759765625,-0.35260009765625,0.3818359375,-262,-6135,2681,2,-17,-4
244392938,0.6846923828125,-0.50921630859375,-0.3538818359375,0.3829345703125,69,-6047,2658,-2,-17,-1
244402926,0.68402099609375,-0.5084228515625,-0.35552978515625,0.3836669921875,399,-6022,2601,-8,-18,-1
244412902,0.68316650390625,-0.5079345703125,-0.35784912109375,0.38372802734375,665,-6052,2482,-13,-17,-8
244422886,0.68255615234375,-0.50750732421875,-0.36102294921875,0.3824462890625,896,-6078,2338,-17,-15,-21
244432877,0.68243408203125,-0.5067138671875,-0.36529541015625,0.37957763671875,1141,-6072,2282,-22,-14,-36
244442856,0.682861328125,-0.505615234375,-0.37054443359375,0.37518310546875,1434,-6063,2327,-26,-13,-50
244452837,0.68365478515625,-0.50421142578125,-0.37652587890625,0.36962890625,1817,-6143,2410,-30,-11,-58
244462822,0.68450927734375,-0.50286865234375,-0.38275146484375,0.3634033203125,2272,-6263,2502,-33,-10,-60
244472805,0.6851806640625,-0.5018310546875,-0.3887939453125,0.35711669921875,2772,-6383,2606,-36,-7,-54
244482787,0.68560791015625,-0.50128173828125,-0.394287109375,0.35101318359375,3314,-6436,2755,-38,-5,-46
244492773,0.685791015625,-0.50128173828125,-0.39886474609375,0.3453369140625,3835,-6451,2934,-39,0,-36
244502760,0.68609619140625,-0.501708984375,-0.4024658203125,0.3399658203125,4344,-6404,3264,-39,6,-27
244512743,0.6866455078125,-0.50238037109375,-0.40509033203125,0.3348388671875,4867,-6307,3687,-39,12,-20
244522720,0.68756103515625,-0.50323486328125,-0.4066162109375,0.3297119140625,5341,-6104,4194,-39,19,-14
244532703,0.68890380859375,-0.5042724609375,-0.40716552734375,0.32452392578125,5710,-5820,4802,-39,25,-11
244542687,0.69073486328125,-0.50537109375,-0.40692138671875,0.319091796875,5913,-5481,5401,-40,32,-11
244552673,0.69293212890625,-0.50665283203125,-0.40618896484375,0.3133544921875,5897,-5181,5899,-41,36,-13
244562653,0.69512939453125,-0.5081787109375,-0.405029296875,0.307373046875,5649,-4956,6252,-41,39,-14
244572640,0.6973876953125,-0.50994873046875,-0.40338134765625,0.301513671875,5180,-4791,6445,-40,41,-14
244582622,0.69940185546875,-0.511962890625,-0.40118408203125,0.2962646484375,4513,-4706,6460,-38,41,-11
244592610,0.70086669921875,-0.51446533203125,-0.39825439453125,0.29229736328125,3655,-4788,6243,-33,38,0
244602586,0.70147705078125,-0.51763916015625,-0.3944091796875,0.29052734375,2592,-5108,5702,-27,32,15
244612570,0.700927734375,-0.52130126953125,-0.39007568359375,0.2911376953125,1409,-5653,4800,-19,22,26
244622552,0.69915771484375,-0.52520751953125,-0.3861083984375,0.29364013671875,163,-6571,3490,-11,9,32
244632534,0.6959228515625,-0.5294189453125,-0.38330078125,0.2974853515625,-1007,-7927,1607,-7,-6,30
244642514,0.6910400390625,-0.53387451171875,-0.38287353515625,0.30133056640625,-1969,-9717,-834,-6,-21,18
244652498,0.68450927734375,-0.53887939453125,-0.3851318359375,0.30450439453125,-2619,-11485,-3736,-9,-33,7
244662482,0.67620849609375,-0.54461669921875,-0.3895263671875,0.30731201171875,-3035,-12785,-6475,-16,-44,6
244672467,0.6663818359375,-0.55096435546875,-0.39501953125,0.310302734375,-3081,-13739,-8688,-24,-52,11
244682453,0.65625,-0.55712890625,-0.40185546875,0.312255859375,-2755,-14441,-10112,-33,-54,-2
244692437,0.647216796875,-0.561767578125,-0.41070556640625,0.311279296875,-2101,-14852,-10752,-40,-51,-31
244702420,0.63995361328125,-0.5645751953125,-0.4210205078125,0.30731201171875,-1239,-14768,-10710,-43,-44,-56
244712402,0.634521484375,-0.56585693359375,-0.4315185546875,0.3016357421875,-290,-14312,-10099,-41,-35,-65
244722380,0.6304931640625,-0.56646728515625,-0.44024658203125,0.2962646484375,690,-13557,-9082,-33,-25,-52
244732363,0.627685546875,-0.56707763671875,-0.44598388671875,0.29254150390625,1614,-12570,-7804,-22,-15,-24
244742350,0.625732421875,-0.56817626953125,-0.447998046875,0.2913818359375,2418,-11407,-6362,-10,-5,11
244752334,0.6248779296875,-0.5697021484375,-0.446533203125,0.2926025390625,3098,-10124,-4812,3,5,38
244762314,0.6253662109375,-0.57086181640625,-0.44268798828125,0.2950439453125,3664,-8895,-3275,14,14,49
244772298,0.62750244140625,-0.5711669921875,-0.437744140625,0.29736328125,4056,-7830,-1845,24,22,44
244782280,0.6312255859375,-0.570068359375,-0.4326171875,0.2989501953125,4306,-6948,-603,33,28,30
244792263,0.63665771484375,-0.5675048828125,-0.4278564453125,0.29925537109375,4389,-6221,430,40,34,11
244802246,0.64337158203125,-0.56365966796875,-0.42376708984375,0.2979736328125,4314,-5727,1194,45,39,-9
244812230,0.65087890625,-0.55902099609375,-0.420166015625,0.29547119140625,4076,-5487,1698,47,43,-25
244822213,0.65863037109375,-0.55413818359375,-0.4168701171875,0.2921142578125,3730,-5397,1996,47,46,-34
244832194,0.666259765625,-0.54937744140625,-0.41375732421875,0.2882080078125,3329,-5393,2178,44,47,-38
244842186,0.67340087890625,-0.544921875,-0.410888671875,0.28411865234375,2933,-5404,2272,39,45,-39
244852173,0.6798095703125,-0.54107666015625,-0.40826416015625,0.2801513671875,2568,-5438,2311,33,42,-38
244862156,0.6854248046875,-0.53759765625,-0.406005859375,0.2762451171875,2266,-5477,2313,27,37,-37
244872127,0.6903076171875,-0.53448486328125,-0.40435791015625,0.2724609375,2039,-5558,2262,22,31,-36
244882109,0.6943359375,-0.53179931640625,-0.40338134765625,0.2689208984375,1869,-5727,2144,17,25,-35
244892094,0.697509765625,-0.5296630859375,-0.40283203125,0.265869140625,1717,-5945,1989,12,19,-30
244902076,0.69964599609375,-0.52813720703125,-0.402587890625,0.26361083984375,1606,-6147,1802,7,12,-22
244912060,0.70074462890625,-0.52740478515625,-0.402587890625,0.26226806640625,1513,-6296,1593,2,5,-14
244922051,0.70086669921875,-0.5272216796875,-0.40277099609375,0.26177978515625,1480,-6401,1389,-2,-1,-6
244932023,0.7001953125,-0.52764892578125,-0.40325927734375,0.261962890625,1510,-6479,1208,-7,-7,1
244942004,0.69891357421875,-0.528564453125,-0.404052734375,0.2625732421875,1590,-6558,1025,-11,-11,5
244951993,0.69696044921875,-0.52978515625,-0.40521240234375,0.26336669921875,1686,-6643,842,-15,-15,7
244961976,0.69464111328125,-0.53125,-0.40673828125,0.2642822265625,1804,-6733,670,-18,-18,8
244971952,0.69195556640625,-0.5328369140625,-0.40850830078125,0.2652587890625,1909,-6825,491,-20,-20,9
244981935,0.6890869140625,-0.53460693359375,-0.4105224609375,0.2662353515625,2014,-6925,318,-21,-22,9
244991917,0.68603515625,-0.53631591796875,-0.41278076171875,0.26708984375,2143,-7007,191,-23,-22,7
245001901,0.68304443359375,-0.5379638671875,-0.41522216796875,0.26763916015625,2306,-7088,75,-23,-22,5
245011884,0.68023681640625,-0.5394287109375,-0.41778564453125,0.26788330078125,2483,-7136,12,-23,-21,3
245021865,0.67767333984375,-0.5406494140625,-0.42047119140625,0.26776123046875,2677,-7162,7,-22,-20,0
245031849,0.67559814453125,-0.54150390625,-0.42303466796875,0.26727294921875,2847,-7157,66,-20,-17,-4
245041831,0.67401123046875,-0.54193115234375,-0.425537109375,0.26629638671875,3014,-7131,194,-18,-13,-9
245051812,0.673095703125,-0.5418701171875,-0.427978515625,0.2647705078125,3151,-7069,352,-15,-10,-14
245061794,0.67279052734375,-0.54144287109375,-0.43023681640625,0.26287841796875,3245,-6980,511,-13,-6,-17
245071784,0.6728515625,-0.540771484375,-0.43218994140625,0.2608642578125,3275,-6870,657,-10,-3,-18
245081765,0.6732177734375,-0.5400390625,-0.43365478515625,0.25897216796875,3274,-6731,774,-7,0,-15
245091754,0.673828125,-0.53948974609375,-0.4344482421875,0.25726318359375,3234,-6587,916,-5,3,-11
245101737,0.674560546875,-0.53900146484375,-0.43463134765625,0.2559814453125,3138,-6427,1050,-3,6,-6
245111716,0.67547607421875,-0.5386962890625,-0.4339599609375,0.2552490234375,2958,-6270,1164,1,8,-1
245121702,0.676513671875,-0.53857421875,-0.4326171875,0.2552490234375,2679,-6184,1203,4,9,5
245131684,0.67730712890625,-0.5386962890625,-0.4306640625,0.25604248046875,2277,-6262,1107,7,9,11
245141666,0.67767333984375,-0.53936767578125,-0.4283447265625,0.2576904296875,1785,-6657,733,8,6,17
245151646,0.6768798828125,-0.5408935546875,-0.4259033203125,0.26043701171875,1245,-7546,-39,8,1,24
245161635,0.674560546875,-0.54376220703125,-0.42376708984375,0.26409912109375,721,-8777,-1292,5,-4,31
245171613,0.67059326171875,-0.5477294921875,-0.4224853515625,0.26800537109375,256,-9965,-2837,-1,-11,31
245181593,0.66546630859375,-0.55206298828125,-0.4229736328125,0.27105712890625,-17,-10904,-4421,-8,-19,18
245191579,0.65960693359375,-0.55609130859375,-0.42608642578125,0.272216796875,-65,-11592,-5893,-16,-26,-2
245201561,0.6534423828125,-0.55938720703125,-0.43170166015625,0.271484375,97,-12046,-7035,-24,-33,-23
245211544,0.64727783203125,-0.561767578125,-0.439208984375,0.26934814453125,428,-12248,-7737,-29,-38,-37
245221525,0.64117431640625,-0.5634765625,-0.44757080078125,0.2666015625,883,-12258,-7987,-32,-41,-41
245231508,0.635498046875,-0.5645751953125,-0.455810546875,0.263916015625,1385,-12022,-7766,-32,-42,-39
245241492,0.63018798828125,-0.5653076171875,-0.4632568359375,0.26190185546875,1920,-11607,-7187,-30,-42,-29
245251474,0.62554931640625,-0.56585693359375,-0.4693603515625,0.26116943359375,2467,-11047,-6319,-24,-40,-14
245261462,0.6214599609375,-0.56640625,-0.47357177734375,0.2620849609375,3003,-10310,-5216,-17,-38,6
245271437,0.61822509765625,-0.56683349609375,-0.47601318359375,0.264404296875,3524,-9383,-3959,-9,-34,20
245281429,0.61627197265625,-0.56671142578125,-0.4771728515625,0.2672119140625,4019,-8369,-2610,-3,-28,25
245291416,0.61566162109375,-0.56573486328125,-0.4776611328125,0.26983642578125,4481,-7330,-1229,4,-22,23
245301397,0.61639404296875,-0.5638427734375,-0.4776611328125,0.27203369140625,4917,-6329,116,9,-16,18
245311376,0.61846923828125,-0.5611572265625,-0.47723388671875,0.2735595703125,5284,-5403,1358,13,-9,12
245321357,0.6217041015625,-0.5577392578125,-0.4765625,0.2744140625,5557,-4585,2497,16,-2,6
245331342,0.6258544921875,-0.553955078125,-0.47552490234375,0.2744140625,5717,-3901,3460,18,6,0
245341324,0.630615234375,-0.55010986328125,-0.47406005859375,0.27392578125,5734,-3393,4259,18,12,-3
245351304,0.6356201171875,-0.54644775390625,-0.4720458984375,0.27301025390625,5620,-3064,4797,18,18,-3
245361293,0.64056396484375,-0.54339599609375,-0.469482421875,0.27197265625,5388,-2897,5114,15,23,-1
245371268,0.64532470703125,-0.5408935546875,-0.46661376953125,0.27056884765625,5119,-2892,5236,12,27,-1
245381256,0.64984130859375,-0.53900146484375,-0.46368408203125,0.2686767578125,4797,-3096,5194,8,31,-4
245391241,0.65399169921875,-0.53765869140625,-0.4608154296875,0.2662353515625,4410,-3478,4968,3,33,-7
245401225,0.65753173828125,-0.537109375,-0.4578857421875,0.263671875,3929,-4084,4564,-1,34,-6
245411213,0.65997314453125,-0.537841796875,-0.45452880859375,0.26190185546875,3382,-4905,3977,-5,32,6
245421189,0.660888671875,-0.540283203125,-0.4503173828125,0.26171875,2812,-5856,3230,-8,28,26
245431182,0.66021728515625,-0.54443359375,-0.44525146484375,0.26348876953125,2294,-6812,2408,-11,24,46
245441165,0.658203125,-0.5498046875,-0.43988037109375,0.26654052734375,1884,-7674,1613,-15,18,59
245451141,0.6551513671875,-0.5556640625,-0.4346923828125,0.27032470703125,1597,-8442,839,-18,12,63
245461118,0.65142822265625,-0.56146240234375,-0.4302978515625,0.27423095703125,1446,-9085,144,-19,5,61
245471104,0.6473388671875,-0.56683349609375,-0.427001953125,0.27801513671875,1480,-9593,-483,-20,-2,56
245481082,0.64300537109375,-0.5716552734375,-0.42486572265625,0.28155517578125,1701,-9910,-1035,-20,-9,51
245491065,0.6385498046875,-0.5758056640625,-0.4239501953125,0.28460693359375,2190,-9955,-1489,-21,-15,45
245501051,0.63421630859375,-0.5792236328125,-0.42425537109375,0.28692626953125,3026,-9723,-1892,-22,-19,39
245511031,0.63018798828125,-0.58184814453125,-0.42584228515625,0.28814697265625,4135,-9254,-2226,-22,-21,32
245521016,0.6265869140625,-0.5838623046875,-0.42840576171875,0.2880859375,5446,-8659,-2557,-23,-20,27
245531003,0.62347412109375,-0.58544921875,-0.431640625,0.28668212890625,6829,-8041,-2816,-24,-16,21
245540991,0.62115478515625,-0.58660888671875,-0.435302734375,0.28399658203125,8163,-7437,-3019,-23,-10,14
245550965,0.61968994140625,-0.58721923828125,-0.43939208984375,0.27947998046875,9259,-6953,-3232,-24,-2,0
245560952,0.61907958984375,-0.58746337890625,-0.44384765625,0.273193359375,9947,-6714,-3473,-24,8,-13
245570929,0.6190185546875,-0.587890625,-0.44769287109375,0.26605224609375,10187,-6685,-3656,-24,17,-16
245580911,0.61907958984375,-0.589111328125,-0.45001220703125,0.25909423828125,10027,-6874,-3726,-24,27,-7
245590908,0.61907958984375,-0.59185791015625,-0.44964599609375,0.2535400390625,9507,-7236,-3685,-23,37,16
245600886,0.61895751953125,-0.5965576171875,-0.44549560546875,0.25018310546875,8633,-7618,-3335,-19,50,46
245610869,0.619384765625,-0.6025390625,-0.4376220703125,0.24859619140625,7367,-7968,-2617,-16,64,66
245620853,0.62078857421875,-0.60906982421875,-0.42706298828125,0.24755859375,5719,-8335,-1820,-12,79,67
245630836,0.62322998046875,-0.6153564453125,-0.41522216796875,0.24591064453125,3775,-8725,-1132,-7,92,55
245640821,0.6268310546875,-0.62091064453125,-0.4031982421875,0.24285888671875,1733,-9132,-542,-3,103,31
245650803,0.631591796875,-0.62530517578125,-0.3917236328125,0.238037109375,-298,-9540,-46,0,110,4
245660784,0.63720703125,-0.6285400390625,-0.381103515625,0.23162841796875,-2254,-9946,352,4,114,-20
245670768,0.64337158203125,-0.63079833984375,-0.371337890625,0.22430419921875,-4112,-10282,636,7,113,-38
245680751,0.6495361328125,-0.63238525390625,-0.3623046875,0.21661376953125,-5827,-10563,746,9,109,-50
245690735,0.6552734375,-0.633544921875,-0.35394287109375,0.20953369140625,-7339,-10881,643,12,99,-53
245700711,0.6600341796875,-0.63482666015625,-0.3458251953125,0.2042236328125,-8586,-11188,412,14,86,-43
245710696,0.66363525390625,-0.63641357421875,-0.3372802734375,0.201904296875,-9508,-11450,248,17,69,-19
245720686,0.6661376953125,-0.6383056640625,-0.327880859375,0.203125,-10050,-11490,213,21,51,9
245730663,0.667724609375,-0.64019775390625,-0.31817626953125,0.20745849609375,-10190,-11315,297,23,34,31
245740645,0.668701171875,-0.64166259765625,-0.30902099609375,0.2137451171875,-9975,-10935,454,26,18,41
245750629,0.66937255859375,-0.6422119140625,-0.3013916015625,0.22064208984375,-9443,-10433,600,27,4,38
245760610,0.67010498046875,-0.6417236328125,-0.29571533203125,0.2274169921875,-8646,-9855,712,29,-7,29
245770591,0.67108154296875,-0.64013671875,-0.29217529296875,0.23345947265625,-7644,-9261,798,31,-16,17
245780573,0.67242431640625,-0.63751220703125,-0.29071044921875,0.23846435546875,-6540,-8685,849,32,-23,4
245790556,0.674072265625,-0.63409423828125,-0.29095458984375,0.24261474609375,-5417,-8198,828,33,-28,-6
245800542,0.67572021484375,-0.63031005859375,-0.2923583984375,0.2462158203125,-4346,-7777,761,33,-32,-11
245810522,0.67730712890625,-0.62628173828125,-0.29443359375,0.24957275390625,-3338,-7424,731,32,-34,-11
245820504,0.6788330078125,-0.62225341796875,-0.29669189453125,0.2528076171875,-2423,-7103,785,30,-35,-10
245830488,0.68017578125,-0.61834716796875,-0.29913330078125,0.25592041015625,-1585,-6852,885,28,-35,-8
245840468,0.68145751953125,-0.61456298828125,-0.30145263671875,0.259033203125,-804,-6669,981,26,-34,-4
245850459,0.68243408203125,-0.6109619140625,-0.30364990234375,0.26220703125,-79,-6581,1075,24,-34,1
245860435,0.68328857421875,-0.60760498046875,-0.3055419921875,0.265625,518,-6537,1219,23,-33,6
245870426,0.68389892578125,-0.60455322265625,-0.30694580078125,0.26934814453125,970,-6584,1334,21,-32,12
245880409,0.68402099609375,-0.60205078125,-0.30755615234375,0.27398681640625,1280,-6708,1369,20,-32,26
245890392,0.68328857421875,-0.60040283203125,-0.3067626953125,0.28021240234375,1458,-6903,1372,19,-32,47
245900371,0.68145751953125,-0.59979248046875,-0.3040771484375,0.2886962890625,1528,-7103,1368,19,-33,75
245910355,0.6783447265625,-0.600341796875,-0.29931640625,0.29974365234375,1543,-7319,1348,17,-35,105
245920337,0.67388916015625,-0.601806640625,-0.29266357421875,0.3131103515625,1548,-7554,1306,17,-36,133
245930324,0.66827392578125,-0.60394287109375,-0.284423828125,0.32818603515625,1552,-7786,1283,16,-37,154
245940306,0.66168212890625,-0.6064453125,-0.27496337890625,0.34466552734375,1453,-8035,1239,15,-38,171
245950293,0.6539306640625,-0.609375,-0.26416015625,0.36236572265625,1271,-8250,1164,16,-39,189
245960277,0.64471435546875,-0.61273193359375,-0.25164794921875,0.38153076171875,1046,-8379,1045,15,-38,211
245970261,0.634033203125,-0.61663818359375,-0.2374267578125,0.40179443359375,974,-8473,981,13,-35,231
245980240,0.62286376953125,-0.6204833984375,-0.22222900390625,0.4215087890625,1052,-8808,1174,11,-26,236
245990231,0.61187744140625,-0.62420654296875,-0.20684814453125,0.43951416015625,920,-9154,1365,8,-15,225
246000214,0.60150146484375,-0.6279296875,-0.19189453125,0.45501708984375,347,-9408,1330,7,-5,203
246010205,0.59210205078125,-0.63165283203125,-0.1781005859375,0.46771240234375,-570,-9684,1156,6,3,173
246020187,0.58380126953125,-0.63507080078125,-0.16558837890625,0.4779052734375,-1676,-10007,967,7,8,147
246030173,0.57647705078125,-0.63812255859375,-0.1536865234375,0.4866943359375,-2614,-10373,793,11,11,135
246040153,0.5692138671875,-0.64093017578125,-0.14117431640625,0.4952392578125,-3444,-10618,593,16,14,142
246050125,0.561279296875,-0.6435546875,-0.126708984375,0.5047607421875,-4047,-10649,462,23,16,163
246060106,0.5518798828125,-0.6458740234375,-0.10931396484375,0.51605224609375,-4473,-10496,392,29,17,196
246070089,0.53961181640625,-0.64801025390625,-0.0880126953125,0.53021240234375,-4763,-10170,341,34,16,248
246080072,0.52301025390625,-0.64959716796875,-0.0614013671875,0.54833984375,-4945,-9669,415,38,13,318
246090056,0.50067138671875,-0.64996337890625,-0.028564453125,0.57098388671875,-4996,-8978,644,40,8,397
246100037,0.47265625,-0.64837646484375,0.00946044921875,0.59674072265625,-4897,-8111,855,41,5,460
246110021,0.43939208984375,-0.64459228515625,0.05126953125,0.62353515625,-4590,-7108,847,40,4,506
246120004,0.4019775390625,-0.63848876953125,0.09527587890625,0.64935302734375,-4121,-6014,685,39,7,533
246129994,0.3612060546875,-0.63006591796875,0.140625,0.6728515625,-3650,-4861,512,38,13,547
246139976,0.31829833984375,-0.61944580078125,0.1861572265625,0.69305419921875,-3226,-3735,327,38,21,547
246149954,0.27398681640625,-0.6065673828125,0.2313232421875,0.70953369140625,-2939,-2645,302,40,28,542
246159938,0.22955322265625,-0.591552734375,0.27520751953125,0.72222900390625,-2794,-1622,422,44,34,528
246169920,0.18609619140625,-0.57476806640625,0.31719970703125,0.73101806640625,-2784,-482,585,50,37,504
246179904,0.146240234375,-0.55767822265625,0.35546875,0.73565673828125,-2842,832,835,56,40,443
246189885,0.11474609375,-0.54327392578125,0.38641357421875,0.7364501953125,-3060,2129,1172,58,44,330
246199867,0.09637451171875,-0.53546142578125,0.40655517578125,0.73394775390625,-3527,3108,1490,56,49,167
246209850,0.09259033203125,-0.53631591796875,0.41522216796875,0.72894287109375,-4279,3626,1615,52,52,7
246219829,0.10064697265625,-0.5440673828125,0.4144287109375,0.72247314453125,-5160,3772,1683,48,50,-111
246229810,0.11566162109375,-0.55535888671875,0.407958984375,0.71533203125,-5971,3731,1637,45,45,-173
246239794,0.13299560546875,-0.56719970703125,0.399169921875,0.70794677734375,-6667,3712,1485,41,38,-189
246249784,0.1495361328125,-0.57781982421875,0.390380859375,0.700927734375,-7296,3718,1233,36,29,-174
246259770,0.163330078125,-0.58612060546875,0.3829345703125,0.69500732421875,-7806,3727,932,29,20,-141
246269754,0.17340087890625,-0.591796875,0.3775634765625,0.69073486328125,-8178,3781,618,21,10,-99
246279736,0.17987060546875,-0.59503173828125,0.37420654296875,0.6881103515625,-8425,3814,295,12,1,-63
246289711,0.18377685546875,-0.59661865234375,0.37188720703125,0.68701171875,-8572,3721,93,4,-7,-39
246299690,0.1865234375,-0.59698486328125,0.36968994140625,0.6871337890625,-8634,3449,37,-2,-14,-27
246309669,0.18914794921875,-0.5968017578125,0.366943359375,0.68804931640625,-8580,3050,128,-6,-20,-27
246319653,0.1927490234375,-0.5965576171875,0.3631591796875,0.68927001953125,-8431,2621,275,-7,-24,-36
246329637,0.197998046875,-0.5966796875,0.35809326171875,0.6903076171875,-8180,2233,457,-6,-27,-57
246339619,0.20574951171875,-0.59765625,0.351318359375,0.69061279296875,-7822,1894,598,-2,-27,-84
246349608,0.21630859375,-0.59991455078125,0.3426513671875,0.68988037109375,-7430,1682,725,2,-26,-117
246359588,0.2303466796875,-0.6038818359375,0.3314208984375,0.68731689453125,-7068,1634,808,7,-21,-164
246369570,0.24908447265625,-0.61029052734375,0.31640625,0.68212890625,-6720,1583,828,11,-13,-226
246379554,0.27349853515625,-0.6197509765625,0.29632568359375,0.6732177734375,-6360,1520,774,14,-3,-305
246389542,0.30438232421875,-0.6324462890625,0.26983642578125,0.6591796875,-6183,1367,595,16,10,-395
246399520,0.34136962890625,-0.64764404296875,0.23626708984375,0.638916015625,-6304,1045,301,16,22,-485
246409504,0.38287353515625,-0.66363525390625,0.19561767578125,0.61212158203125,-6720,477,5,14,29,-565
246419488,0.42718505859375,-0.67840576171875,0.1485595703125,0.5789794921875,-7101,-524,-242,12,31,-623
246429472,0.4715576171875,-0.6898193359375,0.09722900390625,0.5406494140625,-7336,-1789,-478,12,28,-651
246439455,0.51385498046875,-0.6964111328125,0.04400634765625,0.49896240234375,-7335,-2942,-580,15,18,-655
246449435,0.55267333984375,-0.6976318359375,-0.0091552734375,0.45574951171875,-6690,-3671,-793,18,8,-647
246459426,0.588134765625,-0.6944580078125,-0.06341552734375,0.40960693359375,-5742,-4149,-1068,16,3,-658
246469410,0.6195068359375,-0.68701171875,-0.11810302734375,0.36090087890625,-4800,-4881,-1155,10,0,-652
246479392,0.64495849609375,-0.67596435546875,-0.16900634765625,0.3138427734375,-3986,-5832,-979,7,-5,-593
246489368,0.66339111328125,-0.663330078125,-0.2108154296875,0.27459716796875,-3185,-6781,-689,9,-14,-473
246499353,0.67559814453125,-0.651611328125,-0.241455078125,0.24639892578125,-2276,-7410,-315,12,-21,-334
246509337,0.68316650390625,-0.6422119140625,-0.26177978515625,0.22882080078125,-1315,-7651,48,14,-23,-208
246519319,0.6873779296875,-0.6358642578125,-0.27349853515625,0.21990966796875,-472,-7610,310,12,-22,-105
246529298,0.68890380859375,-0.63275146484375,-0.2783203125,0.218017578125,146,-7423,444,9,-19,-22
246539284,0.68829345703125,-0.6324462890625,-0.27801513671875,0.22125244140625,559,-7173,445,4,-17,38
246549263,0.68609619140625,-0.6341552734375,-0.2744140625,0.2276611328125,874,-6935,401,-2,-15,74
246559243,0.682861328125,-0.63702392578125,-0.2694091796875,0.23516845703125,1137,-6700,356,-9,-12,87
246569233,0.67926025390625,-0.64044189453125,-0.264404296875,0.24200439453125,1307,-6500,336,-15,-9,82
246579216,0.67578125,-0.64373779296875,-0.2606201171875,0.2469482421875,1376,-6377,341,-21,-5,60
246589195,0.6728515625,-0.64666748046875,-0.25872802734375,0.24920654296875,1358,-6323,373,-25,-1,31
246599189,0.67071533203125,-0.6490478515625,-0.25897216796875,0.24853515625,1268,-6348,424,-30,3,0
246609173,0.669189453125,-0.6510009765625,-0.26123046875,0.24530029296875,1140,-6455,461,-33,6,-27
246619153,0.6680908203125,-0.652587890625,-0.2647705078125,0.240234375,987,-6652,491,-35,8,-43
246629123,0.66705322265625,-0.654052734375,-0.268798828125,0.2344970703125,875,-6944,496,-37,9,-48
246639106,0.665771484375,-0.65582275390625,-0.2723388671875,0.22918701171875,814,-7258,474,-37,9,-39
246649088,0.6640625,-0.65802001953125,-0.27459716796875,0.2249755859375,772,-7570,390,-37,10,-23
246659071,0.661865234375,-0.66082763671875,-0.275390625,0.22235107421875,732,-7837,292,-36,10,-4
246669058,0.65911865234375,-0.6641845703125,-0.27459716796875,0.2213134765625,666,-8070,168,-35,9,15
246679039,0.656005859375,-0.66802978515625,-0.2725830078125,0.2216796875,585,-8264,-4,-33,9,30
246689024,0.652587890625,-0.672119140625,-0.26953125,0.22308349609375,497,-8429,-205,-31,8,41
246699005,0.6490478515625,-0.67626953125,-0.2659912109375,0.22503662109375,422,-8551,-400,-30,7,45
246708996,0.6456298828125,-0.68023681640625,-0.26251220703125,0.2269287109375,361,-8660,-572,-28,7,42
246718978,0.64251708984375,-0.683837890625,-0.25970458984375,0.22833251953125,328,-8743,-694,-26,7,34
246728952,0.6397705078125,-0.6868896484375,-0.2578125,0.22894287109375,275,-8819,-794,-25,6,22
246738936,0.6375732421875,-0.68939208984375,-0.25677490234375,0.22882080078125,185,-8913,-878,-22,5,11
246748919,0.63568115234375,-0.69146728515625,-0.2562255859375,0.2283935546875,58,-9052,-960,-20,5,6
246758901,0.6339111328125,-0.69329833984375,-0.2557373046875,0.22808837890625,-61,-9181,-1041,-18,3,7
246768887,0.6322021484375,-0.695068359375,-0.2548828125,0.228515625,-164,-9280,-1073,-15,1,13
246778871,0.63043212890625,-0.69683837890625,-0.25341796875,0.229736328125,-221,-9341,-1041,-13,-1,22
246788849,0.628662109375,-0.698486328125,-0.25140380859375,0.2318115234375,-249,-9370,-986,-11,-3,28
246798835,0.62689208984375,-0.70001220703125,-0.24920654296875,0.2342529296875,-223,-9372,-959,-9,-4,31
246808819,0.62530517578125,-0.7012939453125,-0.2471923828125,0.23675537109375,-169,-9341,-931,-7,-5,30
246818800,0.62396240234375,-0.7022705078125,-0.24560546875,0.239013671875,-116,-9292,-934,-6,-7,24
246828784,0.6229248046875,-0.70294189453125,-0.24481201171875,0.24066162109375,-45,-9207,-959,-4,-7,15
246838766,0.62225341796875,-0.703125,-0.244873046875,0.24169921875,40,-9102,-954,-3,-8,6
246848758,0.6219482421875,-0.70306396484375,-0.24560546875,0.2420654296875,139,-9009,-922,-2,-8,-2
246858735,0.6219482421875,-0.70269775390625,-0.24664306640625,0.24212646484375,256,-8910,-845,-1,-7,-4
246868711,0.6219482421875,-0.7022705078125,-0.24755859375,0.24224853515625,353,-8817,-738,-1,-7,-1
246878702,0.6219482421875,-0.70196533203125,-0.24798583984375,0.24285888671875,386,-8738,-667,0,-7,4
246888684,0.6217041015625,-0.70184326171875,-0.24774169921875,0.24395751953125,387,-8659,-639,0,-7,11
246898666,0.621337890625,-0.701904296875,-0.24700927734375,0.24542236328125,395,-8586,-638,0,-6,16
246908648,0.620849609375,-0.70208740234375,-0.24615478515625,0.2470703125,370,-8502,-660,0,-6,17
246918635,0.620361328125,-0.7022705078125,-0.24517822265625,0.248779296875,331,-8365,-718,1,-7,17
246928615,0.61981201171875,-0.70245361328125,-0.24444580078125,0.25042724609375,268,-8166,-794,0,-7,15
246938599,0.61907958984375,-0.70269775390625,-0.24395751953125,0.2518310546875,172,-7845,-923,-1,-8,12
246948579,0.61810302734375,-0.703125,-0.24395751953125,0.25299072265625,86,-7393,-1018,-5,-9,8
246958563,0.61663818359375,-0.70391845703125,-0.2445068359375,0.25384521484375,-1,-6852,-1043,-12,-10,5
246968548,0.6146240234375,-0.70513916015625,-0.24566650390625,0.25433349609375,-36,-6300,-1002,-20,-11,2
246978530,0.61181640625,-0.70697021484375,-0.2474365234375,0.25439453125,-65,-5723,-955,-31,-12,-2
246988508,0.608154296875,-0.7093505859375,-0.25054931640625,0.25347900390625,-108,-5189,-918,-44,-14,-13
246998492,0.6033935546875,-0.71246337890625,-0.25482177734375,0.25177001953125,-180,-4724,-945,-58,-16,-20
247008475,0.59698486328125,-0.71673583984375,-0.259765625,0.24981689453125,-337,-4384,-1093,-74,-19,-17
247018458,0.58843994140625,-0.72247314453125,-0.2646484375,0.24847412109375,-526,-4151,-1382,-91,-24,-5
247028449,0.57745361328125,-0.72979736328125,-0.26904296875,0.2481689453125,-686,-4032,-1768,-108,-30,10
247038432,0.5640869140625,-0.73858642578125,-0.27313232421875,0.24853515625,-790,-4019,-2188,-125,-35,23
247048416,0.548828125,-0.748291015625,-0.27728271484375,0.24896240234375,-812,-4115,-2635,-140,-37,27
247058402,0.53192138671875,-0.75872802734375,-0.28179931640625,0.24896240234375,-811,-4262,-3162,-152,-39,29
247068378,0.51373291015625,-0.76953125,-0.286865234375,0.24822998046875,-781,-4409,-3781,-163,-39,24
247078362,0.49456787109375,-0.78033447265625,-0.29296875,0.246337890625,-717,-4560,-4461,-171,-38,14
247088341,0.4747314453125,-0.790771484375,-0.3004150390625,0.24310302734375,-622,-4663,-5149,-178,-38,1
247098327,0.45452880859375,-0.800537109375,-0.3094482421875,0.2384033203125,-501,-4754,-5792,-184,-37,-17
247108311,0.43414306640625,-0.80938720703125,-0.3203125,0.23211669921875,-410,-4928,-6429,-189,-37,-37
247118293,0.41387939453125,-0.8170166015625,-0.33282470703125,0.22442626953125,-288,-5216,-7023,-190,-36,-55
247128277,0.39404296875,-0.823486328125,-0.34661865234375,0.2156982421875,-88,-5636,-7478,-190,-34,-68
247138261,0.375,-0.82867431640625,-0.3607177734375,0.20635986328125,182,-6128,-7683,-186,-31,-74
247148241,0.35723876953125,-0.83282470703125,-0.374267578125,0.19683837890625,467,-6611,-7665,-179,-27,-74
247158233,0.34075927734375,-0.836181640625,-0.38690185546875,0.18719482421875,728,-7041,-7503,-171,-21,-71
247168215,0.32574462890625,-0.83892822265625,-0.39813232421875,0.17767333984375,990,-7455,-7266,-161,-14,-65
247178196,0.31231689453125,-0.84136962890625,-0.40771484375,0.1683349609375,1243,-7845,-6998,-149,-6,-55
247188189,0.30072021484375,-0.84375,-0.4151611328125,0.15911865234375,1491,-8250,-6769,-136,4,-42
247198173,0.29095458984375,-0.8463134765625,-0.420166015625,0.15020751953125,1649,-8682,-6625,-121,15,-25
247208146,0.28326416015625,-0.8492431640625,-0.4224853515625,0.141845703125,1699,-9151,-6530,-105,26,-7
247218128,0.2777099609375,-0.85247802734375,-0.422119140625,0.13421630859375,1598,-9642,-6483,-87,35,11
247228108,0.2742919921875,-0.85614013671875,-0.4189453125,0.1278076171875,1332,-10142,-6428,-68,42,30
247238091,0.27313232421875,-0.86004638671875,-0.41302490234375,0.12310791015625,944,-10709,-6385,-46,46,50
247248074,0.2742919921875,-0.86419677734375,-0.40423583984375,0.12054443359375,420,-11329,-6337,-22,48,72
247258055,0.27789306640625,-0.8685302734375,-0.3924560546875,0.12042236328125,-197,-11913,-6300,5,47,96
247268035,0.28375244140625,-0.87298583984375,-0.37713623046875,0.1234130859375,-899,-12420,-6316,34,43,126
247278020,0.29168701171875,-0.87744140625,-0.3580322265625,0.12982177734375,-1575,-12817,-6418,64,35,158
247288005,0.301513671875,-0.8814697265625,-0.3355712890625,0.1397705078125,-2180,-13089,-6562,94,22,186
247297994,0.31280517578125,-0.884521484375,-0.31036376953125,0.1531982421875,-2742,-13197,-6705,123,6,209
247307977,0.3253173828125,-0.88592529296875,-0.28363037109375,0.16998291015625,-3239,-13115,-6925,149,-15,220
247317951,0.338623046875,-0.88519287109375,-0.25665283203125,0.18963623046875,-3770,-12914,-7245,172,-37,221
247327938,0.35247802734375,-0.8819580078125,-0.23040771484375,0.21185302734375,-4243,-12624,-7646,192,-62,216
247337920,0.36676025390625,-0.87615966796875,-0.20526123046875,0.236083984375,-4532,-12262,-8171,210,-87,208
247347904,0.3812255859375,-0.86785888671875,-0.1815185546875,0.26177978515625,-4601,-11780,-8771,225,-110,201
247357889,0.3958740234375,-0.85723876953125,-0.159423828125,0.28826904296875,-4530,-11141,-9274,236,-130,189
247367877,0.4107666015625,-0.84423828125,-0.1396484375,0.314697265625,-4340,-10366,-9580,244,-145,167
247377857,0.426513671875,-0.82904052734375,-0.1234130859375,0.33990478515625,-3973,-9463,-9670,249,-155,131
247387840,0.44384765625,-0.81195068359375,-0.1121826171875,0.36224365234375,-3421,-8418,-9538,252,-157,77
247397822,0.46343994140625,-0.79327392578125,-0.1070556640625,0.38006591796875,-2732,-7284,-9167,250,-151,12
247407804,0.48553466796875,-0.77374267578125,-0.10791015625,0.392333984375,-2005,-6147,-8608,245,-136,-57
247417784,0.5096435546875,-0.7537841796875,-0.1136474609375,0.39892578125,-1351,-5098,-7928,236,-116,-113
247427773,0.5345458984375,-0.734130859375,-0.1220703125,0.4005126953125,-758,-4149,-7120,224,-92,-148
247437756,0.55908203125,-0.71527099609375,-0.131591796875,0.39813232421875,-161,-3242,-6190,206,-67,-166
247447738,0.5823974609375,-0.69775390625,-0.1412353515625,0.39239501953125,351,-2390,-5122,183,-42,-173
247457718,0.60406494140625,-0.68212890625,-0.15081787109375,0.383544921875,731,-1612,-3942,155,-17,-182
247467705,0.62371826171875,-0.66864013671875,-0.16070556640625,0.37158203125,990,-916,-2800,122,5,-191
247477684,0.64080810546875,-0.6578369140625,-0.1707763671875,0.3570556640625,1065,-240,-1825,86,22,-192
247487667,0.65423583984375,-0.6502685546875,-0.180419921875,0.3414306640625,920,387,-1079,47,34,-179
247497649,0.663330078125,-0.646484375,-0.18927001953125,0.32586669921875,615,878,-569,6,40,-159
247507629,0.66790771484375,-0.6466064453125,-0.1978759765625,0.31085205078125,219,1184,-286,-38,40,-139
247517609,0.66778564453125,-0.650634765625,-0.20654296875,0.2967529296875,-212,1251,-270,-79,35,-116
247527592,0.662841796875,-0.658447265625,-0.21514892578125,0.28424072265625,-680,1111,-507,-120,26,-90
247537576,0.65301513671875,-0.6697998046875,-0.2235107421875,0.2738037109375,-1100,772,-987,-156,16,-61
247547557,0.638427734375,-0.68438720703125,-0.2313232421875,0.26556396484375,-1442,264,-1679,-188,5,-29
247557549,0.6192626953125,-0.70166015625,-0.23834228515625,0.25958251953125,-1656,-368,-2560,-215,-5,2
247567525,0.59600830078125,-0.7210693359375,-0.24420166015625,0.25543212890625,-1748,-1086,-3546,-238,-13,32
247577507,0.5692138671875,-0.74169921875,-0.24896240234375,0.252685546875,-1723,-1862,-4560,-255,-20,55
247587491,0.539794921875,-0.7628173828125,-0.2529296875,0.25042724609375,-1620,-2702,-5531,-269,-24,67
247597473,0.50860595703125,-0.78350830078125,-0.25689697265625,0.247802734375,-1464,-3570,-6384,-278,-26,68
247607456,0.47662353515625,-0.80303955078125,-0.2613525390625,0.244140625,-1324,-4479,-7123,-283,-27,59
247617436,0.4447021484375,-0.8209228515625,-0.26666259765625,0.23931884765625,-1238,-5443,-7700,-283,-26,46
247627427,0.4134521484375,-0.83673095703125,-0.27288818359375,0.2335205078125,-1196,-6473,-8143,-278,-25,31
247637412,0.38360595703125,-0.850341796875,-0.2799072265625,0.22686767578125,-1120,-7531,-8450,-269,-22,16
247647395,0.3558349609375,-0.8616943359375,-0.28778076171875,0.21942138671875,-1006,-8641,-8593,-257,-19,0
247657371,0.33074951171875,-0.87078857421875,-0.29583740234375,0.211669921875,-850,-9856,-8577,-240,-15,-8
247667351,0.30908203125,-0.87811279296875,-0.3028564453125,0.204345703125,-654,-11247,-8427,-215,-11,-4
247677339,0.2913818359375,-0.8839111328125,-0.3074951171875,0.1982421875,-548,-12609,-8171,-183,-6,9
247687320,0.27764892578125,-0.88885498046875,-0.3087158203125,0.1939697265625,-603,-13611,-7922,-145,-1,32
247697306,0.2681884765625,-0.8934326171875,-0.304931640625,0.1922607421875,-841,-14346,-7595,-100,3,69
247707293,0.26312255859375,-0.89801025390625,-0.294677734375,0.1939697265625,-1266,-14887,-7126,-50,6,118
247717274,0.26263427734375,-0.90228271484375,-0.2779541015625,0.1993408203125,-1806,-15284,-6572,1,6,162
247727257,0.2666015625,-0.90557861328125,-0.2562255859375,0.2080078125,-2441,-15576,-6120,50,3,192
247737237,0.27471923828125,-0.90716552734375,-0.2310791015625,0.2196044921875,-3097,-15790,-5924,97,-5,211
247747226,0.286376953125,-0.90655517578125,-0.20391845703125,0.233642578125,-3672,-15685,-6003,141,-18,217
247757212,0.30096435546875,-0.90338134765625,-0.17645263671875,0.24945068359375,-4151,-15178,-6395,179,-33,210
247767195,0.31787109375,-0.8974609375,-0.15032958984375,0.26641845703125,-4502,-14339,-7020,211,-50,190
247777186,0.3370361328125,-0.88873291015625,-0.1270751953125,0.28369140625,-4731,-13248,-7676,237,-67,157
247787173,0.35833740234375,-0.8773193359375,-0.10821533203125,0.30035400390625,-4871,-12003,-8310,256,-82,111
247797153,0.38165283203125,-0.86358642578125,-0.09466552734375,0.3155517578125,-4961,-10702,-8876,269,-93,58
247807123,0.40667724609375,-0.8480224609375,-0.08648681640625,0.32867431640625,-5011,-9385,-9374,276,-100,5
247817104,0.43310546875,-0.83099365234375,-0.08355712890625,0.3389892578125,-4964,-8135,-9726,279,-102,-47
247827086,0.4608154296875,-0.8128662109375,-0.085693359375,0.34576416015625,-4791,-7000,-9834,276,-98,-100
247837069,0.48956298828125,-0.79400634765625,-0.09246826171875,0.3482666015625,-4445,-5996,-9585,269,-86,-149
247847051,0.51885986328125,-0.774658203125,-0.1026611328125,0.34661865234375,-3977,-5201,-8974,259,-71,-184
247857036,0.5474853515625,-0.7552490234375,-0.11376953125,0.3419189453125,-3446,-4531,-8114,245,-53,-194
247867020,0.5743408203125,-0.73638916015625,-0.1239013671875,0.33544921875,-3015,-3986,-7125,229,-36,-185
247877003,0.59869384765625,-0.718505859375,-0.13201904296875,0.328369140625,-2701,-3571,-6074,209,-21,-166
247886992,0.6201171875,-0.7022705078125,-0.137451171875,0.32159423828125,-2417,-3279,-5009,187,-8,-137
247896978,0.63812255859375,-0.68792724609375,-0.1397705078125,0.31622314453125,-2144,-3010,-3921,163,2,-99
247906950,0.652587890625,-0.6759033203125,-0.13873291015625,0.3131103515625,-1891,-2798,-2876,139,9,-52
247916931,0.6632080078125,-0.66644287109375,-0.1339111328125,0.31317138671875,-1749,-2661,-1935,114,14,-2
247926916,0.6700439453125,-0.6595458984375,-0.1258544921875,0.3165283203125,-1726,-2619,-1133,91,15,45
247936899,0.67352294921875,-0.6549072265625,-0.1153564453125,0.3226318359375,-1805,-2676,-499,68,16,80
247946880,0.67425537109375,-0.6522216796875,-0.10357666015625,0.3304443359375,-1943,-2794,-56,49,17,101
247956864,0.67291259765625,-0.65118408203125,-0.091552734375,0.33880615234375,-2106,-2972,262,31,18,110
247966847,0.66998291015625,-0.65142822265625,-0.0799560546875,0.346923828125,-2293,-3144,490,15,19,108
247976831,0.6661376953125,-0.6527099609375,-0.06939697265625,0.35406494140625,-2462,-3337,625,1,20,99
247986811,0.6617431640625,-0.65496826171875,-0.06036376953125,0.35980224609375,-2591,-3571,716,-11,23,85
247996794,0.65704345703125,-0.65814208984375,-0.05291748046875,0.36376953125,-2723,-3839,793,-23,27,68
248006774,0.6524658203125,-0.66204833984375,-0.0472412109375,0.36572265625,-2890,-4174,827,-31,30,48
248016766,0.6480712890625,-0.66650390625,-0.0430908203125,0.365966796875,-3075,-4537,804,-37,32,31
248026749,0.64404296875,-0.6712646484375,-0.04046630859375,0.3646240234375,-3227,-4860,730,-41,34,13
248036732,0.6405029296875,-0.67620849609375,-0.0391845703125,0.36187744140625,-3338,-5143,645,-44,35,-2
248046705,0.63739013671875,-0.6812744140625,-0.03912353515625,0.35784912109375,-3444,-5384,564,-46,36,-16
248056687,0.63458251953125,-0.6864013671875,-0.0401611328125,0.3529052734375,-3571,-5623,435,-47,35,-27
248066670,0.63189697265625,-0.6915283203125,-0.0418701171875,0.34747314453125,-3699,-5893,275,-48,34,-34
248076654,0.62921142578125,-0.69659423828125,-0.04400634765625,0.341796875,-3812,-6159,106,-48,32,-36
248086636,0.62646484375,-0.70159912109375,-0.04620361328125,0.33642578125,-3905,-6400,-64,-48,30,-34
248096618,0.62353515625,-0.70635986328125,-0.04840087890625,0.33148193359375,-3943,-6628,-227,-47,27,-31
248106601,0.62054443359375,-0.71087646484375,-0.05029296875,0.3271484375,-3968,-6827,-353,-45,24,-25
248116586,0.61737060546875,-0.715087890625,-0.05181884765625,0.32373046875,-3974,-7005,-487,-43,20,-18
248126567,0.61419677734375,-0.71893310546875,-0.052978515625,0.32110595703125,-3967,-7193,-571,-40,16,-11
248136551,0.61083984375,-0.722412109375,-0.0537109375,0.3194580078125,-3946,-7402,-652,-38,11,-3
248146542,0.60748291015625,-0.7255859375,-0.0540771484375,0.3187255859375,-3890,-7598,-726,-35,8,5
248156521,0.604248046875,-0.728271484375,-0.05401611328125,0.3187255859375,-3803,-7785,-748,-31,4,11
248166504,0.6011962890625,-0.73052978515625,-0.05377197265625,0.31939697265625,-3708,-7935,-772,-27,0,15
248176486,0.59844970703125,-0.7322998046875,-0.05328369140625,0.320556640625,-3614,-8057,-799,-23,-2,18
248186468,0.59600830078125,-0.73370361328125,-0.052734375,0.322021484375,-3554,-8133,-824,-18,-5,19
248196450,0.59381103515625,-0.73468017578125,-0.05218505859375,0.3238525390625,-3522,-8186,-824,-15,-8,19
248208995,0.592041015625,-0.7352294921875,-0.0516357421875,0.325927734375,-3515,-8216,-821,-11,-11,19
248216423,0.59051513671875,-0.73541259765625,-0.05108642578125,0.328369140625,-3544,-8263,-809,-7,-13,20
248226405,0.58929443359375,-0.7352294921875,-0.05047607421875,0.33111572265625,-3567,-8303,-808,-3,-16,21
248236390,0.58831787109375,-0.73468017578125,-0.0498046875,0.33416748046875,-3602,-8354,-801,0,-18,23
248246365,0.5875244140625,-0.73382568359375,-0.04901123046875,0.3375244140625,-3593,-8375,-777,3,-20,24
248256350,0.58697509765625,-0.73272705078125,-0.04815673828125,0.34100341796875,-3585,-8355,-756,6,-21,25
248266331,0.58660888671875,-0.7313232421875,-0.0472412109375,0.3447265625,-3573,-8296,-697,8,-23,25
248276315,0.58648681640625,-0.729736328125,-0.04632568359375,0.34844970703125,-3549,-8224,-627,10,-23,24
248286299,0.58648681640625,-0.72796630859375,-0.0455322265625,0.3521728515625,-3537,-8128,-556,12,-24,24
248296281,0.58660888671875,-0.72601318359375,-0.0447998046875,0.35601806640625,-3532,-8008,-479,13,-25,23
248306264,0.58685302734375,-0.7239990234375,-0.04412841796875,0.35986328125,-3543,-7893,-420,14,-26,22
248316244,0.58709716796875,-0.72186279296875,-0.0435791015625,0.36376953125,-3567,-7796,-363,14,-27,21
248326237,0.58746337890625,-0.71966552734375,-0.0430908203125,0.3675537109375,-3609,-7725,-314,14,-27,20
248336222,0.5877685546875,-0.71746826171875,-0.04266357421875,0.371337890625,-3647,-7651,-263,14,-27,19
248346205,0.58819580078125,-0.71527099609375,-0.0423583984375,0.375,-3649,-7564,-187,14,-27,18
248356192,0.5885009765625,-0.713134765625,-0.0421142578125,0.3785400390625,-3632,-7467,-89,13,-26,17
248366174,0.5888671875,-0.71099853515625,-0.04205322265625,0.38201904296875,-3607,-7367,-13,12,-26,16
248376157,0.58917236328125,-0.70892333984375,-0.0421142578125,0.38531494140625,-3597,-7262,70,11,-25,15
248386129,0.5894775390625,-0.70697021484375,-0.04229736328125,0.38836669921875,-3558,-7158,157,9,-25,12
248396111,0.58984375,-0.70513916015625,-0.042724609375,0.39117431640625,-3507,-7039,251,8,-23,10
248406097,0.59014892578125,-0.70343017578125,-0.04339599609375,0.3936767578125,-3456,-6939,340,7,-22,8
248416078,0.59051513671875,-0.70184326171875,-0.044189453125,0.39593505859375,-3428,-6854,420,5,-21,5
248426061,0.59075927734375,-0.700439453125,-0.0450439453125,0.39794921875,-3414,-6784,470,3,-19,4
248436042,0.59088134765625,-0.69927978515625,-0.04595947265625,0.39971923828125,-3396,-6725,503,1,-18,4
248446026,0.59075927734375,-0.69830322265625,-0.04681396484375,0.40142822265625,-3397,-6713,548,0,-16,5
248456011,0.59039306640625,-0.69757080078125,-0.04742431640625,0.40313720703125,-3424,-6723,570,-3,-14,7
248465995,0.58984375,-0.69708251953125,-0.04791259765625,0.40478515625,-3450,-6730,579,-4,-13,9
248475981,0.5889892578125,-0.69683837890625,-0.0482177734375,0.4063720703125,-3496,-6750,581,-6,-11,10
248485959,0.587890625,-0.69683837890625,-0.04833984375,0.40789794921875,-3554,-6776,563,-8,-9,11
248495939,0.58673095703125,-0.69708251953125,-0.04840087890625,0.4093017578125,-3599,-6765,555,-10,-8,11
248505924,0.58544921875,-0.6973876953125,-0.048583984375,0.4105224609375,-3644,-6744,530,-11,-7,9
248515908,0.58416748046875,-0.6978759765625,-0.0489501953125,0.41143798828125,-3688,-6735,497,-12,-6,7
248525891,0.58294677734375,-0.698486328125,-0.049560546875,0.41204833984375,-3739,-6725,443,-13,-4,3
248535877,0.581787109375,-0.69921875,-0.05035400390625,0.412353515625,-3795,-6742,386,-14,-4,1
248545859,0.58062744140625,-0.70001220703125,-0.05133056640625,0.41253662109375,-3860,-6779,311,-15,-4,-1
248555835,0.5794677734375,-0.700927734375,-0.0523681640625,0.41259765625,-3916,-6825,232,-15,-3,-1
248565819,0.57818603515625,-0.70184326171875,-0.0533447265625,0.41259765625,-3961,-6870,164,-15,-3,-1
248575805,0.576904296875,-0.7027587890625,-0.05426025390625,0.4127197265625,-3989,-6919,95,-15,-3,0
248585787,0.57550048828125,-0.70367431640625,-0.05517578125,0.4129638671875,-4018,-6964,25,-15,-4,2
248595766,0.5740966796875,-0.70458984375,-0.05596923828125,0.413330078125,-4031,-7006,-28,-15,-4,3
248605759,0.57257080078125,-0.7054443359375,-0.05670166015625,0.413818359375,-4051,-7037,-76,-15,-5,4
248615743,0.571044921875,-0.70623779296875,-0.05743408203125,0.41448974609375,-4062,-7058,-116,-15,-6,5
248625719,0.56951904296875,-0.70697021484375,-0.05810546875,0.415283203125,-4072,-7065,-153,-14,-7,6
248635703,0.5679931640625,-0.7076416015625,-0.05877685546875,0.4161376953125,-4082,-7064,-180,-14,-8,6
248645684,0.56646728515625,-0.708251953125,-0.0595703125,0.4169921875,-4099,-7076,-224,-13,-8,5
248655671,0.56500244140625,-0.70880126953125,-0.06036376953125,0.41790771484375,-4118,-7110,-246,-13,-10,5
248665656,0.56365966796875,-0.70928955078125,-0.061279296875,0.41888427734375,-4137,-7159,-268,-12,-10,4
248675637,0.56231689453125,-0.70965576171875,-0.06219482421875,0.41986083984375,-4138,-7179,-297,-12,-10,4
248685622,0.56109619140625,-0.71002197265625,-0.06317138671875,0.4207763671875,-4129,-7199,-320,-11,-11,4
248695606,0.5599365234375,-0.71026611328125,-0.06414794921875,0.4217529296875,-4134,-7200,-327,-10,-11,3
248705586,0.558837890625,-0.71044921875,-0.06512451171875,0.42266845703125,-4139,-7210,-328,-10,-11,3
248715570,0.55792236328125,-0.7105712890625,-0.06610107421875,0.423583984375,-4132,-7225,-332,-9,-11,3
248725554,0.5570068359375,-0.710693359375,-0.0670166015625,0.4244384765625,-4153,-7242,-321,-8,-10,3
248735536,0.55615234375,-0.71075439453125,-0.06781005859375,0.42535400390625,-4161,-7248,-301,-7,-10,3
