subject,Two-hands and jerked
arm,neither
label,0
hz,100.17076089441062
time,4.46238

timestamp_us,q0,q1,q2,q3,ax,ay,az,gx,gy,gz
268090038,-0.5592041015625,0.2572021484375,0.41326904296875,-0.67108154296875,904,-7242,4214,-2,-1,-6
268100024,-0.55950927734375,0.25701904296875,0.41363525390625,-0.670654296875,876,-7214,4207,-1,-1,-5
268110007,-0.5596923828125,0.2569580078125,0.41387939453125,-0.67041015625,852,-7170,4198,-1,-1,-4
268119995,-0.5599365234375,0.25677490234375,0.41400146484375,-0.67022705078125,843,-7137,4193,0,-1,-4
268129977,-0.560302734375,0.25653076171875,0.41424560546875,-0.66986083984375,877,-7126,4182,0,-1,-7
268139961,-0.56103515625,0.25604248046875,0.41448974609375,-0.66925048828125,924,-7101,4165,1,0,-10
268149938,-0.56207275390625,0.25543212890625,0.41473388671875,-0.66845703125,980,-7071,4164,1,1,-13
268159920,-0.5633544921875,0.2547607421875,0.41497802734375,-0.66748046875,1013,-7055,4152,2,2,-15
268169903,-0.56475830078125,0.254150390625,0.41510009765625,-0.66650390625,1019,-7040,4153,2,3,-15
268179887,-0.566162109375,0.2535400390625,0.41510009765625,-0.66552734375,1014,-7039,4152,2,3,-15
268189870,-0.5675048828125,0.2530517578125,0.4150390625,-0.66461181640625,996,-7067,4161,3,4,-14
268199852,-0.56884765625,0.2525634765625,0.41485595703125,-0.66375732421875,1015,-7087,4172,4,3,-14
268209836,-0.57025146484375,0.25201416015625,0.41461181640625,-0.66290283203125,1055,-7102,4181,5,4,-14
268222995,-0.57171630859375,0.25146484375,0.41436767578125,-0.6619873046875,1130,-7130,4170,5,5,-14
268229803,-0.57330322265625,0.2508544921875,0.4140625,-0.66107177734375,1185,-7106,4192,4,6,-14
268239785,-0.574951171875,0.2503662109375,0.41363525390625,-0.66009521484375,1233,-7116,4215,5,7,-14
268249765,-0.5765380859375,0.24993896484375,0.41314697265625,-0.65911865234375,1245,-7129,4228,5,7,-14
268259757,-0.57818603515625,0.2496337890625,0.41253662109375,-0.658203125,1222,-7124,4256,5,8,-14
268269741,-0.579833984375,0.24932861328125,0.41192626953125,-0.6572265625,1212,-7147,4285,5,8,-15
268279720,-0.581787109375,0.24884033203125,0.41143798828125,-0.656005859375,1208,-7162,4305,5,8,-19
268289701,-0.58404541015625,0.2481689453125,0.4110107421875,-0.654541015625,1251,-7155,4316,6,9,-22
268299687,-0.5865478515625,0.247314453125,0.41070556640625,-0.65277099609375,1303,-7115,4333,5,9,-26
268309669,-0.58935546875,0.246337890625,0.41046142578125,-0.65081787109375,1346,-7069,4355,5,9,-28
268319652,-0.59228515625,0.24542236328125,0.41021728515625,-0.648681640625,1374,-6993,4376,4,10,-29
268329635,-0.59503173828125,0.2447509765625,0.40997314453125,-0.64654541015625,1391,-6895,4406,2,11,-27
268339618,-0.5975341796875,0.2442626953125,0.40966796875,-0.64459228515625,1419,-6812,4433,1,11,-23
268349599,-0.59954833984375,0.24420166015625,0.4093017578125,-0.6429443359375,1413,-6736,4440,0,11,-17
268359583,-0.6011962890625,0.2445068359375,0.40875244140625,-0.64166259765625,1398,-6659,4439,-1,12,-12
268369565,-0.60260009765625,0.2449951171875,0.408203125,-0.6405029296875,1355,-6570,4423,-2,12,-11
268379546,-0.60400390625,0.24566650390625,0.40753173828125,-0.63934326171875,1281,-6469,4418,-2,13,-11
268389529,-0.60546875,0.24639892578125,0.40692138671875,-0.6380615234375,1202,-6370,4408,-3,13,-12
268399513,-0.6070556640625,0.2470703125,0.4063720703125,-0.63665771484375,1111,-6277,4411,-4,13,-14
268409494,-0.60870361328125,0.24774169921875,0.40582275390625,-0.63519287109375,1024,-6217,4412,-4,13,-15
268419478,-0.61029052734375,0.24847412109375,0.40533447265625,-0.6336669921875,943,-6212,4417,-5,13,-15
268429464,-0.6119384765625,0.24920654296875,0.40496826171875,-0.63201904296875,861,-6229,4417,-5,12,-16
268439449,-0.6136474609375,0.24993896484375,0.40460205078125,-0.63031005859375,777,-6239,4399,-5,12,-18
268449434,-0.61541748046875,0.25054931640625,0.4044189453125,-0.62847900390625,669,-6261,4361,-5,11,-20
268459419,-0.61724853515625,0.25103759765625,0.40435791015625,-0.62652587890625,565,-6317,4318,-5,9,-22
268469403,-0.6190185546875,0.25140380859375,0.40447998046875,-0.62457275390625,507,-6378,4255,-5,7,-22
268479379,-0.6204833984375,0.25164794921875,0.40472412109375,-0.622802734375,492,-6450,4205,-5,5,-20
268489362,-0.6217041015625,0.25177001953125,0.40509033203125,-0.621337890625,489,-6527,4140,-3,3,-17
268499341,-0.62255859375,0.25189208984375,0.405517578125,-0.62017822265625,499,-6613,4081,-3,1,-15
268509327,-0.62335205078125,0.25177001953125,0.406005859375,-0.61907958984375,486,-6699,4026,-2,-1,-15
268519305,-0.624267578125,0.25128173828125,0.40667724609375,-0.617919921875,503,-6811,3989,-1,-4,-20
268529293,-0.6256103515625,0.25018310546875,0.40771484375,-0.6163330078125,574,-6974,3964,1,-6,-26
268539273,-0.62738037109375,0.24847412109375,0.4090576171875,-0.61431884765625,688,-7156,3934,3,-7,-33
268549256,-0.62957763671875,0.2462158203125,0.41064453125,-0.6119384765625,832,-7362,3929,5,-9,-38
268559237,-0.63189697265625,0.2435302734375,0.41217041015625,-0.60955810546875,955,-7513,3933,7,-10,-40
268569229,-0.63409423828125,0.24066162109375,0.41351318359375,-0.60748291015625,1048,-7623,3952,10,-11,-36
268579212,-0.6358642578125,0.23779296875,0.41455078125,-0.60614013671875,1107,-7637,3978,13,-13,-29
268589191,-0.636962890625,0.2349853515625,0.41510009765625,-0.6055908203125,1130,-7592,4007,16,-14,-21
268599184,-0.637451171875,0.2322998046875,0.41534423828125,-0.60595703125,1167,-7525,4051,18,-16,-12
268609174,-0.63739013671875,0.2296142578125,0.41534423828125,-0.6070556640625,1286,-7489,4116,20,-17,-4
268619153,-0.63702392578125,0.22686767578125,0.4150390625,-0.60870361328125,1464,-7474,4202,23,-18,1
268629121,-0.63641357421875,0.22412109375,0.41448974609375,-0.6107177734375,1611,-7453,4318,25,-17,4
268639104,-0.63580322265625,0.22125244140625,0.41351318359375,-0.613037109375,1703,-7369,4498,28,-16,6
268649086,-0.6353759765625,0.21807861328125,0.412109375,-0.61553955078125,1700,-7271,4679,31,-16,5
268659069,-0.63531494140625,0.21466064453125,0.41046142578125,-0.617919921875,1583,-7107,4871,33,-16,0
268669053,-0.63543701171875,0.21099853515625,0.4085693359375,-0.620361328125,1391,-6884,5057,35,-16,-1
268679041,-0.635498046875,0.20721435546875,0.40643310546875,-0.6229248046875,1193,-6648,5276,35,-17,0
268689019,-0.63543701171875,0.20343017578125,0.4041748046875,-0.625732421875,1030,-6401,5545,36,-18,2
268699001,-0.635009765625,0.19964599609375,0.40179443359375,-0.62890625,880,-6117,5818,35,-19,7
268708989,-0.6341552734375,0.19622802734375,0.39923095703125,-0.6324462890625,723,-5832,6028,33,-19,12
268718966,-0.633056640625,0.193115234375,0.39666748046875,-0.6361083984375,535,-5591,6101,31,-19,14
268728949,-0.63201904296875,0.1903076171875,0.394287109375,-0.63946533203125,379,-5381,6086,28,-18,11
268738931,-0.631103515625,0.18780517578125,0.39227294921875,-0.64239501953125,266,-5214,5983,25,-16,9
268748915,-0.63006591796875,0.185791015625,0.39031982421875,-0.6451416015625,80,-5123,5853,22,-14,11
268758900,-0.62841796875,0.184814453125,0.38818359375,-0.64825439453125,-278,-5127,5758,19,-11,20
268768882,-0.62554931640625,0.185302734375,0.3856201171875,-0.65240478515625,-752,-5205,5667,16,-9,36
268778866,-0.6212158203125,0.1871337890625,0.3828125,-0.65771484375,-1093,-5421,5513,13,-8,53
268788850,-0.61566162109375,0.18994140625,0.3802490234375,-0.66357421875,-1160,-5751,5196,10,-8,64
268798834,-0.60955810546875,0.19305419921875,0.37872314453125,-0.66912841796875,-780,-6239,4707,6,-8,65
268808815,-0.60382080078125,0.19586181640625,0.37841796875,-0.6737060546875,35,-6743,4281,3,-9,58
268818797,-0.59912109375,0.19744873046875,0.37921142578125,-0.677001953125,1295,-6967,4093,0,-10,47
268828784,-0.5958251953125,0.1971435546875,0.380615234375,-0.67919921875,2921,-6606,4320,-1,-11,35
268838767,-0.5936279296875,0.19482421875,0.38214111328125,-0.680908203125,4821,-5941,4973,-2,-14,34
268848750,-0.5909423828125,0.19183349609375,0.3836669921875,-0.6832275390625,6524,-5372,5605,-3,-16,47
268858734,-0.58636474609375,0.1898193359375,0.38494873046875,-0.68701171875,7647,-5188,5810,-4,-17,72
268868712,-0.57928466796875,0.1895751953125,0.38616943359375,-0.6923828125,8169,-5298,5596,-3,-18,93
268878694,-0.5706787109375,0.1903076171875,0.38720703125,-0.69873046875,8252,-5519,5174,-1,-20,103
268888683,-0.56195068359375,0.19110107421875,0.38818359375,-0.70501708984375,8179,-5705,4713,2,-21,99
268898665,-0.55413818359375,0.19110107421875,0.3890380859375,-0.710693359375,8108,-5725,4395,6,-21,85
268908646,-0.5479736328125,0.18994140625,0.3896484375,-0.7154541015625,8056,-5620,4208,11,-19,68
268918635,-0.54351806640625,0.1878662109375,0.389892578125,-0.71923828125,7923,-5371,4156,14,-17,52
268928613,-0.54058837890625,0.18511962890625,0.38958740234375,-0.7222900390625,7622,-5033,4212,18,-13,38
268938597,-0.53900146484375,0.18206787109375,0.38873291015625,-0.7247314453125,7138,-4676,4313,20,-10,25
268948578,-0.5384521484375,0.17877197265625,0.3876953125,-0.72650146484375,6535,-4360,4411,20,-9,12
268958561,-0.53857421875,0.17547607421875,0.38653564453125,-0.72784423828125,5835,-4157,4471,20,-9,5
268968544,-0.53857421875,0.17254638671875,0.38543701171875,-0.7291259765625,5112,-4068,4495,19,-10,6
268978531,-0.537841796875,0.17010498046875,0.3843994140625,-0.7308349609375,4491,-4082,4534,17,-11,13
268988514,-0.5362548828125,0.16815185546875,0.3834228515625,-0.73291015625,3994,-4174,4620,15,-12,20
268998496,-0.53424072265625,0.16650390625,0.3826904296875,-0.73516845703125,3615,-4232,4788,12,-14,22
269008481,-0.53216552734375,0.1649169921875,0.38226318359375,-0.73724365234375,3401,-4250,4991,7,-14,21
269018463,-0.53045654296875,0.16314697265625,0.3824462890625,-0.73876953125,3528,-4248,5244,1,-15,15
269028449,-0.52978515625,0.16070556640625,0.3836669921875,-0.7391357421875,4116,-4248,5517,-6,-16,3
269038430,-0.53076171875,0.1571044921875,0.38623046875,-0.7379150390625,5199,-4185,5831,-12,-15,-14
269048409,-0.53369140625,0.15228271484375,0.38983154296875,-0.73486328125,6633,-4054,6197,-19,-13,-31
269058391,-0.5379638671875,0.1468505859375,0.394287109375,-0.73046875,8173,-3933,6552,-26,-8,-40
269068369,-0.5428466796875,0.1417236328125,0.399169921875,-0.7252197265625,9639,-3870,6811,-32,-2,-40
269078355,-0.5474853515625,0.13775634765625,0.4041748046875,-0.7197265625,10812,-3825,6946,-39,5,-33
269088333,-0.551513671875,0.13543701171875,0.40911865234375,-0.7142333984375,11557,-3851,6841,-45,13,-24
269098317,-0.5550537109375,0.1351318359375,0.4139404296875,-0.70880126953125,11773,-3964,6496,-50,22,-18
269108299,-0.558349609375,0.13690185546875,0.41839599609375,-0.70318603515625,11404,-4166,5972,-55,32,-15
269118281,-0.56146240234375,0.1407470703125,0.4222412109375,-0.6976318359375,10321,-4431,5388,-56,41,-14
269128265,-0.5643310546875,0.1468505859375,0.4248046875,-0.6925048828125,8434,-4664,4942,-56,49,-11
269138246,-0.56646728515625,0.15509033203125,0.42572021484375,-0.68841552734375,6015,-4900,4615,-53,54,-5
269148237,-0.5679931640625,0.1646728515625,0.4254150390625,-0.68505859375,3454,-5115,4332,-50,56,-4
269158220,-0.5697021484375,0.1744384765625,0.42462158203125,-0.68170166015625,982,-5346,4077,-47,53,-15
269168206,-0.57244873046875,0.18316650390625,0.424072265625,-0.677490234375,-1257,-5584,3847,-44,47,-36
269178195,-0.57635498046875,0.1903076171875,0.42413330078125,-0.672119140625,-3191,-5886,3655,-42,37,-59
269188179,-0.58099365234375,0.1959228515625,0.42486572265625,-0.666015625,-4710,-6245,3479,-38,27,-73
269198160,-0.585693359375,0.20013427734375,0.42633056640625,-0.65966796875,-5773,-6682,3304,-34,18,-80
269208139,-0.5902099609375,0.20330810546875,0.42822265625,-0.6534423828125,-6498,-7129,3124,-30,10,-81
269218117,-0.593994140625,0.2056884765625,0.43048095703125,-0.647705078125,-6921,-7543,2942,-26,2,-77
269228101,-0.5968017578125,0.2076416015625,0.432861328125,-0.6429443359375,-6971,-7957,2722,-22,-5,-65
269238081,-0.59832763671875,0.20916748046875,0.4354248046875,-0.6392822265625,-6654,-8379,2472,-17,-10,-52
269248064,-0.598876953125,0.21051025390625,0.4378662109375,-0.63665771484375,-6065,-8774,2248,-12,-12,-38
269258051,-0.5986328125,0.2117919921875,0.43988037109375,-0.63507080078125,-5331,-9091,2082,-6,-11,-26
269268029,-0.59814453125,0.212890625,0.44122314453125,-0.63421630859375,-4548,-9248,1994,-1,-8,-17
269278015,-0.59765625,0.21392822265625,0.4417724609375,-0.63397216796875,-3859,-9187,1997,5,-4,-12
269287995,-0.597412109375,0.21478271484375,0.44140625,-0.63421630859375,-3322,-8898,2134,8,-1,-8
269297987,-0.59710693359375,0.2156982421875,0.440185546875,-0.635009765625,-2839,-8486,2331,11,2,-1
269307967,-0.59674072265625,0.2166748046875,0.4383544921875,-0.63629150390625,-2350,-8005,2527,13,5,5
269317948,-0.5963134765625,0.2176513671875,0.43609619140625,-0.63787841796875,-1853,-7438,2732,15,7,10
269327931,-0.595947265625,0.21856689453125,0.43328857421875,-0.63983154296875,-1311,-6796,2967,17,10,15
269337912,-0.59552001953125,0.21929931640625,0.429931640625,-0.6422119140625,-749,-6108,3287,18,12,21
269347895,-0.59527587890625,0.2198486328125,0.42626953125,-0.64471435546875,-222,-5448,3732,18,13,21
269357878,-0.595947265625,0.21966552734375,0.4229736328125,-0.64630126953125,314,-4999,4240,15,12,6
269367859,-0.5986328125,0.21820068359375,0.42108154296875,-0.64556884765625,970,-5129,4693,8,11,-26
269377841,-0.60406494140625,0.21514892578125,0.42181396484375,-0.64105224609375,1736,-6063,4996,-1,8,-70
269387825,-0.6121826171875,0.21075439453125,0.4254150390625,-0.63238525390625,2582,-7745,5138,-11,5,-114
269397808,-0.62127685546875,0.20587158203125,0.431396484375,-0.6209716796875,3591,-9763,5142,-19,1,-132
269407793,-0.62890625,0.20159912109375,0.4385986328125,-0.6094970703125,4694,-11519,5099,-27,-5,-115
269417772,-0.63299560546875,0.1990966796875,0.4459228515625,-0.6007080078125,5691,-12809,5028,-31,-12,-70
269427760,-0.63238525390625,0.19927978515625,0.45269775390625,-0.59619140625,6402,-13638,4983,-34,-21,-11
269437748,-0.62713623046875,0.2020263671875,0.45867919921875,-0.59625244140625,6850,-13812,4910,-38,-30,45
269447723,-0.61846923828125,0.20648193359375,0.4642333984375,-0.5994873046875,7148,-13564,4778,-42,-37,82
269457705,-0.6080322265625,0.2117919921875,0.4696044921875,-0.6041259765625,7337,-13105,4597,-45,-41,98
269467688,-0.5972900390625,0.21697998046875,0.47491455078125,-0.60882568359375,7373,-12498,4413,-46,-42,98
269477672,-0.58697509765625,0.2218017578125,0.48004150390625,-0.613037109375,7195,-11792,4297,-46,-40,91
269487655,-0.57757568359375,0.2261962890625,0.48468017578125,-0.61676025390625,6924,-11011,4232,-44,-38,82
269497637,-0.56927490234375,0.22991943359375,0.48876953125,-0.619873046875,6592,-10185,4238,-41,-34,72
269507624,-0.56207275390625,0.23297119140625,0.49237060546875,-0.6224365234375,6147,-9369,4278,-38,-31,60
269517607,-0.55615234375,0.23529052734375,0.49554443359375,-0.6243896484375,5514,-8567,4331,-34,-28,47
269527589,-0.55120849609375,0.23699951171875,0.4981689453125,-0.6259765625,4729,-7719,4410,-30,-26,37
269537571,-0.54693603515625,0.2381591796875,0.50030517578125,-0.6275634765625,3908,-6844,4456,-26,-26,31
269547553,-0.54290771484375,0.239013671875,0.5020751953125,-0.62933349609375,3123,-6013,4431,-23,-26,28
269557542,-0.53912353515625,0.239501953125,0.50372314453125,-0.631103515625,2353,-5300,4408,-20,-28,23
269567520,-0.53564453125,0.23944091796875,0.5052490234375,-0.6328125,1568,-4722,4452,-18,-30,17
269577502,-0.53253173828125,0.23895263671875,0.50677490234375,-0.63446044921875,791,-4308,4534,-16,-33,10
269587488,-0.5296630859375,0.2379150390625,0.50823974609375,-0.63604736328125,-64,-4021,4680,-15,-35,3
269597470,-0.52716064453125,0.23651123046875,0.50958251953125,-0.6375732421875,-1006,-3828,4892,-13,-37,-4
269607450,-0.5245361328125,0.23504638671875,0.51068115234375,-0.639404296875,-2001,-3688,5136,-12,-39,-5
269617438,-0.52178955078125,0.23370361328125,0.51116943359375,-0.6417236328125,-3006,-3616,5433,-9,-39,-3
269627422,-0.5189208984375,0.232666015625,0.510986328125,-0.6446533203125,-3941,-3637,5759,-5,-37,-2
269637402,-0.5162353515625,0.23175048828125,0.51007080078125,-0.64776611328125,-4646,-3817,6026,-1,-34,-3
269647382,-0.514404296875,0.23052978515625,0.5089111328125,-0.650634765625,-4991,-4223,6078,4,-29,-10
269657363,-0.5135498046875,0.2288818359375,0.50775146484375,-0.65277099609375,-5068,-4802,5884,10,-24,-18
269667350,-0.51336669921875,0.22735595703125,0.50616455078125,-0.6546630859375,-5038,-5518,5536,17,-16,-18
269677329,-0.51287841796875,0.22674560546875,0.5035400390625,-0.65728759765625,-5016,-6329,5118,25,-9,-4
269687317,-0.51129150390625,0.227783203125,0.49932861328125,-0.66131591796875,-5111,-7249,4748,35,0,17
269697298,-0.50872802734375,0.23040771484375,0.49322509765625,-0.6669921875,-5474,-8159,4493,45,8,35
269707283,-0.50543212890625,0.23431396484375,0.4853515625,-0.67388916015625,-5982,-8920,4254,55,14,48
269717265,-0.50164794921875,0.2386474609375,0.47625732421875,-0.681640625,-6488,-9472,3964,63,17,55
269727246,-0.49786376953125,0.24273681640625,0.4666748046875,-0.68951416015625,-6748,-9804,3558,70,16,53
269737238,-0.49517822265625,0.245361328125,0.45770263671875,-0.696533203125,-6668,-10005,3045,73,13,37
269747222,-0.49456787109375,0.2459716796875,0.449951171875,-0.70172119140625,-6248,-10151,2480,75,10,11
269757206,-0.49566650390625,0.24481201171875,0.4434814453125,-0.70550537109375,-5562,-10257,1908,75,6,-4
269767189,-0.49676513671875,0.2427978515625,0.437744140625,-0.708984375,-4708,-10303,1400,76,2,0
269777179,-0.49627685546875,0.24090576171875,0.4320068359375,-0.7135009765625,-3850,-10164,1037,76,-4,22
269787159,-0.49310302734375,0.2393798828125,0.42596435546875,-0.7198486328125,-2895,-9825,826,76,-13,52
269797138,-0.48736572265625,0.2379150390625,0.41973876953125,-0.72784423828125,-1784,-9356,689,75,-21,78
269807114,-0.4801025390625,0.23590087890625,0.413818359375,-0.73663330078125,-590,-8703,701,72,-29,90
269817098,-0.47271728515625,0.23284912109375,0.4085693359375,-0.74530029296875,625,-7935,892,67,-34,87
269827082,-0.46612548828125,0.22869873046875,0.404296875,-0.75299072265625,1792,-7221,1173,60,-38,74
269837065,-0.46099853515625,0.223388671875,0.4013671875,-0.75927734375,2846,-6610,1465,51,-40,55
269847051,-0.45758056640625,0.2171630859375,0.39984130859375,-0.76397705078125,3877,-5979,1740,42,-40,34
269857032,-0.45587158203125,0.2099609375,0.39959716796875,-0.76708984375,5055,-5296,2027,34,-39,19
269867014,-0.455322265625,0.20220947265625,0.400390625,-0.76910400390625,6291,-4566,2334,24,-36,10
269876995,-0.455322265625,0.1947021484375,0.40179443359375,-0.77032470703125,7357,-3895,2595,15,-31,8
269886984,-0.45526123046875,0.1881103515625,0.4036865234375,-0.77099609375,8040,-3345,2754,6,-27,9
269896959,-0.45489501953125,0.1826171875,0.40625,-0.77117919921875,8308,-2927,2838,-4,-24,10
269906940,-0.45416259765625,0.17828369140625,0.40948486328125,-0.7708740234375,8258,-2585,2909,-15,-23,9
269916922,-0.45330810546875,0.17474365234375,0.41363525390625,-0.77001953125,8020,-2270,2976,-26,-23,6
269926906,-0.4522705078125,0.17181396484375,0.41864013671875,-0.7685546875,7768,-1927,2996,-37,-24,5
269936889,-0.45074462890625,0.16943359375,0.42449951171875,-0.76678466796875,7668,-1572,2981,-46,-25,9
269946878,-0.44854736328125,0.16778564453125,0.43084716796875,-0.764892578125,7706,-1188,2944,-54,-24,18
269956856,-0.44561767578125,0.16693115234375,0.4373779296875,-0.7630615234375,7742,-797,2957,-59,-21,27
269966839,-0.44232177734375,0.1671142578125,0.44366455078125,-0.76129150390625,7579,-411,3007,-63,-16,31
269976822,-0.43939208984375,0.1680908203125,0.4495849609375,-0.75933837890625,7138,-7,3109,-65,-10,26
269986804,-0.4375,0.1693115234375,0.455078125,-0.7568359375,6500,378,3235,-65,-6,14
269996788,-0.43695068359375,0.17047119140625,0.46038818359375,-0.75372314453125,5647,666,3396,-65,-3,-1
270006769,-0.4373779296875,0.17156982421875,0.46533203125,-0.75018310546875,4530,810,3672,-63,-2,-12
270016752,-0.438232421875,0.17303466796875,0.4696044921875,-0.7467041015625,3171,790,4004,-61,-1,-18
270026736,-0.43927001953125,0.1746826171875,0.4732666015625,-0.743408203125,1700,669,4310,-57,-1,-23
270036713,-0.440673828125,0.17626953125,0.4764404296875,-0.7401123046875,330,445,4542,-53,-1,-32
270046696,-0.4429931640625,0.17718505859375,0.4794921875,-0.736572265625,-773,146,4641,-48,-2,-44
270056679,-0.446533203125,0.17706298828125,0.4827880859375,-0.73223876953125,-1612,-282,4588,-45,-4,-61
270066666,-0.451416015625,0.17572021484375,0.486572265625,-0.72705078125,-2123,-846,4400,-42,-6,-78
270076648,-0.45751953125,0.17315673828125,0.49127197265625,-0.720703125,-2165,-1734,4030,-41,-9,-93
270086635,-0.46484375,0.16912841796875,0.4971923828125,-0.71282958984375,-1666,-3244,3496,-40,-11,-113
270096614,-0.47430419921875,0.16314697265625,0.50482177734375,-0.70257568359375,-563,-5459,2788,-39,-11,-143
270106599,-0.48626708984375,0.1549072265625,0.51409912109375,-0.689453125,805,-8111,2059,-38,-11,-176
270116583,-0.4990234375,0.145751953125,0.52374267578125,-0.67486572265625,2127,-10305,1327,-35,-10,-182
270126566,-0.50946044921875,0.1375732421875,0.53265380859375,-0.66168212890625,3419,-11917,686,-30,-11,-147
270136548,-0.51507568359375,0.132568359375,0.540283203125,-0.65216064453125,4459,-13102,251,-26,-12,-84
270146532,-0.51495361328125,0.1317138671875,0.54638671875,-0.64727783203125,5158,-13973,20,-24,-15,-15
270156518,-0.5098876953125,0.1343994140625,0.55133056640625,-0.646484375,5704,-14502,-51,-22,-19,40
270166497,-0.5020751953125,0.138916015625,0.5555419921875,-0.64813232421875,6334,-14588,-23,-21,-21,71
270176482,-0.493896484375,0.14324951171875,0.559326171875,-0.65020751953125,7165,-14466,63,-19,-21,75
270186464,-0.487548828125,0.14599609375,0.56292724609375,-0.6512451171875,8080,-14171,259,-17,-17,54
270196449,-0.4844970703125,0.1463623046875,0.5662841796875,-0.6505126953125,8932,-13624,578,-14,-12,22
270206438,-0.48468017578125,0.14434814453125,0.56939697265625,-0.64813232421875,9698,-12721,997,-12,-7,-7
270216413,-0.4873046875,0.1407470703125,0.57196044921875,-0.6446533203125,10460,-11470,1525,-10,-1,-23
270226400,-0.49127197265625,0.13641357421875,0.573974609375,-0.64080810546875,11312,-9954,2135,-11,3,-25
270236374,-0.49566650390625,0.13232421875,0.57537841796875,-0.636962890625,12212,-8306,2766,-14,9,-16
270246355,-0.49981689453125,0.1295166015625,0.5762939453125,-0.63348388671875,12862,-6943,3212,-18,17,-2
270256342,-0.503173828125,0.12884521484375,0.5767822265625,-0.6304931640625,13040,-6224,3398,-22,25,11
270266324,-0.50579833984375,0.1302490234375,0.57708740234375,-0.62786865234375,12692,-6087,3362,-24,31,17
270276306,-0.50811767578125,0.1329345703125,0.5770263671875,-0.62542724609375,11854,-6376,3291,-24,35,14
270286293,-0.51080322265625,0.13604736328125,0.5767822265625,-0.62286376953125,10623,-6914,3211,-22,37,2
270296273,-0.51397705078125,0.13873291015625,0.57647705078125,-0.61993408203125,9235,-7545,3087,-19,35,-13
270306256,-0.51751708984375,0.14068603515625,0.5762939453125,-0.61669921875,7823,-8166,2934,-15,31,-26
270316242,-0.52105712890625,0.14202880859375,0.5760498046875,-0.61358642578125,6404,-8737,2828,-11,25,-32
270326227,-0.5240478515625,0.14306640625,0.57562255859375,-0.6112060546875,4948,-9206,2773,-6,20,-31
270336206,-0.52593994140625,0.14422607421875,0.57489013671875,-0.6099853515625,3409,-9593,2774,-1,13,-25
270346190,-0.52679443359375,0.1456298828125,0.57379150390625,-0.6099853515625,1751,-9892,2847,4,7,-20
270356181,-0.5269775390625,0.1468505859375,0.57232666015625,-0.61090087890625,66,-10053,3049,9,0,-22
270366165,-0.5274658203125,0.14715576171875,0.57073974609375,-0.61187744140625,-1432,-10069,3311,12,-5,-33
270376138,-0.52880859375,0.1461181640625,0.56927490234375,-0.61236572265625,-2596,-10013,3565,14,-9,-48
270386120,-0.53082275390625,0.1439208984375,0.56793212890625,-0.6123046875,-3420,-9940,3782,16,-11,-57
270396101,-0.532958984375,0.1414794921875,0.566650390625,-0.6123046875,-4017,-9860,3927,17,-11,-54
270406083,-0.53411865234375,0.13995361328125,0.56494140625,-0.61322021484375,-4524,-9819,4024,19,-11,-38
270416066,-0.53375244140625,0.139892578125,0.56268310546875,-0.6156005859375,-5055,-9844,4108,20,-10,-17
270426053,-0.531982421875,0.141357421875,0.55987548828125,-0.619384765625,-5579,-9865,4164,22,-8,0
270436032,-0.52923583984375,0.14398193359375,0.5565185546875,-0.6241455078125,-6024,-9825,4177,23,-7,13
270446016,-0.52593994140625,0.14715576171875,0.55291748046875,-0.62933349609375,-6230,-9735,4080,24,-5,21
270455997,-0.5223388671875,0.150634765625,0.5491943359375,-0.63470458984375,-6161,-9619,3879,25,-3,27
270465987,-0.5185546875,0.15423583984375,0.54534912109375,-0.6402587890625,-5894,-9529,3602,27,-1,34
270475975,-0.514404296875,0.15826416015625,0.541259765625,-0.6461181640625,-5564,-9469,3260,30,2,42
270485949,-0.509765625,0.16259765625,0.53680419921875,-0.65234375,-5231,-9417,2928,34,4,50
270495933,-0.504638671875,0.167236328125,0.53204345703125,-0.6590576171875,-4941,-9338,2664,36,4,57
270505916,-0.499267578125,0.171875,0.52691650390625,-0.666015625,-4700,-9219,2445,39,4,61
270515898,-0.4935302734375,0.17633056640625,0.521728515625,-0.6732177734375,-4444,-9084,2270,40,2,64
270525884,-0.4874267578125,0.180419921875,0.51654052734375,-0.68048095703125,-4103,-8888,2104,42,-2,68
270535862,-0.48095703125,0.18389892578125,0.51153564453125,-0.6878662109375,-3602,-8669,1914,43,-6,70
270545846,-0.47454833984375,0.1864013671875,0.507080078125,-0.69488525390625,-2961,-8472,1688,43,-11,66
270555832,-0.4688720703125,0.18743896484375,0.50347900390625,-0.70111083984375,-2269,-8240,1485,42,-17,52
270565817,-0.4644775390625,0.1866455078125,0.5008544921875,-0.70611572265625,-1517,-7906,1402,40,-24,34
270575806,-0.46124267578125,0.18402099609375,0.49920654296875,-0.71002197265625,-623,-7499,1411,36,-29,21
270585789,-0.4583740234375,0.18023681640625,0.49847412109375,-0.71337890625,448,-7080,1493,32,-35,19
270595770,-0.4549560546875,0.17608642578125,0.49835205078125,-0.71673583984375,1643,-6671,1623,27,-39,28
270605759,-0.4503173828125,0.17218017578125,0.4986572265625,-0.72039794921875,2757,-6384,1774,21,-42,42
270615742,-0.44439697265625,0.1690673828125,0.49932861328125,-0.72430419921875,3734,-6338,1920,16,-43,55
270625722,-0.43768310546875,0.16650390625,0.5006103515625,-0.72808837890625,4685,-6331,2050,9,-43,60
270635701,-0.4312744140625,0.16387939453125,0.50262451171875,-0.73114013671875,5629,-6123,2213,0,-43,56
270645684,-0.42584228515625,0.16082763671875,0.50543212890625,-0.7330322265625,6503,-5716,2423,-10,-40,45
270655663,-0.421630859375,0.15753173828125,0.50909423828125,-0.733642578125,7239,-5307,2595,-20,-38,34
270665647,-0.4180908203125,0.15435791015625,0.51361083984375,-0.73321533203125,7840,-4970,2759,-29,-36,29
270675629,-0.41455078125,0.15179443359375,0.51861572265625,-0.73223876953125,8272,-4863,2813,-35,-33,30
270685610,-0.41064453125,0.14996337890625,0.52398681640625,-0.73095703125,8588,-4993,2828,-40,-31,34
270695594,-0.40643310546875,0.1488037109375,0.52960205078125,-0.72955322265625,8833,-5167,2836,-43,-30,37
270705578,-0.4024658203125,0.1478271484375,0.53521728515625,-0.72784423828125,9090,-5302,2888,-45,-27,35
270715562,-0.39910888671875,0.1468505859375,0.54083251953125,-0.7257080078125,9391,-5351,2979,-47,-24,30
270725546,-0.3966064453125,0.145751953125,0.54638671875,-0.72320556640625,9687,-5302,3097,-48,-20,26
270735526,-0.3946533203125,0.144775390625,0.5516357421875,-0.72039794921875,9902,-5422,3180,-48,-16,24
270745507,-0.3929443359375,0.14447021484375,0.556640625,-0.71759033203125,9967,-5847,3231,-47,-11,25
270755493,-0.39105224609375,0.14501953125,0.56097412109375,-0.715087890625,9796,-6481,3322,-42,-6,30
270765473,-0.38873291015625,0.146728515625,0.5643310546875,-0.71337890625,9348,-7131,3415,-37,-1,37
270775459,-0.38604736328125,0.1494140625,0.5665283203125,-0.7125244140625,8689,-7718,3496,-29,4,42
270785435,-0.38360595703125,0.15240478515625,0.5677490234375,-0.7122802734375,7829,-8209,3542,-21,7,38
270795428,-0.3819580078125,0.155029296875,0.56817626953125,-0.71221923828125,6919,-8709,3500,-13,9,27
270805410,-0.38153076171875,0.1566162109375,0.56817626953125,-0.71209716796875,6074,-9272,3322,-3,9,10
270815395,-0.38262939453125,0.1566162109375,0.56805419921875,-0.71160888671875,5393,-9882,3079,5,7,-10
270825369,-0.3853759765625,0.15472412109375,0.56793212890625,-0.71063232421875,4896,-10401,2781,13,5,-31
270835351,-0.38958740234375,0.15106201171875,0.5677490234375,-0.709228515625,4558,-10715,2563,20,2,-48
270845333,-0.394775390625,0.14605712890625,0.56744384765625,-0.707763671875,4337,-10843,2372,25,0,-57
270855319,-0.3997802734375,0.140625,0.56683349609375,-0.70648193359375,4179,-10864,2150,29,-2,-54
270865299,-0.40374755859375,0.1358642578125,0.56585693359375,-0.70599365234375,4004,-10818,1902,33,-3,-40
270875279,-0.40594482421875,0.13232421875,0.5643310546875,-0.70660400390625,3788,-10642,1656,35,-3,-20
270885268,-0.4063720703125,0.13018798828125,0.5623779296875,-0.70831298828125,3566,-10289,1410,36,-3,0
270895244,-0.4056396484375,0.12896728515625,0.55999755859375,-0.7108154296875,3341,-9729,1274,37,-2,13
270905235,-0.404541015625,0.1282958984375,0.55731201171875,-0.71368408203125,3011,-9025,1274,36,-1,17
270915224,-0.403564453125,0.12799072265625,0.5543212890625,-0.71661376953125,2570,-8248,1451,33,1,15
270925206,-0.4031982421875,0.12774658203125,0.5511474609375,-0.71929931640625,2071,-7469,1766,30,4,8
270935188,-0.4039306640625,0.12725830078125,0.54791259765625,-0.721435546875,1559,-6716,2169,26,6,-4
270945174,-0.40625,0.126220703125,0.54498291015625,-0.7225341796875,1079,-6028,2551,21,10,-21
270955157,-0.41015625,0.12457275390625,0.54254150390625,-0.72247314453125,626,-5383,2861,15,12,-38
270965127,-0.415283203125,0.1226806640625,0.54052734375,-0.72137451171875,148,-4836,3113,9,14,-50
270975112,-0.42071533203125,0.12115478515625,0.53875732421875,-0.71978759765625,-530,-4358,3407,3,16,-52
270985096,-0.4256591796875,0.1207275390625,0.536865234375,-0.71832275390625,-1427,-3941,3813,-1,17,-47
270995075,-0.42962646484375,0.12164306640625,0.53472900390625,-0.71746826171875,-2386,-3570,4268,-6,18,-36
271005055,-0.43255615234375,0.12371826171875,0.5325927734375,-0.7169189453125,-3264,-3361,4642,-11,18,-27
271015040,-0.4345703125,0.126708984375,0.53070068359375,-0.716552734375,-4110,-3363,4857,-15,17,-21
271025022,-0.43572998046875,0.13055419921875,0.52923583984375,-0.71624755859375,-4817,-3564,4933,-18,16,-16
271035005,-0.43634033203125,0.134765625,0.5281982421875,-0.71588134765625,-5262,-3957,4850,-21,15,-13
271044994,-0.4365234375,0.13897705078125,0.52783203125,-0.7152099609375,-5383,-4572,4598,-22,13,-13
271054977,-0.436767578125,0.142822265625,0.5281982421875,-0.71405029296875,-5236,-5317,4237,-22,10,-16
271064955,-0.43731689453125,0.14599609375,0.5291748046875,-0.71234130859375,-4817,-6100,3830,-22,8,-22
271074937,-0.43829345703125,0.148193359375,0.53076171875,-0.7100830078125,-4125,-6870,3382,-21,6,-27
271084923,-0.43975830078125,0.14947509765625,0.53277587890625,-0.7073974609375,-3209,-7618,2973,-19,5,-30
271094906,-0.44110107421875,0.1502685546875,0.534912109375,-0.704833984375,-2133,-8275,2646,-16,3,-25
271104890,-0.44183349609375,0.15093994140625,0.5367431640625,-0.7027587890625,-1047,-8717,2421,-12,2,-13
271114878,-0.44146728515625,0.1519775390625,0.5380859375,-0.7017822265625,-20,-8980,2311,-7,2,4
271124855,-0.439697265625,0.1536865234375,0.5386962890625,-0.70208740234375,860,-9068,2286,-4,1,23
271134842,-0.43670654296875,0.15582275390625,0.5386962890625,-0.70343017578125,1606,-9033,2304,0,0,38
271144825,-0.43310546875,0.158203125,0.5382080078125,-0.70550537109375,2225,-8889,2331,4,-1,45
271154805,-0.42962646484375,0.16015625,0.5374755859375,-0.707763671875,2754,-8691,2363,7,-2,42
271164789,-0.42724609375,0.16107177734375,0.5367431640625,-0.70953369140625,3217,-8449,2407,9,-1,30
271174768,-0.4263916015625,0.1607666015625,0.5360107421875,-0.710693359375,3618,-8172,2483,11,-1,13
271184765,-0.427001953125,0.15936279296875,0.535400390625,-0.7110595703125,3907,-7883,2526,12,0,-1
271194742,-0.42864990234375,0.1572265625,0.534912109375,-0.7109375,4107,-7657,2541,13,1,-12
271204717,-0.430908203125,0.1546630859375,0.53448486328125,-0.71044921875,4246,-7496,2529,13,1,-18
271214701,-0.43341064453125,0.1519775390625,0.53411865234375,-0.70977783203125,4323,-7376,2479,14,2,-20
271224684,-0.4359130859375,0.14935302734375,0.53369140625,-0.70916748046875,4332,-7297,2451,14,2,-19
271234666,-0.43829345703125,0.14691162109375,0.5330810546875,-0.70867919921875,4266,-7226,2445,15,2,-18
271244650,-0.44036865234375,0.14471435546875,0.53228759765625,-0.70843505859375,4136,-7186,2468,16,2,-15
271254635,-0.44207763671875,0.142822265625,0.53131103515625,-0.70843505859375,3939,-7122,2503,16,2,-12
271264614,-0.4434814453125,0.14129638671875,0.5302734375,-0.7086181640625,3714,-7103,2530,16,2,-9
271274598,-0.4444580078125,0.14007568359375,0.52923583984375,-0.7091064453125,3476,-7077,2558,15,2,-5
271284579,-0.44512939453125,0.1390380859375,0.52801513671875,-0.709716796875,3214,-7070,2595,15,1,-3
271294564,-0.4456787109375,0.1380615234375,0.52691650390625,-0.71038818359375,2929,-7061,2647,15,0,-4
271304549,-0.44622802734375,0.1370849609375,0.52581787109375,-0.7110595703125,2664,-7014,2733,15,-1,-5
271314529,-0.44683837890625,0.13580322265625,0.5247802734375,-0.711669921875,2410,-6898,2838,14,-3,-7
271324512,-0.447265625,0.13458251953125,0.52386474609375,-0.71234130859375,2229,-6694,2965,12,-5,-6
271334495,-0.447509765625,0.13330078125,0.52301025390625,-0.71307373046875,2142,-6455,3059,10,-5,-3
271344476,-0.44757080078125,0.13214111328125,0.52239990234375,-0.71368408203125,2107,-6288,3183,8,-6,-3
271354460,-0.44775390625,0.13092041015625,0.52191162109375,-0.71417236328125,2095,-6178,3307,6,-6,-4
271364439,-0.44805908203125,0.12969970703125,0.521728515625,-0.71435546875,2101,-6117,3425,3,-7,-7
271374431,-0.44854736328125,0.12835693359375,0.521728515625,-0.7142333984375,2108,-6122,3519,2,-7,-9
271384416,-0.44915771484375,0.12713623046875,0.52191162109375,-0.7139892578125,2111,-6120,3602,-1,-7,-10
271394395,-0.44952392578125,0.1260986328125,0.522216796875,-0.71368408203125,2113,-6080,3685,-3,-6,-7
271404381,-0.44927978515625,0.12567138671875,0.5225830078125,-0.71368408203125,2122,-6011,3728,-5,-6,1
271414356,-0.44830322265625,0.1259765625,0.52301025390625,-0.71392822265625,2152,-5952,3783,-8,-6,10
271424341,-0.44671630859375,0.1268310546875,0.5235595703125,-0.71435546875,2162,-5919,3824,-11,-5,16
271434323,-0.44488525390625,0.1280517578125,0.5242919921875,-0.7147216796875,2175,-5914,3854,-14,-5,17
271444306,-0.44317626953125,0.12939453125,0.5252685546875,-0.71484375,2174,-5930,3883,-17,-5,15
271454293,-0.44171142578125,0.13079833984375,0.5264892578125,-0.714599609375,2205,-5982,3904,-19,-4,12
271464272,-0.44049072265625,0.132080078125,0.52789306640625,-0.71405029296875,2289,-6050,3872,-21,-3,9
271474256,-0.43963623046875,0.13336181640625,0.529541015625,-0.71307373046875,2393,-6153,3807,-23,-1,6
271484240,-0.43914794921875,0.1346435546875,0.53131103515625,-0.7119140625,2499,-6285,3712,-23,1,4
271494228,-0.43890380859375,0.135986328125,0.53314208984375,-0.71038818359375,2584,-6468,3601,-24,2,1
271504211,-0.43902587890625,0.1373291015625,0.5350341796875,-0.7086181640625,2639,-6676,3480,-24,4,-3
271514189,-0.439453125,0.13848876953125,0.53692626953125,-0.70672607421875,2664,-6901,3368,-23,5,-6
271524181,-0.4400634765625,0.13958740234375,0.53875732421875,-0.7047119140625,2680,-7117,3265,-22,5,-8
271534163,-0.4407958984375,0.140625,0.5404052734375,-0.70281982421875,2679,-7344,3173,-19,6,-8
271544141,-0.44140625,0.1417236328125,0.5418701171875,-0.7010498046875,2664,-7529,3088,-18,6,-7
271554118,-0.44189453125,0.14288330078125,0.5430908203125,-0.6995849609375,2654,-7670,3025,-15,6,-4
271564109,-0.44207763671875,0.1441650390625,0.54400634765625,-0.698486328125,2638,-7769,2939,-13,6,0
271574086,-0.442138671875,0.14556884765625,0.54473876953125,-0.69757080078125,2625,-7854,2871,-11,7,2
271584070,-0.44219970703125,0.1468505859375,0.54522705078125,-0.6968994140625,2576,-7937,2837,-8,7,2
271594056,-0.44244384765625,0.14788818359375,0.54559326171875,-0.69622802734375,2511,-7997,2819,-7,6,-2
271604033,-0.4429931640625,0.14862060546875,0.54583740234375,-0.69549560546875,2449,-8042,2802,-5,6,-5
271614018,-0.44384765625,0.1490478515625,0.5460205078125,-0.69476318359375,2385,-8036,2800,-3,6,-8
271624000,-0.44482421875,0.1492919921875,0.54608154296875,-0.69403076171875,2340,-7998,2794,-2,6,-9
271633992,-0.44580078125,0.14947509765625,0.54595947265625,-0.6934814453125,2293,-7957,2799,0,6,-8
271643966,-0.4466552734375,0.14971923828125,0.545654296875,-0.693115234375,2265,-7891,2793,1,6,-6
271653949,-0.44744873046875,0.14996337890625,0.54522705078125,-0.69287109375,2242,-7836,2800,2,6,-5
271663933,-0.44805908203125,0.15045166015625,0.544677734375,-0.69281005859375,2208,-7762,2811,3,7,-1
271673918,-0.448486328125,0.15106201171875,0.5439453125,-0.6929931640625,2182,-7683,2831,4,7,1
271683899,-0.44866943359375,0.15179443359375,0.5430908203125,-0.693359375,2160,-7623,2855,4,7,4
271693883,-0.44891357421875,0.15252685546875,0.54217529296875,-0.6937255859375,2127,-7605,2879,4,7,2
271703866,-0.44940185546875,0.153076171875,0.541259765625,-0.69403076171875,2079,-7588,2915,5,7,0
271713849,-0.449951171875,0.15350341796875,0.54034423828125,-0.69427490234375,2012,-7545,2917,5,7,-2
271723830,-0.45050048828125,0.15386962890625,0.5394287109375,-0.69451904296875,1938,-7490,2921,6,6,-1
271733817,-0.45074462890625,0.1544189453125,0.53839111328125,-0.695068359375,1845,-7407,2931,7,5,3
271743798,-0.4505615234375,0.155029296875,0.53741455078125,-0.69586181640625,1744,-7317,2934,6,4,6
271753784,-0.45001220703125,0.15570068359375,0.53643798828125,-0.69677734375,1668,-7212,2948,6,2,8
271763770,-0.449462890625,0.15606689453125,0.5355224609375,-0.69775390625,1630,-7140,2984,6,0,7
271773754,-0.448974609375,0.1561279296875,0.53497314453125,-0.698486328125,1628,-7086,2999,5,-2,3
271783738,-0.44891357421875,0.15570068359375,0.53466796875,-0.6988525390625,1635,-7027,3021,4,-4,-3
271793709,-0.44921875,0.15478515625,0.5345458984375,-0.69891357421875,1650,-6972,3058,3,-5,-8
271803692,-0.44964599609375,0.15362548828125,0.53466796875,-0.69879150390625,1677,-6924,3075,2,-6,-10
271813676,-0.4500732421875,0.15228271484375,0.5350341796875,-0.6986083984375,1713,-6875,3084,1,-8,-11
271823659,-0.45050048828125,0.15093994140625,0.5355224609375,-0.6982421875,1771,-6839,3090,0,-9,-11
271833641,-0.45074462890625,0.14947509765625,0.53619384765625,-0.6978759765625,1873,-6851,3093,-1,-10,-11
271843621,-0.450927734375,0.1480712890625,0.53704833984375,-0.6973876953125,1993,-6911,3082,-2,-11,-10
271853603,-0.450927734375,0.146728515625,0.53802490234375,-0.6968994140625,2124,-6989,3076,-3,-11,-8
271863588,-0.4508056640625,0.14556884765625,0.5389404296875,-0.69647216796875,2238,-7081,3067,-3,-10,-7
271873571,-0.4505615234375,0.14453125,0.53985595703125,-0.69622802734375,2360,-7176,3059,-3,-10,-4
271883554,-0.45013427734375,0.1436767578125,0.5406494140625,-0.69598388671875,2477,-7268,3040,-3,-9,-2
271893542,-0.44964599609375,0.14300537109375,0.54132080078125,-0.6959228515625,2563,-7338,3029,-2,-8,0
271903522,-0.4490966796875,0.142578125,0.541748046875,-0.696044921875,2623,-7395,3012,-1,-6,2
271913508,-0.44842529296875,0.14227294921875,0.54205322265625,-0.69635009765625,2650,-7429,2997,1,-5,4
271923489,-0.44781494140625,0.14208984375,0.5419921875,-0.69677734375,2656,-7460,2983,3,-4,4
271933473,-0.44744873046875,0.14178466796875,0.54180908203125,-0.697265625,2649,-7501,2990,5,-3,2
271943457,-0.4473876953125,0.14129638671875,0.54144287109375,-0.69769287109375,2653,-7498,3010,6,-2,-1
271953434,-0.44781494140625,0.14044189453125,0.54095458984375,-0.69793701171875,2640,-7489,3027,8,-1,-6
271963426,-0.44854736328125,0.139404296875,0.5404052734375,-0.69805908203125,2624,-7446,3043,9,-1,-8
271973412,-0.44940185546875,0.138427734375,0.5396728515625,-0.69830322265625,2575,-7361,3047,10,0,-8
271983392,-0.45001220703125,0.1375732421875,0.53887939453125,-0.69873046875,2536,-7263,3036,10,0,-4
271993376,-0.45037841796875,0.13702392578125,0.53790283203125,-0.6993408203125,2479,-7171,3043,11,0,0
272003352,-0.450439453125,0.13653564453125,0.536865234375,-0.7001953125,2439,-7065,3069,10,0,2
272013338,-0.45050048828125,0.13604736328125,0.53594970703125,-0.70098876953125,2389,-6978,3084,10,-1,1
272023321,-0.45068359375,0.13543701171875,0.53509521484375,-0.70159912109375,2338,-6886,3107,9,-1,-2
272033300,-0.45098876953125,0.134765625,0.53436279296875,-0.70208740234375,2293,-6795,3113,8,-2,-4
272043283,-0.451416015625,0.1339111328125,0.5338134765625,-0.702392578125,2274,-6716,3116,7,-2,-5
272053265,-0.4517822265625,0.133056640625,0.533447265625,-0.70257568359375,2289,-6640,3116,5,-2,-5
272063243,-0.45220947265625,0.13226318359375,0.533203125,-0.70269775390625,2340,-6598,3123,4,-3,-5
272073236,-0.45257568359375,0.1314697265625,0.53314208984375,-0.70263671875,2379,-6588,3119,2,-3,-6
272083220,-0.452880859375,0.1307373046875,0.533203125,-0.7025146484375,2418,-6600,3132,1,-3,-5
272093206,-0.4532470703125,0.130126953125,0.53338623046875,-0.7022705078125,2453,-6620,3147,0,-3,-5
272103187,-0.4534912109375,0.129638671875,0.53363037109375,-0.7020263671875,2477,-6668,3145,-1,-2,-4
272113176,-0.45355224609375,0.1292724609375,0.53387451171875,-0.70184326171875,2498,-6702,3134,-2,-3,-3
272123160,-0.45361328125,0.1290283203125,0.5341796875,-0.70166015625,2528,-6739,3124,-2,-2,-2
272133137,-0.45367431640625,0.12884521484375,0.534423828125,-0.70147705078125,2563,-6782,3110,-2,-2,-2
272143114,-0.45367431640625,0.128662109375,0.53466796875,-0.70123291015625,2588,-6798,3101,-2,-1,-2
272153098,-0.4537353515625,0.1285400390625,0.534912109375,-0.7010498046875,2586,-6811,3103,-2,-2,-2
272163080,-0.4537353515625,0.12835693359375,0.53515625,-0.700927734375,2606,-6824,3116,-2,-2,-1
272173063,-0.45379638671875,0.128173828125,0.53533935546875,-0.70074462890625,2619,-6829,3127,-2,-1,-2
272183051,-0.4539794921875,0.1279296875,0.53558349609375,-0.70050048828125,2645,-6832,3143,-2,-1,-4
272193028,-0.454345703125,0.1275634765625,0.53582763671875,-0.70013427734375,2659,-6847,3157,-2,-1,-5
272203013,-0.45489501953125,0.12713623046875,0.5361328125,-0.69964599609375,2695,-6869,3173,-2,0,-7
272212995,-0.45562744140625,0.12664794921875,0.53643798828125,-0.69903564453125,2737,-6902,3188,-3,0,-8
272225995,-0.45635986328125,0.12628173828125,0.53680419921875,-0.6983642578125,2785,-6917,3182,-3,1,-8
272232957,-0.45697021484375,0.1260986328125,0.53717041015625,-0.69769287109375,2795,-6963,3170,-5,1,-6
272242944,-0.45733642578125,0.126220703125,0.5374755859375,-0.69720458984375,2805,-7015,3136,-4,2,-3
272252926,-0.45758056640625,0.12646484375,0.5377197265625,-0.69677734375,2818,-7084,3130,-4,2,-1
272262915,-0.45770263671875,0.1268310546875,0.53790283203125,-0.69647216796875,2814,-7130,3129,-3,2,0
272272894,-0.45782470703125,0.12725830078125,0.53802490234375,-0.69622802734375,2809,-7189,3120,-3,3,0
272282878,-0.45806884765625,0.127685546875,0.53802490234375,-0.696044921875,2793,-7214,3113,-2,3,0
272292862,-0.458251953125,0.12811279296875,0.5379638671875,-0.69586181640625,2780,-7227,3088,-1,4,0
272302847,-0.45855712890625,0.1285400390625,0.53778076171875,-0.69573974609375,2756,-7213,3069,0,5,0
272312827,-0.45880126953125,0.1290283203125,0.53753662109375,-0.6956787109375,2730,-7200,3059,0,5,1
272322809,-0.4591064453125,0.1295166015625,0.537109375,-0.69573974609375,2675,-7171,3053,1,6,0
272332791,-0.45947265625,0.12994384765625,0.53662109375,-0.69573974609375,2632,-7147,3066,2,5,0
272342772,-0.45989990234375,0.13031005859375,0.5360107421875,-0.69586181640625,2567,-7111,3094,3,6,-1
272352768,-0.46038818359375,0.13067626953125,0.535400390625,-0.69598388671875,2519,-7048,3131,3,5,0
272362746,-0.46075439453125,0.1309814453125,0.53472900390625,-0.6961669921875,2470,-6981,3157,3,5,0
272372722,-0.46099853515625,0.13134765625,0.5340576171875,-0.6964111328125,2399,-6918,3197,2,4,1
272382708,-0.461181640625,0.1317138671875,0.53350830078125,-0.69671630859375,2349,-6857,3217,2,3,1
272392692,-0.46136474609375,0.1319580078125,0.532958984375,-0.6968994140625,2320,-6803,3247,2,3,0
272402678,-0.46160888671875,0.13214111328125,0.5325927734375,-0.697021484375,2302,-6756,3267,1,2,-1
272412657,-0.4619140625,0.13226318359375,0.53228759765625,-0.697021484375,2286,-6707,3290,0,2,-2
272422640,-0.4622802734375,0.13226318359375,0.5321044921875,-0.6968994140625,2279,-6673,3316,-1,2,-3
272432621,-0.46270751953125,0.13226318359375,0.53204345703125,-0.69671630859375,2296,-6658,3311,-2,1,-3
272442604,-0.4630126953125,0.13238525390625,0.53204345703125,-0.69647216796875,2306,-6638,3301,-3,1,-3
272452584,-0.46331787109375,0.132568359375,0.53216552734375,-0.69610595703125,2337,-6635,3285,-4,1,-2
272462569,-0.46356201171875,0.1328125,0.5323486328125,-0.69573974609375,2362,-6678,3251,-4,2,-2
272472551,-0.46380615234375,0.13311767578125,0.5325927734375,-0.69537353515625,2392,-6739,3246,-5,2,-2
272482531,-0.464111328125,0.13336181640625,0.53289794921875,-0.69488525390625,2433,-6793,3234,-5,2,-3
272492514,-0.4644775390625,0.13372802734375,0.533203125,-0.6943359375,2450,-6833,3230,-5,2,-3
272502498,-0.46478271484375,0.13409423828125,0.533447265625,-0.69384765625,2456,-6860,3231,-5,3,-3
272512480,-0.465087890625,0.134521484375,0.53363037109375,-0.69342041015625,2462,-6881,3216,-5,3,-2
272522463,-0.4654541015625,0.13494873046875,0.53387451171875,-0.69293212890625,2484,-6939,3201,-5,3,-3
272532449,-0.4659423828125,0.13525390625,0.5340576171875,-0.6923828125,2528,-7009,3209,-4,4,-5
272542435,-0.4666748046875,0.13543701171875,0.5343017578125,-0.69171142578125,2554,-7086,3204,-4,4,-7
272552418,-0.46746826171875,0.135498046875,0.53448486328125,-0.69097900390625,2589,-7142,3198,-4,4,-8
