subject,Two-hands and jerked
arm,neither
label,0
hz,100.17082491070246
time,5.051371

timestamp_us,q0,q1,q2,q3,ax,ay,az,gx,gy,gz
257700244,0.594482421875,-0.5537109375,-0.43994140625,0.3826904296875,1015,-8274,267,1,9,-3
257710226,0.59539794921875,-0.55377197265625,-0.4393310546875,0.38177490234375,1062,-8228,255,1,10,-3
257720208,0.5963134765625,-0.553955078125,-0.438720703125,0.380859375,1102,-8179,243,0,11,-3
257730189,0.5972900390625,-0.55419921875,-0.43804931640625,0.3797607421875,1153,-8124,238,0,12,-3
257740182,0.59832763671875,-0.55450439453125,-0.43731689453125,0.3785400390625,1221,-8059,240,-1,13,-3
257750162,0.599365234375,-0.55487060546875,-0.43658447265625,0.377197265625,1317,-7976,246,-1,15,-3
257760141,0.6004638671875,-0.555419921875,-0.43572998046875,0.3756103515625,1418,-7889,273,-2,17,-3
257770117,0.6016845703125,-0.5560302734375,-0.43487548828125,0.37384033203125,1540,-7835,302,-3,19,-3
257780100,0.60296630859375,-0.55682373046875,-0.43377685546875,0.37176513671875,1648,-7799,365,-4,22,-3
257790083,0.60443115234375,-0.5577392578125,-0.4324951171875,0.3695068359375,1743,-7789,430,-5,25,-3
257800065,0.6060791015625,-0.558837890625,-0.4310302734375,0.36688232421875,1836,-7772,495,-6,29,-4
257810051,0.60797119140625,-0.56005859375,-0.42938232421875,0.36383056640625,1929,-7748,549,-7,33,-5
257820031,0.610107421875,-0.56134033203125,-0.42767333984375,0.36016845703125,2035,-7725,603,-8,38,-8
257830015,0.6126708984375,-0.56280517578125,-0.4256591796875,0.35601806640625,2156,-7713,651,-8,43,-9
257839998,0.61541748046875,-0.56439208984375,-0.42340087890625,0.35125732421875,2265,-7690,657,-9,48,-10
257849987,0.618408203125,-0.56634521484375,-0.4207763671875,0.34619140625,2335,-7686,629,-9,54,-9
257859966,0.6214599609375,-0.56866455078125,-0.41754150390625,0.34075927734375,2372,-7697,540,-9,59,-8
257869948,0.62457275390625,-0.5714111328125,-0.4136962890625,0.3350830078125,2385,-7763,407,-9,65,-4
257879938,0.62762451171875,-0.57470703125,-0.408935546875,0.3294677734375,2400,-7835,228,-8,71,3
257889919,0.63067626953125,-0.57855224609375,-0.40313720703125,0.32403564453125,2408,-7890,22,-7,77,11
257899900,0.63360595703125,-0.5830078125,-0.39617919921875,0.31890869140625,2437,-7933,-204,-5,84,21
257909883,0.63641357421875,-0.588134765625,-0.3878173828125,0.31414794921875,2514,-7988,-476,-2,91,33
257919871,0.63909912109375,-0.593994140625,-0.37786865234375,0.30975341796875,2616,-8049,-768,0,99,47
257929850,0.64166259765625,-0.60052490234375,-0.36614990234375,0.30584716796875,2701,-8128,-1075,3,108,61
257939835,0.6441650390625,-0.60772705078125,-0.3525390625,0.3023681640625,2697,-8205,-1367,7,117,75
257949819,0.646728515625,-0.61529541015625,-0.3370361328125,0.29925537109375,2642,-8253,-1650,12,126,87
257959803,0.6492919921875,-0.6231689453125,-0.31976318359375,0.29638671875,2521,-8304,-1895,17,136,97
257969786,0.652099609375,-0.6309814453125,-0.30078125,0.2935791015625,2348,-8358,-2129,23,144,103
257979772,0.65509033203125,-0.6385498046875,-0.2803955078125,0.2906494140625,2117,-8433,-2368,30,152,108
257989756,0.6583251953125,-0.645751953125,-0.25872802734375,0.28753662109375,1822,-8544,-2586,37,159,111
257999741,0.661865234375,-0.65234375,-0.23602294921875,0.2840576171875,1477,-8667,-2810,45,164,111
258009721,0.66571044921875,-0.65814208984375,-0.21270751953125,0.28009033203125,1105,-8790,-3036,52,169,108
258019705,0.66986083984375,-0.6630859375,-0.18896484375,0.27557373046875,702,-8855,-3247,60,172,103
258029688,0.6744384765625,-0.6669921875,-0.1651611328125,0.27020263671875,308,-8855,-3403,67,174,95
258039670,0.67950439453125,-0.6697998046875,-0.14154052734375,0.26385498046875,-41,-8768,-3501,74,176,85
258049653,0.68505859375,-0.6715087890625,-0.11834716796875,0.25634765625,-348,-8619,-3562,80,178,73
258059635,0.69110107421875,-0.67218017578125,-0.095703125,0.24761962890625,-654,-8331,-3544,85,180,61
258069620,0.69757080078125,-0.67193603515625,-0.07373046875,0.23760986328125,-1966,-6334,-3286,88,180,39
258079602,0.704345703125,-0.671142578125,-0.05523681640625,0.22442626953125,-2813,-5875,-3063,76,175,-32
258089582,0.71160888671875,-0.67041015625,-0.042724609375,0.20587158203125,-3359,-5777,-2844,67,171,-75
258099564,0.71856689453125,-0.66961669921875,-0.033203125,0.18475341796875,-3574,-5825,-2656,60,168,-103
258109547,0.72503662109375,-0.6689453125,-0.02587890625,0.16180419921875,-3517,-5982,-2439,52,166,-118
258119531,0.7305908203125,-0.66839599609375,-0.01953125,0.13812255859375,-3338,-6210,-2215,45,165,-122
258129513,0.73529052734375,-0.6678466796875,-0.01324462890625,0.1146240234375,-3047,-6452,-2000,39,164,-116
258139497,0.739013671875,-0.66741943359375,-0.00653076171875,0.09185791015625,-2720,-6715,-1801,34,164,-106
258149481,0.7418212890625,-0.6668701171875,0.001220703125,0.0701904296875,-2432,-6936,-1626,30,163,-91
258159465,0.74395751953125,-0.66632080078125,0.01007080078125,0.0498046875,-2195,-7092,-1438,27,163,-78
258169449,0.7454833984375,-0.66552734375,0.01983642578125,0.03057861328125,-2008,-7192,-1233,24,164,-66
258179435,0.74639892578125,-0.6646728515625,0.030517578125,0.01239013671875,-1926,-7283,-1022,21,163,-55
258189419,0.74688720703125,-0.66357421875,0.04193115234375,-0.00482177734375,-1948,-7400,-759,18,162,-47
258199402,0.7470703125,-0.6622314453125,0.053955078125,-0.02105712890625,-2017,-7471,-505,16,161,-38
258209379,0.746826171875,-0.66064453125,0.0665283203125,-0.036376953125,-2149,-7474,-300,15,159,-32
258219362,0.74627685546875,-0.658935546875,0.079345703125,-0.0509033203125,-2389,-7304,-128,13,156,-28
258229344,0.74530029296875,-0.65716552734375,0.0919189453125,-0.06494140625,-2678,-7205,-31,10,151,-30
258239329,0.7437744140625,-0.65557861328125,0.10394287109375,-0.078857421875,-2904,-7222,6,8,147,-33
258249312,0.74188232421875,-0.654052734375,0.11529541015625,-0.09246826171875,-3026,-7163,16,5,142,-35
258259294,0.7396240234375,-0.65264892578125,0.1259765625,-0.1058349609375,-3082,-7174,56,3,137,-37
258269273,0.737060546875,-0.6512451171875,0.13604736328125,-0.118896484375,-3081,-7268,160,1,132,-38
258279256,0.73431396484375,-0.64984130859375,0.14556884765625,-0.13153076171875,-3073,-7409,307,-1,127,-38
258289241,0.7314453125,-0.64837646484375,0.1546630859375,-0.1436767578125,-3055,-7539,435,-2,121,-36
258299226,0.72845458984375,-0.64697265625,0.1634521484375,-0.1551513671875,-3019,-7618,510,-3,116,-35
258309208,0.725341796875,-0.6456298828125,0.17181396484375,-0.16607666015625,-2963,-7635,525,-5,111,-33
258319188,0.7220458984375,-0.64434814453125,0.1796875,-0.17645263671875,-2876,-7617,521,-6,106,-32
258329181,0.71868896484375,-0.6431884765625,0.18719482421875,-0.18634033203125,-2752,-7608,553,-7,101,-31
258339165,0.71533203125,-0.64202880859375,0.1943359375,-0.19586181640625,-2605,-7616,612,-8,97,-31
258349141,0.7119140625,-0.640869140625,0.20098876953125,-0.20501708984375,-2448,-7584,687,-8,92,-30
258359116,0.70843505859375,-0.63983154296875,0.207275390625,-0.2138671875,-2366,-7532,745,-10,89,-31
258369099,0.7047119140625,-0.63909912109375,0.2130126953125,-0.22259521484375,-2324,-7398,727,-12,84,-35
258379082,0.70074462890625,-0.6387939453125,0.218017578125,-0.23114013671875,-2257,-7247,721,-14,79,-39
258389066,0.696533203125,-0.6387939453125,0.22235107421875,-0.2393798828125,-2215,-7176,750,-17,73,-42
258399051,0.69219970703125,-0.6392822265625,0.2259521484375,-0.247314453125,-2172,-7172,788,-20,67,-45
258409033,0.687744140625,-0.64007568359375,0.2288818359375,-0.25482177734375,-2117,-7163,854,-23,60,-47
258419016,0.6832275390625,-0.6412353515625,0.231201171875,-0.2618408203125,-1997,-7208,919,-25,53,-47
258428998,0.67877197265625,-0.64263916015625,0.233154296875,-0.2681884765625,-1808,-7281,993,-27,47,-43
258438988,0.674560546875,-0.6441650390625,0.235107421875,-0.27349853515625,-1549,-7354,1037,-28,41,-34
258448965,0.67071533203125,-0.64556884765625,0.23748779296875,-0.2774658203125,-1330,-7411,1102,-29,36,-22
258458947,0.66741943359375,-0.646728515625,0.24066162109375,-0.27984619140625,-1152,-7497,1165,-31,32,-6
258468931,0.664794921875,-0.64764404296875,0.24462890625,-0.28070068359375,-935,-7656,1221,-31,27,8
258478912,0.66259765625,-0.6483154296875,0.2491455078125,-0.2802734375,-694,-7851,1299,-31,24,20
258488894,0.66094970703125,-0.648681640625,0.25390625,-0.27911376953125,-413,-8031,1332,-29,21,28
258498877,0.65948486328125,-0.64892578125,0.2587890625,-0.277587890625,-77,-8205,1336,-28,20,32
258508861,0.658203125,-0.64892578125,0.26348876953125,-0.276123046875,303,-8307,1367,-26,20,34
258518843,0.65704345703125,-0.6488037109375,0.26800537109375,-0.27490234375,617,-8411,1434,-23,21,33
258528825,0.65594482421875,-0.64837646484375,0.27227783203125,-0.27423095703125,848,-8547,1581,-21,23,28
258538807,0.6549072265625,-0.64776611328125,0.27587890625,-0.2745361328125,957,-8728,1703,-17,25,19
258548790,0.6536865234375,-0.647216796875,0.27862548828125,-0.27606201171875,1037,-8955,1805,-13,27,7
258558773,0.65234375,-0.64654541015625,0.280517578125,-0.27874755859375,1118,-9170,1881,-9,29,-4
258568762,0.65093994140625,-0.64581298828125,0.28155517578125,-0.28271484375,1229,-9338,1925,-4,31,-14
258578749,0.6495361328125,-0.6448974609375,0.28192138671875,-0.28765869140625,1311,-9417,1933,1,34,-21
258588724,0.64825439453125,-0.64361572265625,0.28204345703125,-0.2933349609375,1345,-9401,1930,6,37,-26
258598707,0.64703369140625,-0.6419677734375,0.281982421875,-0.299560546875,1311,-9354,1878,11,40,-29
258608691,0.6458740234375,-0.63995361328125,0.28192138671875,-0.30621337890625,1259,-9302,1794,15,42,-31
258618675,0.64483642578125,-0.63763427734375,0.28173828125,-0.3133544921875,1261,-9253,1750,19,45,-33
258628657,0.64385986328125,-0.63494873046875,0.281494140625,-0.32098388671875,1321,-9196,1758,22,48,-35
258638641,0.64288330078125,-0.6319580078125,0.28125,-0.32904052734375,1385,-9104,1788,24,51,-36
258648624,0.641845703125,-0.62872314453125,0.281005859375,-0.33740234375,1458,-9008,1780,26,54,-37
258658608,0.6407470703125,-0.62518310546875,0.28131103515625,-0.345703125,1524,-8997,1683,26,57,-32
258668591,0.6396484375,-0.621337890625,0.28240966796875,-0.353515625,1518,-9076,1527,26,60,-24
258678574,0.6387939453125,-0.6171875,0.2845458984375,-0.360595703125,1435,-9139,1349,26,61,-15
258688557,0.63800048828125,-0.6129150390625,0.28741455078125,-0.366943359375,1326,-9095,1226,23,61,-9
258698542,0.63714599609375,-0.608642578125,0.29058837890625,-0.37298583984375,1207,-8957,1189,21,61,-8
258708524,0.63604736328125,-0.6046142578125,0.29376220703125,-0.37890625,1091,-8791,1255,17,61,-9
258718506,0.63470458984375,-0.6007080078125,0.2967529296875,-0.38494873046875,966,-8640,1385,14,60,-13
258728489,0.633056640625,-0.5970458984375,0.29949951171875,-0.39117431640625,827,-8493,1552,12,60,-17
258738471,0.631103515625,-0.59375,0.302001953125,-0.39752197265625,670,-8329,1709,10,58,-22
258748455,0.62884521484375,-0.59063720703125,0.30419921875,-0.40399169921875,528,-8143,1851,8,57,-26
258758436,0.62628173828125,-0.58782958984375,0.30621337890625,-0.410400390625,448,-7957,1993,5,56,-28
258768428,0.62353515625,-0.58526611328125,0.30816650390625,-0.416748046875,467,-7889,2126,3,55,-28
258778408,0.62066650390625,-0.5828857421875,0.31011962890625,-0.42291259765625,540,-7896,2224,0,54,-26
258788393,0.61767578125,-0.5806884765625,0.31231689453125,-0.42864990234375,592,-7953,2216,-2,53,-24
258798367,0.61456298828125,-0.57867431640625,0.31488037109375,-0.43389892578125,609,-8006,2130,-6,52,-21
258808351,0.61138916015625,-0.57696533203125,0.3179931640625,-0.43841552734375,662,-7999,2028,-10,50,-14
258818335,0.6082763671875,-0.5753173828125,0.32177734375,-0.442138671875,765,-7898,1940,-15,50,-6
258828322,0.605224609375,-0.57373046875,0.3262939453125,-0.445068359375,910,-7727,1871,-20,50,3
258838299,0.6021728515625,-0.57220458984375,0.3316650390625,-0.4471435546875,1044,-7531,1794,-25,50,12
258848282,0.59912109375,-0.57061767578125,0.33795166015625,-0.44854736328125,1126,-7370,1683,-30,52,19
258858265,0.59588623046875,-0.5692138671875,0.3450927734375,-0.44921875,1145,-7216,1500,-36,53,25
258868245,0.59234619140625,-0.56793212890625,0.35308837890625,-0.4493408203125,1126,-7066,1299,-42,54,30
258878238,0.5885009765625,-0.5667724609375,0.36187744140625,-0.44891357421875,1090,-6855,1086,-48,56,34
258888220,0.5841064453125,-0.56585693359375,0.371337890625,-0.44805908203125,1040,-6637,859,-55,59,37
258898205,0.5791015625,-0.56512451171875,0.38165283203125,-0.44677734375,968,-6403,555,-61,62,40
258908191,0.5736083984375,-0.56439208984375,0.39288330078125,-0.44500732421875,865,-6238,169,-68,66,45
258918178,0.56756591796875,-0.563720703125,0.40521240234375,-0.442626953125,774,-6148,-286,-73,70,51
258928161,0.56097412109375,-0.56292724609375,0.41845703125,-0.439697265625,713,-6070,-789,-79,74,55
258938138,0.5537109375,-0.5621337890625,0.43243408203125,-0.4364013671875,582,-5906,-1320,-83,78,57
258948112,0.54571533203125,-0.56121826171875,0.44696044921875,-0.4329833984375,302,-5641,-1802,-87,83,56
258958096,0.5369873046875,-0.56024169921875,0.4619140625,-0.42938232421875,71,-5325,-2184,-91,86,54
258968080,0.52734375,-0.5594482421875,0.476806640625,-0.4261474609375,51,-4945,-2435,-96,91,49
258978061,0.516357421875,-0.55889892578125,0.4915771484375,-0.42352294921875,155,-4591,-2605,-101,97,42
258988051,0.5040283203125,-0.55865478515625,0.50628662109375,-0.42138671875,163,-4402,-2814,-106,104,34
258998029,0.49041748046875,-0.55841064453125,0.52117919921875,-0.4195556640625,152,-4522,-3109,-110,111,30
259008013,0.47601318359375,-0.55767822265625,0.53656005859375,-0.417724609375,186,-4921,-3468,-112,118,34
259017996,0.46142578125,-0.5556640625,0.55267333984375,-0.41571044921875,272,-5556,-3896,-110,125,45
259027985,0.44708251953125,-0.5518798828125,0.56964111328125,-0.41363525390625,466,-6358,-4323,-104,133,62
259037962,0.4334716796875,-0.54547119140625,0.5875244140625,-0.41156005859375,686,-7254,-4689,-95,141,84
259047945,0.4210205078125,-0.5361328125,0.60614013671875,-0.40985107421875,870,-8138,-4903,-81,149,105
259057927,0.40966796875,-0.5238037109375,0.625,-0.40887451171875,930,-8885,-4997,-65,157,120
259067909,0.39923095703125,-0.50909423828125,0.6434326171875,-0.40911865234375,787,-9427,-5028,-47,164,126
259077895,0.38946533203125,-0.49267578125,0.66094970703125,-0.41070556640625,395,-9791,-5101,-29,169,125
259087878,0.38037109375,-0.47515869140625,0.6771240234375,-0.41357421875,-196,-9970,-5252,-11,171,119
259097864,0.3717041015625,-0.457275390625,0.691650390625,-0.41754150390625,-960,-10036,-5547,5,169,107
259107844,0.36346435546875,-0.43975830078125,0.7042236328125,-0.42254638671875,-1769,-10017,-5856,19,163,91
259117826,0.3558349609375,-0.42333984375,0.7147216796875,-0.42816162109375,-2653,-9961,-6048,29,152,74
259127811,0.34930419921875,-0.408447265625,0.72296142578125,-0.43414306640625,-3624,-9739,-5880,35,135,57
259137793,0.34429931640625,-0.39569091796875,0.72900390625,-0.43988037109375,-4776,-9263,-5365,36,114,34
259147773,0.34014892578125,-0.38671875,0.732421875,-0.4453125,-5979,-8736,-4675,32,88,-2
259157760,0.3367919921875,-0.382568359375,0.7330322265625,-0.450439453125,-7038,-8366,-3949,25,58,-40
259167744,0.33453369140625,-0.38287353515625,0.7313232421875,-0.45458984375,-7812,-8135,-3401,17,25,-64
259177717,0.33453369140625,-0.38623046875,0.72821044921875,-0.45672607421875,-8404,-7959,-3062,9,-11,-68
259187694,0.3377685546875,-0.3912353515625,0.7244873046875,-0.4560546875,-8880,-7816,-2926,3,-47,-58
259197680,0.3447265625,-0.3973388671875,0.72015380859375,-0.452392578125,-9212,-7767,-2988,-2,-85,-44
259207663,0.35498046875,-0.4046630859375,0.71514892578125,-0.4459228515625,-9315,-7809,-3236,-6,-121,-33
259217644,0.3680419921875,-0.41339111328125,0.7088623046875,-0.43719482421875,-9143,-7974,-3671,-7,-155,-27
259227625,0.3831787109375,-0.4237060546875,0.70111083984375,-0.42669677734375,-8710,-8240,-4252,-5,-184,-24
259237611,0.39984130859375,-0.435546875,0.6915283203125,-0.4149169921875,-8042,-8531,-4909,-2,-211,-26
259247598,0.41748046875,-0.44891357421875,0.6798095703125,-0.40252685546875,-7228,-8837,-5577,3,-232,-33
259257580,0.4356689453125,-0.46368408203125,0.6656494140625,-0.3900146484375,-6281,-9209,-6226,10,-251,-42
259267562,0.45416259765625,-0.479248046875,0.64910888671875,-0.37774658203125,-5248,-9626,-6801,20,-263,-49
259277546,0.47283935546875,-0.4949951171875,0.63037109375,-0.3660888671875,-4183,-9993,-7295,31,-272,-55
259287530,0.491455078125,-0.5106201171875,0.609619140625,-0.35516357421875,-3151,-10181,-7671,44,-277,-63
259297516,0.5096435546875,-0.52606201171875,0.586669921875,-0.345458984375,-2127,-10197,-7921,56,-278,-74
259307499,0.527099609375,-0.54107666015625,0.561767578125,-0.33734130859375,-1138,-10052,-8023,68,-274,-87
259317481,0.5435791015625,-0.55548095703125,0.53521728515625,-0.33087158203125,-185,-9751,-8010,80,-267,-98
259327465,0.55902099609375,-0.56903076171875,0.5074462890625,-0.32586669921875,724,-9216,-7890,88,-258,-107
259337451,0.5731201171875,-0.5816650390625,0.47882080078125,-0.32232666015625,1586,-8627,-7649,93,-245,-115
259347437,0.58587646484375,-0.59307861328125,0.45013427734375,-0.32000732421875,2223,-7974,-7287,96,-230,-118
259357422,0.59735107421875,-0.60302734375,0.4219970703125,-0.3184814453125,2615,-7323,-6819,96,-212,-120
259367406,0.6075439453125,-0.611572265625,0.3948974609375,-0.3177490234375,3124,-6727,-6173,94,-193,-114
259377381,0.61676025390625,-0.6181640625,0.369873046875,-0.31719970703125,3720,-6155,-5405,89,-172,-95
259387364,0.625244140625,-0.622802734375,0.34808349609375,-0.316162109375,4347,-5642,-4573,81,-150,-67
259397350,0.633056640625,-0.6256103515625,0.3302001953125,-0.3143310546875,4884,-5223,-3765,71,-126,-39
259407331,0.639892578125,-0.62701416015625,0.3160400390625,-0.312255859375,5252,-4864,-3019,60,-101,-19
259417314,0.6453857421875,-0.627685546875,0.304931640625,-0.3106689453125,5584,-4593,-2309,49,-76,-10
259427298,0.6492919921875,-0.62786865234375,0.29644775390625,-0.31048583984375,5930,-4423,-1657,37,-49,-7
259437280,0.65130615234375,-0.62774658203125,0.2904052734375,-0.31201171875,6264,-4357,-1112,26,-21,-6
259447263,0.651611328125,-0.62738037109375,0.28704833984375,-0.3153076171875,6532,-4381,-683,16,8,-5
259457240,0.65008544921875,-0.6265869140625,0.28656005859375,-0.32037353515625,6704,-4507,-399,6,37,-4
259467232,0.64691162109375,-0.62530517578125,0.2889404296875,-0.3271484375,6798,-4734,-229,-3,67,-2
259477209,0.6419677734375,-0.6234130859375,0.294189453125,-0.33563232421875,6772,-5014,-217,-11,96,-1
259487189,0.63525390625,-0.6209716796875,0.302001953125,-0.34588623046875,6678,-5353,-358,-17,125,-3
259497184,0.626708984375,-0.61785888671875,0.3121337890625,-0.35797119140625,6481,-5668,-646,-22,152,-7
259507173,0.6162109375,-0.61395263671875,0.32421875,-0.37176513671875,6177,-5919,-1059,-27,178,-11
259517153,0.60394287109375,-0.6092529296875,0.33819580078125,-0.38690185546875,5779,-6103,-1555,-31,200,-15
259527125,0.5899658203125,-0.60357666015625,0.353759765625,-0.40301513671875,5301,-6236,-2111,-34,221,-16
259537105,0.57452392578125,-0.5968017578125,0.37091064453125,-0.41973876953125,4802,-6367,-2666,-37,238,-15
259547090,0.5577392578125,-0.5887451171875,0.38934326171875,-0.43670654296875,4278,-6574,-3215,-40,254,-12
259557071,0.539794921875,-0.5792236328125,0.40911865234375,-0.45355224609375,3732,-6847,-3781,-42,268,-7
259567054,0.52081298828125,-0.56829833984375,0.42987060546875,-0.4700927734375,3171,-7177,-4342,-43,280,-3
259577041,0.5008544921875,-0.55584716796875,0.4512939453125,-0.486328125,2614,-7577,-4868,-43,289,0
259587019,0.47998046875,-0.54205322265625,0.47296142578125,-0.5020751953125,2059,-7960,-5289,-43,297,2
259597001,0.45843505859375,-0.52703857421875,0.494384765625,-0.51739501953125,1500,-8305,-5644,-42,301,2
259606991,0.4364013671875,-0.51080322265625,0.5155029296875,-0.53192138671875,873,-8626,-5905,-41,303,3
259616976,0.4140625,-0.49371337890625,0.53607177734375,-0.54541015625,181,-8912,-6081,-42,302,4
259626952,0.39190673828125,-0.47576904296875,0.55596923828125,-0.55767822265625,-537,-9101,-6167,-42,296,7
259636936,0.37042236328125,-0.45721435546875,0.5751953125,-0.56829833984375,-1297,-9172,-6201,-42,286,14
259646921,0.35009765625,-0.43817138671875,0.59375,-0.57696533203125,-2098,-9160,-6140,-43,273,22
259656905,0.33160400390625,-0.41876220703125,0.611572265625,-0.5836181640625,-2980,-9075,-5979,-44,257,32
259666890,0.31536865234375,-0.39935302734375,0.6285400390625,-0.58819580078125,-3901,-8936,-5701,-45,235,41
259676877,0.301513671875,-0.38031005859375,0.64459228515625,-0.5906982421875,-4815,-8765,-5311,-47,210,50
259686856,0.29034423828125,-0.36212158203125,0.65960693359375,-0.5911865234375,-5686,-8564,-4832,-50,183,58
259696838,0.2821044921875,-0.34515380859375,0.673583984375,-0.58953857421875,-6529,-8342,-4289,-55,152,65
259706821,0.277099609375,-0.3297119140625,0.68658447265625,-0.58575439453125,-7395,-8078,-3731,-59,119,71
259716803,0.2755126953125,-0.316162109375,0.6986083984375,-0.5797119140625,-8299,-7754,-3220,-64,82,76
259726785,0.27740478515625,-0.304931640625,0.70953369140625,-0.571533203125,-9202,-7485,-2857,-69,44,77
259736773,0.2823486328125,-0.29681396484375,0.7191162109375,-0.56121826171875,-10033,-7299,-2704,-73,3,71
259746755,0.29010009765625,-0.29254150390625,0.72705078125,-0.5491943359375,-10681,-7216,-2741,-76,-38,59
259756736,0.30010986328125,-0.292724609375,0.73291015625,-0.53582763671875,-11092,-7281,-2914,-78,-79,40
259766712,0.311767578125,-0.29791259765625,0.736083984375,-0.521728515625,-11205,-7465,-3221,-78,-120,14
259776694,0.32452392578125,-0.30853271484375,0.73626708984375,-0.50738525390625,-10991,-7738,-3635,-75,-158,-17
259786674,0.33795166015625,-0.32427978515625,0.7330322265625,-0.49322509765625,-10483,-8114,-4147,-69,-193,-48
259796660,0.3519287109375,-0.34454345703125,0.72613525390625,-0.479736328125,-9717,-8613,-4691,-59,-224,-78
259806643,0.36639404296875,-0.368408203125,0.71533203125,-0.46728515625,-8750,-9185,-5304,-44,-250,-105
259816626,0.381103515625,-0.3948974609375,0.700439453125,-0.45623779296875,-7526,-9750,-5921,-24,-271,-128
259826611,0.39593505859375,-0.4228515625,0.68157958984375,-0.447021484375,-6119,-10262,-6509,0,-284,-147
259836594,0.4107666015625,-0.45135498046875,0.65887451171875,-0.4398193359375,-4460,-10738,-7006,26,-293,-161
259846577,0.42559814453125,-0.47900390625,0.6328125,-0.4346923828125,-2720,-11127,-7287,53,-293,-165
259856561,0.44091796875,-0.50421142578125,0.60430908203125,-0.431396484375,-1053,-11432,-7236,79,-287,-159
259866545,0.45672607421875,-0.52606201171875,0.57452392578125,-0.42962646484375,506,-11499,-6988,102,-274,-147
259876527,0.4725341796875,-0.54449462890625,0.544189453125,-0.4290771484375,1892,-11169,-6615,122,-257,-134
259886509,0.488037109375,-0.5594482421875,0.51416015625,-0.4295654296875,3008,-10340,-6102,135,-237,-122
259896497,0.50262451171875,-0.5712890625,0.485107421875,-0.430908203125,3965,-9095,-5493,141,-212,-110
259906480,0.51605224609375,-0.58026123046875,0.457763671875,-0.43292236328125,4874,-7771,-4795,140,-185,-94
259916463,0.528076171875,-0.586669921875,0.43304443359375,-0.43524169921875,5698,-6423,-4035,132,-158,-75
259926449,0.5384521484375,-0.59088134765625,0.4112548828125,-0.43798828125,6580,-5134,-3093,120,-128,-59
259936435,0.5469970703125,-0.59320068359375,0.39263916015625,-0.44134521484375,7481,-4048,-2059,104,-97,-42
259946418,0.55340576171875,-0.59393310546875,0.37762451171875,-0.4454345703125,8353,-3183,-1099,86,-64,-27
259956400,0.5574951171875,-0.59332275390625,0.366455078125,-0.45037841796875,9143,-2635,-291,67,-29,-15
259966380,0.55908203125,-0.59161376953125,0.35906982421875,-0.4566650390625,9836,-2430,333,49,7,-9
259976358,0.557861328125,-0.5888671875,0.3553466796875,-0.4644775390625,10347,-2436,779,31,44,-6
259986341,0.55389404296875,-0.58514404296875,0.355224609375,-0.4739990234375,10636,-2555,1055,14,82,-5
259996323,0.54730224609375,-0.5802001953125,0.3587646484375,-0.48486328125,10734,-2773,1123,-1,117,-2
260006306,0.538330078125,-0.573974609375,0.365966796875,-0.496826171875,10614,-3084,964,-15,150,3
260016286,0.527099609375,-0.56640625,0.3765869140625,-0.50946044921875,10263,-3512,571,-26,181,7
260026272,0.5137939453125,-0.557373046875,0.39019775390625,-0.52264404296875,9673,-4051,31,-36,209,8
260036256,0.49859619140625,-0.546875,0.40618896484375,-0.53607177734375,8844,-4705,-615,-44,231,8
260046243,0.48162841796875,-0.53497314453125,0.42401123046875,-0.54962158203125,7845,-5399,-1321,-50,251,7
260056226,0.4632568359375,-0.52166748046875,0.44329833984375,-0.56280517578125,6710,-6006,-2030,-55,264,7
260066208,0.4439697265625,-0.50701904296875,0.46368408203125,-0.57513427734375,5466,-6481,-2685,-60,274,11
260076190,0.42425537109375,-0.490966796875,0.485107421875,-0.58624267578125,4177,-6837,-3245,-64,279,18
260086181,0.40478515625,-0.4735107421875,0.507080078125,-0.59564208984375,2928,-7176,-3674,-67,278,30
260096164,0.38623046875,-0.4547119140625,0.52947998046875,-0.60308837890625,1683,-7403,-4002,-69,274,44
260106140,0.36907958984375,-0.4345703125,0.552001953125,-0.60845947265625,454,-7582,-4238,-70,266,60
260116119,0.35369873046875,-0.41326904296875,0.57452392578125,-0.611572265625,-747,-7636,-4364,-70,254,78
260126102,0.340576171875,-0.39117431640625,0.59661865234375,-0.6124267578125,-1989,-7525,-4369,-71,237,93
260136087,0.32958984375,-0.36895751953125,0.61798095703125,-0.61102294921875,-3276,-7347,-4262,-72,217,102
260146068,0.320556640625,-0.3472900390625,0.63818359375,-0.60772705078125,-4566,-7161,-4025,-75,195,105
260156054,0.313720703125,-0.3267822265625,0.65704345703125,-0.6025390625,-5828,-7036,-3692,-78,168,106
260166037,0.30926513671875,-0.30792236328125,0.67449951171875,-0.59552001953125,-7020,-6918,-3329,-81,138,106
260176022,0.30706787109375,-0.29144287109375,0.6903076171875,-0.58673095703125,-8102,-6764,-2973,-85,106,100
260186004,0.306884765625,-0.278076171875,0.704345703125,-0.5765380859375,-9001,-6561,-2690,-90,72,88
260195994,0.30816650390625,-0.26885986328125,0.7164306640625,-0.56524658203125,-9631,-6504,-2528,-94,37,68
260205976,0.3104248046875,-0.26458740234375,0.72625732421875,-0.5533447265625,-9948,-6690,-2487,-97,3,41
260218995,0.31317138671875,-0.2657470703125,0.73358154296875,-0.54144287109375,-10000,-7112,-2552,-98,-31,8
260225927,0.3162841796875,-0.27239990234375,0.73809814453125,-0.530029296875,-9810,-7735,-2716,-96,-63,-27
260235907,0.31988525390625,-0.28411865234375,0.7396240234375,-0.51953125,-9439,-8434,-2969,-88,-94,-60
260245890,0.32421875,-0.30029296875,0.73797607421875,-0.50994873046875,-8918,-9116,-3301,-77,-124,-88
260255877,0.32952880859375,-0.31988525390625,0.733154296875,-0.50152587890625,-8266,-9741,-3698,-62,-150,-111
260265857,0.3359375,-0.34222412109375,0.72503662109375,-0.49432373046875,-7476,-10269,-4099,-43,-175,-129
260275843,0.3436279296875,-0.36651611328125,0.713623046875,-0.48822021484375,-6569,-10647,-4457,-24,-196,-143
260285828,0.3525390625,-0.3917236328125,0.69903564453125,-0.48333740234375,-5506,-10873,-4783,-2,-213,-151
260295812,0.36248779296875,-0.41705322265625,0.6817626953125,-0.47943115234375,-4225,-11004,-5093,19,-224,-151
260305793,0.37353515625,-0.44140625,0.662353515625,-0.47637939453125,-2899,-11134,-5361,40,-230,-144
260315774,0.38592529296875,-0.463623046875,0.6416015625,-0.4737548828125,-1625,-11175,-5568,59,-231,-128
260325766,0.39959716796875,-0.48309326171875,0.62042236328125,-0.47113037109375,-432,-10986,-5692,75,-228,-105
260335750,0.41455078125,-0.49945068359375,0.5997314453125,-0.468017578125,650,-10523,-5690,85,-223,-76
260345732,0.43072509765625,-0.5123291015625,0.5804443359375,-0.4637451171875,1582,-9847,-5547,90,-215,-42
260355710,0.44781494140625,-0.52197265625,0.56317138671875,-0.45806884765625,2334,-9038,-5295,88,-205,-9
260365693,0.46490478515625,-0.5291748046875,0.5479736328125,-0.45111083984375,3003,-8186,-4929,82,-193,14
260375675,0.4810791015625,-0.5350341796875,0.53424072265625,-0.44366455078125,3663,-7390,-4461,72,-180,24
260385660,0.49530029296875,-0.54058837890625,0.52142333984375,-0.4365234375,4321,-6714,-3903,61,-165,21
260395643,0.507080078125,-0.54620361328125,0.5091552734375,-0.43048095703125,5018,-6248,-3311,49,-147,12
260405626,0.5159912109375,-0.552001953125,0.49761962890625,-0.42584228515625,5711,-5945,-2731,37,-125,0
260415608,0.52197265625,-0.55804443359375,0.48681640625,-0.4232177734375,6335,-5750,-2122,26,-101,-15
260425588,0.52490234375,-0.564208984375,0.476806640625,-0.42291259765625,6856,-5703,-1578,16,-75,-31
260435571,0.52490234375,-0.5703125,0.46783447265625,-0.42474365234375,7189,-5724,-1110,7,-48,-45
260445554,0.5223388671875,-0.57598876953125,0.46014404296875,-0.42852783203125,7256,-5774,-784,0,-22,-55
260455542,0.51763916015625,-0.5810546875,0.4541015625,-0.433837890625,7065,-5799,-529,-8,2,-62
260465522,0.51123046875,-0.585205078125,0.44989013671875,-0.440185546875,6619,-5729,-312,-14,24,-63
260475500,0.50372314453125,-0.58819580078125,0.44775390625,-0.447021484375,6025,-5723,-98,-21,43,-58
260485484,0.49554443359375,-0.589599609375,0.44793701171875,-0.4539794921875,5299,-5916,45,-26,61,-47
260495467,0.48736572265625,-0.5892333984375,0.45050048828125,-0.4608154296875,4408,-6324,97,-27,77,-34
260505450,0.47955322265625,-0.58685302734375,0.455078125,-0.46746826171875,3322,-6883,98,-24,91,-21
260515429,0.47247314453125,-0.5823974609375,0.4613037109375,-0.47412109375,2034,-7414,53,-19,102,-11
260525421,0.46630859375,-0.57611083984375,0.46875,-0.4805908203125,575,-7779,17,-12,110,-1
260535407,0.4613037109375,-0.5682373046875,0.47698974609375,-0.48663330078125,-1035,-7915,90,-5,113,7
260545393,0.4573974609375,-0.55914306640625,0.485595703125,-0.4923095703125,-2652,-7964,190,0,111,11
260555368,0.45440673828125,-0.54962158203125,0.49383544921875,-0.49761962890625,-4156,-7987,233,6,107,10
260565352,0.451904296875,-0.5401611328125,0.50140380859375,-0.50262451171875,-5510,-7986,128,11,100,4
260575338,0.4498291015625,-0.53125,0.50799560546875,-0.50732421875,-6692,-7903,-56,15,91,-3
260585319,0.4481201171875,-0.52313232421875,0.513671875,-0.51153564453125,-7709,-7692,-253,17,80,-8
260595303,0.44720458984375,-0.51580810546875,0.51861572265625,-0.5147705078125,-8477,-7349,-399,16,67,-7
260605293,0.44720458984375,-0.50921630859375,0.52325439453125,-0.51666259765625,-8939,-6945,-481,13,52,1
260615269,0.4486083984375,-0.50311279296875,0.52789306640625,-0.5167236328125,-9054,-6540,-487,8,36,15
260625256,0.451416015625,-0.497314453125,0.53289794921875,-0.51470947265625,-8848,-6330,-549,2,20,34
260635242,0.45562744140625,-0.49188232421875,0.53839111328125,-0.510498046875,-8309,-6412,-765,-4,6,54
260645219,0.46087646484375,-0.4869384765625,0.54412841796875,-0.50433349609375,-7454,-6764,-1081,-9,-8,69
260655205,0.46636962890625,-0.4830322265625,0.5494384765625,-0.49725341796875,-6334,-7211,-1387,-12,-19,72
260665188,0.47125244140625,-0.4808349609375,0.553466796875,-0.49029541015625,-4919,-7738,-1686,-14,-27,61
260675173,0.47491455078125,-0.48065185546875,0.5557861328125,-0.48431396484375,-3204,-8181,-1984,-15,-33,46
260685146,0.477294921875,-0.4822998046875,0.5567626953125,-0.47918701171875,-1239,-8520,-2313,-16,-36,38
260695123,0.47894287109375,-0.4847412109375,0.557373046875,-0.474365234375,857,-9012,-2723,-18,-37,42
260705106,0.480224609375,-0.4871826171875,0.558349609375,-0.4693603515625,2983,-9855,-3188,-20,-36,54
260715089,0.48126220703125,-0.48931884765625,0.55975341796875,-0.46435546875,5044,-10919,-3595,-20,-32,63
260725076,0.48150634765625,-0.49151611328125,0.56103515625,-0.46026611328125,6879,-11895,-3886,-19,-27,59
260735057,0.4803466796875,-0.494384765625,0.56121826171875,-0.4581298828125,8416,-12660,-4081,-15,-19,38
260745039,0.4771728515625,-0.49853515625,0.5599365234375,-0.45849609375,9562,-13098,-4207,-11,-10,9
260755021,0.47222900390625,-0.50372314453125,0.55712890625,-0.46136474609375,10223,-13092,-4250,-6,-2,-20
260765007,0.46588134765625,-0.509521484375,0.55340576171875,-0.4659423828125,10384,-12661,-4159,-3,6,-42
260774993,0.458740234375,-0.5155029296875,0.54901123046875,-0.47161865234375,10099,-11966,-3942,-1,12,-57
260784982,0.451416015625,-0.52117919921875,0.54437255859375,-0.477783203125,9424,-11215,-3652,0,15,-66
260794959,0.4443359375,-0.5262451171875,0.53985595703125,-0.48388671875,8512,-10553,-3338,1,17,-67
260804942,0.43804931640625,-0.53045654296875,0.53570556640625,-0.4896240234375,7462,-9979,-3039,4,18,-63
260814922,0.43267822265625,-0.53375244140625,0.531982421875,-0.494873046875,6326,-9455,-2711,6,18,-56
260824906,0.42828369140625,-0.53619384765625,0.52862548828125,-0.4996337890625,5132,-8990,-2352,9,16,-52
260834888,0.42486572265625,-0.5379638671875,0.5255126953125,-0.50390625,3816,-8551,-1988,11,14,-50
260844871,0.4222412109375,-0.53936767578125,0.5224609375,-0.50775146484375,2399,-8097,-1610,12,11,-49
260854853,0.42034912109375,-0.54052734375,0.51947021484375,-0.51116943359375,904,-7689,-1237,13,8,-51
260864836,0.41900634765625,-0.541748046875,0.5162353515625,-0.5142822265625,-564,-7460,-875,13,4,-55
260874820,0.4180908203125,-0.5430908203125,0.51263427734375,-0.51727294921875,-1992,-7514,-560,15,0,-62
260884806,0.41741943359375,-0.54461669921875,0.5084228515625,-0.520263671875,-3362,-7841,-299,18,-4,-70
260894785,0.4173583984375,-0.546142578125,0.5037841796875,-0.523193359375,-4712,-8288,-83,21,-7,-73
260904765,0.418212890625,-0.547119140625,0.49932861328125,-0.5257568359375,-5935,-8638,99,25,-9,-68
260914757,0.42047119140625,-0.547119140625,0.4957275390625,-0.52740478515625,-6951,-8798,254,26,-12,-50
260924741,0.4246826171875,-0.54559326171875,0.49359130859375,-0.52752685546875,-7703,-8794,404,28,-15,-23
260934721,0.43084716796875,-0.54254150390625,0.49322509765625,-0.52606201171875,-8153,-8695,559,27,-19,7
260944699,0.438720703125,-0.53826904296875,0.49432373046875,-0.52294921875,-8294,-8611,673,26,-23,32
260954685,0.44744873046875,-0.53338623046875,0.49615478515625,-0.518798828125,-8134,-8590,725,25,-26,47
260964669,0.456298828125,-0.52850341796875,0.49810791015625,-0.51416015625,-7732,-8574,732,23,-28,52
260974653,0.46478271484375,-0.52386474609375,0.49993896484375,-0.50958251953125,-7132,-8496,716,22,-27,53
260984635,0.47259521484375,-0.51947021484375,0.5015869140625,-0.50518798828125,-6397,-8280,692,21,-26,53
260994617,0.4798583984375,-0.5152587890625,0.503173828125,-0.50103759765625,-5618,-7903,688,19,-23,53
261004601,0.48638916015625,-0.51116943359375,0.50482177734375,-0.497314453125,-4835,-7442,641,18,-18,52
261014584,0.49212646484375,-0.5072021484375,0.5064697265625,-0.4940185546875,-4039,-7015,557,16,-14,49
261024566,0.49688720703125,-0.50347900390625,0.50811767578125,-0.4913330078125,-3216,-6723,416,15,-8,46
261034547,0.5008544921875,-0.49981689453125,0.50982666015625,-0.4892578125,-2373,-6548,236,16,-2,44
261044542,0.5042724609375,-0.4959716796875,0.51171875,-0.4876708984375,-1507,-6402,39,16,3,46
261054517,0.5072021484375,-0.491943359375,0.51397705078125,-0.48638916015625,-667,-6145,-169,16,8,49
261064502,0.50970458984375,-0.4876708984375,0.51654052734375,-0.4853515625,172,-5791,-346,15,14,52
261074484,0.51165771484375,-0.4832763671875,0.5194091796875,-0.484619140625,1111,-5555,-519,14,19,54
261084467,0.5130615234375,-0.47869873046875,0.52276611328125,-0.4840087890625,2240,-5567,-716,12,24,62
261094450,0.51416015625,-0.47369384765625,0.5269775390625,-0.48321533203125,3541,-5868,-915,10,31,75
261104430,0.51513671875,-0.46783447265625,0.5322265625,-0.482177734375,4970,-6399,-1145,8,38,91
261114422,0.51580810546875,-0.46124267578125,0.5384521484375,-0.48089599609375,6441,-7118,-1403,7,45,105
261124405,0.51580810546875,-0.45428466796875,0.54522705078125,-0.4798583984375,7852,-7911,-1623,5,52,109
261134389,0.5145263671875,-0.44781494140625,0.5518798828125,-0.47967529296875,9042,-8659,-1765,3,58,97
261144363,0.5111083984375,-0.44287109375,0.55767822265625,-0.481201171875,9937,-9403,-1835,-1,64,70
261154350,0.505126953125,-0.44012451171875,0.5621337890625,-0.48492431640625,10522,-10120,-1826,-6,70,34
261164332,0.4964599609375,-0.439697265625,0.565185546875,-0.49066162109375,10717,-10663,-1735,-12,73,-2
261174311,0.485595703125,-0.44140625,0.56707763671875,-0.497802734375,10545,-11025,-1609,-19,75,-34
261184294,0.47320556640625,-0.4444580078125,0.56829833984375,-0.50555419921875,10026,-11260,-1467,-25,76,-55
261194276,0.4603271484375,-0.4481201171875,0.56915283203125,-0.51318359375,9230,-11419,-1321,-29,73,-65
261204259,0.44757080078125,-0.45196533203125,0.57000732421875,-0.5201416015625,8172,-11551,-1142,-33,69,-69
261214237,0.43560791015625,-0.45556640625,0.57086181640625,-0.52618408203125,6904,-11627,-960,-34,63,-69
261224234,0.424560546875,-0.45892333984375,0.5716552734375,-0.5313720703125,5483,-11644,-781,-34,56,-69
261234213,0.41461181640625,-0.462158203125,0.5721435546875,-0.53582763671875,4019,-11591,-638,-33,49,-70
261244194,0.40582275390625,-0.46533203125,0.5723876953125,-0.53961181640625,2561,-11470,-548,-29,40,-70
261254187,0.398193359375,-0.46844482421875,0.5721435546875,-0.5428466796875,1098,-11194,-475,-25,32,-71
261264173,0.3919677734375,-0.47149658203125,0.5714111328125,-0.5455322265625,-433,-10807,-432,-20,23,-71
261274155,0.3870849609375,-0.47454833984375,0.570068359375,-0.5477294921875,-2084,-10375,-430,-14,13,-74
261284125,0.38360595703125,-0.477783203125,0.568115234375,-0.5494384765625,-3901,-9995,-448,-7,2,-79
261294104,0.3814697265625,-0.48138427734375,0.56524658203125,-0.55072021484375,-5740,-9736,-474,-1,-10,-86
261304090,0.38067626953125,-0.48541259765625,0.5614013671875,-0.5516357421875,-7428,-9553,-490,6,-22,-90
261314070,0.3814697265625,-0.4896240234375,0.55682373046875,-0.552001953125,-8816,-9454,-470,12,-34,-87
261324053,0.38421630859375,-0.49359130859375,0.55181884765625,-0.55157470703125,-9879,-9398,-423,18,-46,-74
261334037,0.389404296875,-0.4964599609375,0.54718017578125,-0.54998779296875,-10681,-9352,-390,25,-56,-52
261344019,0.397216796875,-0.4979248046875,0.543212890625,-0.54705810546875,-11269,-9367,-401,31,-64,-27
261354000,0.40728759765625,-0.49798583984375,0.53997802734375,-0.542724609375,-11594,-9394,-445,36,-72,-2
261363993,0.4193115234375,-0.496826171875,0.53741455078125,-0.537109375,-11641,-9349,-452,39,-77,21
261373974,0.43267822265625,-0.49468994140625,0.535400390625,-0.530517578125,-11326,-9181,-394,40,-82,41
261383952,0.4468994140625,-0.49176025390625,0.53375244140625,-0.52301025390625,-10697,-8919,-313,40,-85,58
261393934,0.46142578125,-0.48834228515625,0.532470703125,-0.51483154296875,-9763,-8594,-212,39,-86,73
261403917,0.4759521484375,-0.48455810546875,0.531494140625,-0.506103515625,-8653,-8174,-135,36,-85,84
261413905,0.489990234375,-0.48065185546875,0.53070068359375,-0.49725341796875,-7429,-7682,-66,33,-83,89
261423886,0.5030517578125,-0.4769287109375,0.52984619140625,-0.48858642578125,-6168,-7193,5,30,-78,88
261433869,0.51483154296875,-0.4737548828125,0.5286865234375,-0.4805908203125,-4871,-6727,57,27,-73,81
261443854,0.52490234375,-0.47125244140625,0.52716064453125,-0.47381591796875,-3593,-6362,62,25,-66,69
261453839,0.533203125,-0.469482421875,0.52508544921875,-0.46856689453125,-2366,-6139,0,24,-56,55
261463822,0.53973388671875,-0.4683837890625,0.522705078125,-0.46484375,-1205,-6113,-140,24,-47,42
261473804,0.5447998046875,-0.467529296875,0.520263671875,-0.4625244140625,-113,-6184,-336,25,-36,34
261483788,0.54888916015625,-0.4664306640625,0.51824951171875,-0.46112060546875,932,-6272,-552,27,-26,35
261493767,0.552490234375,-0.464599609375,0.51690673828125,-0.4600830078125,1999,-6329,-749,28,-17,43
261503759,0.55572509765625,-0.4619140625,0.5166015625,-0.459228515625,3073,-6451,-959,28,-6,54
261513745,0.55859375,-0.45831298828125,0.5174560546875,-0.45843505859375,4162,-6691,-1179,27,4,64
261523719,0.5609130859375,-0.45416259765625,0.51922607421875,-0.45770263671875,5221,-7135,-1427,26,14,72
261533701,0.56243896484375,-0.44964599609375,0.52191162109375,-0.457275390625,6211,-7751,-1660,24,23,75
261543684,0.5628662109375,-0.4451904296875,0.525146484375,-0.4573974609375,7067,-8451,-1861,20,32,74
261553666,0.56201171875,-0.44097900390625,0.52880859375,-0.458251953125,7727,-9119,-1976,16,41,66
261563650,0.5596923828125,-0.43743896484375,0.532470703125,-0.460205078125,8162,-9723,-1989,11,49,51
261573635,0.55560302734375,-0.43499755859375,0.53582763671875,-0.46368408203125,8385,-10258,-1945,7,57,30
261583617,0.54962158203125,-0.4337158203125,0.53863525390625,-0.46868896484375,8412,-10686,-1890,3,64,6
261593595,0.54180908203125,-0.43365478515625,0.54107666015625,-0.4749755859375,8204,-10965,-1816,-2,69,-16
261603574,0.5325927734375,-0.43463134765625,0.5430908203125,-0.482177734375,7802,-11111,-1706,-7,73,-34
261613557,0.52227783203125,-0.436279296875,0.54498291015625,-0.48980712890625,7233,-11157,-1563,-13,75,-47
261623542,0.51141357421875,-0.4383544921875,0.546875,-0.49725341796875,6523,-11116,-1371,-19,74,-55
261633525,0.50048828125,-0.4405517578125,0.548828125,-0.50421142578125,5741,-11010,-1168,-24,72,-56
261643508,0.4898681640625,-0.442626953125,0.551025390625,-0.5103759765625,4915,-10850,-994,-28,69,-55
261653490,0.479736328125,-0.444580078125,0.55352783203125,-0.51556396484375,4060,-10687,-838,-31,65,-51
261663472,0.47021484375,-0.4464111328125,0.55609130859375,-0.51995849609375,3193,-10472,-716,-33,60,-49
261673454,0.46112060546875,-0.4482421875,0.55865478515625,-0.52374267578125,2303,-10212,-652,-34,55,-50
261683435,0.45245361328125,-0.4503173828125,0.5609130859375,-0.527099609375,1370,-9875,-616,-34,50,-53
261693427,0.4442138671875,-0.45263671875,0.5628662109375,-0.53009033203125,393,-9500,-579,-33,44,-57
261703412,0.43658447265625,-0.455078125,0.564453125,-0.53271484375,-612,-9041,-524,-32,39,-60
261713398,0.4295654296875,-0.4576416015625,0.565673828125,-0.5347900390625,-1624,-8562,-465,-31,32,-61
261723374,0.4234619140625,-0.4603271484375,0.56671142578125,-0.536376953125,-2628,-8122,-415,-30,25,-61
261733356,0.418212890625,-0.46319580078125,0.56732177734375,-0.53729248046875,-3593,-7788,-396,-29,17,-61
261743339,0.4136962890625,-0.4664306640625,0.56744384765625,-0.537841796875,-4498,-7578,-415,-26,9,-64
261753321,0.40985107421875,-0.47015380859375,0.56695556640625,-0.53814697265625,-5360,-7533,-448,-23,1,-69
261763303,0.40667724609375,-0.47412109375,0.5655517578125,-0.53851318359375,-6143,-7626,-500,-17,-6,-73
261773282,0.4044189453125,-0.4781494140625,0.5634765625,-0.538818359375,-6827,-7844,-555,-10,-12,-72
261783268,0.403564453125,-0.4815673828125,0.56097412109375,-0.53900146484375,-7376,-8145,-558,-2,-17,-65
261793256,0.40447998046875,-0.48388671875,0.55853271484375,-0.538818359375,-7778,-8447,-565,7,-22,-49
261803239,0.40753173828125,-0.48468017578125,0.5565185546875,-0.53790283203125,-8003,-8689,-564,14,-26,-27
261813224,0.4127197265625,-0.48382568359375,0.55517578125,-0.5361328125,-8105,-8856,-566,22,-30,-3
261823207,0.4197998046875,-0.48150634765625,0.554443359375,-0.53338623046875,-8084,-8919,-576,27,-34,19
261833186,0.42828369140625,-0.47808837890625,0.5543212890625,-0.52984619140625,-7933,-8937,-603,30,-37,36
261843178,0.43780517578125,-0.47393798828125,0.554443359375,-0.525634765625,-7668,-8912,-610,32,-40,48
261853160,0.44775390625,-0.46954345703125,0.5546875,-0.52093505859375,-7313,-8821,-588,32,-44,55
261863138,0.45782470703125,-0.4652099609375,0.5548095703125,-0.51593017578125,-6851,-8694,-544,31,-46,59
261873114,0.4677734375,-0.46124267578125,0.5546875,-0.51068115234375,-6278,-8510,-461,29,-49,60
261883096,0.477294921875,-0.45758056640625,0.5543212890625,-0.5054931640625,-5612,-8287,-338,26,-50,60
261893079,0.4864501953125,-0.454345703125,0.5538330078125,-0.500244140625,-4903,-8042,-235,23,-50,60
261903062,0.4949951171875,-0.45147705078125,0.55328369140625,-0.49505615234375,-4187,-7801,-154,20,-49,59
261913051,0.50299072265625,-0.44891357421875,0.552734375,-0.48980712890625,-3499,-7561,-107,17,-47,58
261923029,0.51043701171875,-0.4466552734375,0.55230712890625,-0.48468017578125,-2841,-7325,-74,13,-46,57
261933017,0.51727294921875,-0.4447021484375,0.552001953125,-0.47955322265625,-2251,-7089,-85,10,-43,56
261943001,0.5234375,-0.4429931640625,0.55181884765625,-0.474609375,-1689,-6891,-92,7,-40,54
261952989,0.52899169921875,-0.44146728515625,0.5518798828125,-0.46978759765625,-1130,-6758,-111,4,-36,53
261962966,0.533935546875,-0.4400634765625,0.55218505859375,-0.465087890625,-555,-6754,-188,2,-32,54
261972949,0.538330078125,-0.438720703125,0.552734375,-0.46063232421875,15,-6841,-307,1,-28,55
261982933,0.54217529296875,-0.437255859375,0.5537109375,-0.45635986328125,544,-7033,-433,-1,-23,55
261992913,0.54534912109375,-0.435791015625,0.554931640625,-0.452392578125,1017,-7303,-566,-2,-17,55
262002896,0.54791259765625,-0.434326171875,0.55645751953125,-0.4488525390625,1459,-7641,-698,-3,-12,53
262012878,0.5498046875,-0.43292236328125,0.55810546875,-0.4459228515625,1842,-8017,-799,-3,-6,49
262022858,0.5509033203125,-0.431640625,0.5596923828125,-0.44378662109375,2197,-8384,-884,-2,-1,44
262032844,0.55120849609375,-0.43048095703125,0.5614013671875,-0.44232177734375,2495,-8739,-975,-2,5,38
262042824,0.5509033203125,-0.4293212890625,0.563232421875,-0.44158935546875,2746,-9054,-1075,-2,11,35
262052807,0.54998779296875,-0.4281005859375,0.56524658203125,-0.4412841796875,2931,-9300,-1150,-2,16,32
262062790,0.54864501953125,-0.42681884765625,0.5675048828125,-0.44134521484375,3028,-9511,-1208,-2,21,30
262072769,0.546875,-0.42547607421875,0.57000732421875,-0.44158935546875,3035,-9664,-1264,-4,25,28
262082762,0.5445556640625,-0.4241943359375,0.57269287109375,-0.442138671875,2967,-9800,-1279,-6,28,24
262092747,0.541748046875,-0.42327880859375,0.575439453125,-0.44293212890625,2812,-9875,-1305,-8,30,18
262102721,0.538330078125,-0.42279052734375,0.578125,-0.444091796875,2620,-9899,-1308,-11,32,10
262112705,0.53448486328125,-0.42266845703125,0.5806884765625,-0.4454345703125,2381,-9949,-1288,-13,33,5
262122689,0.530517578125,-0.422607421875,0.5833740234375,-0.44677734375,2037,-9947,-1275,-15,33,4
262132671,0.526611328125,-0.42254638671875,0.58612060546875,-0.44781494140625,1654,-9900,-1296,-16,33,2
262142652,0.52264404296875,-0.42266845703125,0.58892822265625,-0.44873046875,1273,-9804,-1385,-17,31,0
262152635,0.51849365234375,-0.42315673828125,0.59149169921875,-0.44970703125,891,-9623,-1483,-17,30,-7
262162617,0.51397705078125,-0.4244384765625,0.59332275390625,-0.45123291015625,458,-9398,-1609,-16,28,-21
262172600,0.50885009765625,-0.4268798828125,0.59423828125,-0.45361328125,37,-9181,-1712,-14,26,-39
262182583,0.50311279296875,-0.430419921875,0.59393310546875,-0.45697021484375,-335,-8964,-1733,-12,23,-56
262192567,0.49700927734375,-0.43487548828125,0.592529296875,-0.46124267578125,-651,-8692,-1704,-10,20,-70
262202550,0.49072265625,-0.43994140625,0.5902099609375,-0.46612548828125,-937,-8370,-1635,-7,18,-80
262212532,0.484619140625,-0.44525146484375,0.5872802734375,-0.47119140625,-1184,-8048,-1529,-5,14,-84
262222515,0.47882080078125,-0.45050048828125,0.583984375,-0.47613525390625,-1357,-7739,-1418,-4,11,-82
262232499,0.4736328125,-0.45550537109375,0.5806884765625,-0.4805908203125,-1470,-7442,-1315,-3,8,-77
262242481,0.4691162109375,-0.4600830078125,0.5775146484375,-0.48443603515625,-1546,-7162,-1220,-3,4,-68
262252467,0.465576171875,-0.4639892578125,0.57476806640625,-0.4874267578125,-1587,-6924,-1142,-2,1,-57
262262450,0.46295166015625,-0.4671630859375,0.57257080078125,-0.489501953125,-1601,-6720,-1080,-3,-2,-44
262272436,0.4613037109375,-0.46966552734375,0.5709228515625,-0.49053955078125,-1588,-6549,-1028,-3,-6,-30
262282420,0.46063232421875,-0.4715576171875,0.56982421875,-0.4906005859375,-1575,-6393,-942,-5,-9,-18
262292401,0.460693359375,-0.4730224609375,0.5692138671875,-0.4898681640625,-1551,-6273,-864,-7,-12,-9
262302379,0.46124267578125,-0.47430419921875,0.56890869140625,-0.48846435546875,-1528,-6190,-791,-9,-15,-3
262312360,0.46209716796875,-0.47564697265625,0.5687255859375,-0.48663330078125,-1497,-6168,-729,-11,-18,-1
262322341,0.46295166015625,-0.477294921875,0.5684814453125,-0.4844970703125,-1461,-6186,-713,-13,-20,-2
262332327,0.46356201171875,-0.47943115234375,0.56805419921875,-0.4822998046875,-1418,-6256,-694,-16,-22,-6
262342310,0.46380615234375,-0.482177734375,0.56732177734375,-0.4801025390625,-1369,-6376,-711,-18,-24,-12
262352293,0.46356201171875,-0.4857177734375,0.56634521484375,-0.47796630859375,-1310,-6532,-738,-21,-26,-19
262362276,0.462890625,-0.48992919921875,0.56488037109375,-0.47601318359375,-1242,-6698,-770,-23,-27,-25
262372259,0.4617919921875,-0.49481201171875,0.56304931640625,-0.4742431640625,-1173,-6907,-793,-26,-28,-32
262382239,0.46026611328125,-0.500244140625,0.56097412109375,-0.47247314453125,-1084,-7127,-817,-28,-30,-37
262392231,0.45849609375,-0.50616455078125,0.55859375,-0.470703125,-1014,-7368,-853,-30,-32,-40
262402213,0.45660400390625,-0.51239013671875,0.55596923828125,-0.46893310546875,-940,-7598,-900,-31,-33,-43
262412195,0.45458984375,-0.518798828125,0.55322265625,-0.467041015625,-864,-7812,-962,-32,-34,-44
262422187,0.4525146484375,-0.52532958984375,0.55035400390625,-0.46514892578125,-779,-7994,-1031,-31,-35,-45
262432173,0.4505615234375,-0.53192138671875,0.54736328125,-0.463134765625,-689,-8141,-1105,-31,-36,-45
262442157,0.44873046875,-0.538330078125,0.5443115234375,-0.46112060546875,-614,-8270,-1139,-30,-36,-44
262452126,0.447021484375,-0.5445556640625,0.5411376953125,-0.4591064453125,-521,-8373,-1173,-28,-37,-42
262462112,0.44561767578125,-0.55047607421875,0.53802490234375,-0.45709228515625,-448,-8455,-1191,-26,-37,-40
262472096,0.4444580078125,-0.55609130859375,0.53485107421875,-0.45513916015625,-377,-8515,-1216,-24,-36,-38
262482078,0.443603515625,-0.561279296875,0.53173828125,-0.4532470703125,-292,-8578,-1245,-21,-36,-35
262492060,0.4429931640625,-0.566162109375,0.52862548828125,-0.451416015625,-210,-8652,-1262,-18,-35,-32
262502044,0.4427490234375,-0.570556640625,0.52557373046875,-0.44970703125,-127,-8722,-1281,-15,-34,-29
262512028,0.44281005859375,-0.57452392578125,0.5224609375,-0.44818115234375,-55,-8764,-1277,-11,-33,-27
262522010,0.443115234375,-0.57818603515625,0.51934814453125,-0.44683837890625,31,-8781,-1267,-8,-32,-25
262531996,0.44354248046875,-0.5814208984375,0.51629638671875,-0.44573974609375,108,-8819,-1261,-5,-31,-24
262541981,0.44427490234375,-0.5843505859375,0.51318359375,-0.44476318359375,149,-8851,-1250,-3,-30,-22
262551960,0.44512939453125,-0.5870361328125,0.5101318359375,-0.44384765625,173,-8881,-1242,0,-29,-21
262561939,0.44622802734375,-0.58941650390625,0.507080078125,-0.44317626953125,195,-8911,-1215,1,-28,-20
262571923,0.44744873046875,-0.591552734375,0.5040283203125,-0.4425048828125,206,-8935,-1190,3,-27,-19
262581907,0.44873046875,-0.5936279296875,0.5009765625,-0.44195556640625,249,-8926,-1164,5,-27,-18
262591889,0.45013427734375,-0.595458984375,0.49786376953125,-0.44146728515625,283,-8893,-1132,6,-27,-18
262601877,0.4515380859375,-0.59722900390625,0.4947509765625,-0.441162109375,300,-8851,-1103,7,-26,-18
262611856,0.45294189453125,-0.5989990234375,0.4915771484375,-0.44085693359375,318,-8818,-1081,8,-25,-19
262621837,0.45428466796875,-0.60076904296875,0.48828125,-0.44073486328125,347,-8786,-1053,8,-25,-20
262631821,0.45550537109375,-0.60260009765625,0.48480224609375,-0.4407958984375,353,-8733,-1030,8,-25,-22
262641804,0.45660400390625,-0.60455322265625,0.48126220703125,-0.44091796875,382,-8666,-1025,9,-24,-24
262651786,0.4576416015625,-0.60650634765625,0.47760009765625,-0.441162109375,405,-8593,-1030,9,-24,-25
262661768,0.4586181640625,-0.6083984375,0.47393798828125,-0.44140625,430,-8501,-1046,9,-24,-25
262671758,0.4595947265625,-0.61029052734375,0.47039794921875,-0.44158935546875,456,-8374,-1062,9,-23,-24
262681742,0.46063232421875,-0.612060546875,0.46697998046875,-0.44171142578125,482,-8233,-1068,9,-23,-22
262691718,0.461669921875,-0.61383056640625,0.46368408203125,-0.44171142578125,512,-8102,-1063,8,-23,-21
262701700,0.4627685546875,-0.615478515625,0.46051025390625,-0.4415283203125,550,-7981,-1058,8,-23,-19
262711684,0.4638671875,-0.6171875,0.45745849609375,-0.4412841796875,569,-7881,-1057,7,-24,-18
262721668,0.46490478515625,-0.61883544921875,0.45452880859375,-0.44085693359375,592,-7798,-1075,6,-23,-17
262731650,0.46588134765625,-0.6204833984375,0.4517822265625,-0.44036865234375,658,-7760,-1084,5,-24,-16
262741635,0.46685791015625,-0.6220703125,0.44915771484375,-0.439697265625,723,-7721,-1079,4,-23,-14
262751615,0.4678955078125,-0.62359619140625,0.44671630859375,-0.43890380859375,794,-7697,-1083,3,-23,-12
