subject,Two-hands and jerked
arm,neither
label,0
hz,100.17127983080194
time,5.360818

timestamp_us,q0,q1,q2,q3,ax,ay,az,gx,gy,gz
310969178,0.56549072265625,-0.41064453125,0.5047607421875,-0.50677490234375,-1044,-7688,1186,1,6,-4
310979160,0.56494140625,-0.41033935546875,0.50494384765625,-0.50738525390625,-1055,-7675,1194,1,6,-3
310989130,0.5643310546875,-0.4100341796875,0.5052490234375,-0.50799560546875,-1069,-7709,1196,0,7,-3
310999114,0.5638427734375,-0.40960693359375,0.50567626953125,-0.508544921875,-1091,-7798,1196,0,7,-1
311009101,0.5633544921875,-0.4090576171875,0.5062255859375,-0.50897216796875,-1107,-7885,1211,0,8,0
311019083,0.56292724609375,-0.4083251953125,0.5068359375,-0.5093994140625,-1138,-7975,1212,1,9,2
311029064,0.56256103515625,-0.4075927734375,0.50750732421875,-0.509765625,-1135,-8048,1219,1,9,2
311039051,0.562255859375,-0.40667724609375,0.5081787109375,-0.5101318359375,-1150,-8109,1213,2,9,3
311049031,0.56195068359375,-0.40576171875,0.5089111328125,-0.510498046875,-1151,-8140,1200,2,9,3
311059013,0.56158447265625,-0.40478515625,0.50958251953125,-0.51092529296875,-1131,-8158,1184,2,10,3
311068999,0.561279296875,-0.40380859375,0.51025390625,-0.51141357421875,-1137,-8148,1191,3,10,3
311078988,0.56085205078125,-0.40283203125,0.51092529296875,-0.511962890625,-1153,-8136,1195,3,10,1
311088974,0.560302734375,-0.4019775390625,0.511474609375,-0.5126953125,-1189,-8091,1193,3,10,-1
311098946,0.55963134765625,-0.4012451171875,0.51190185546875,-0.5135498046875,-1209,-8026,1180,3,10,-3
311108929,0.55877685546875,-0.40069580078125,0.51226806640625,-0.51458740234375,-1225,-7946,1179,2,10,-6
311118912,0.55780029296875,-0.4002685546875,0.51251220703125,-0.51568603515625,-1230,-7883,1164,2,10,-7
311128894,0.5567626953125,-0.39996337890625,0.5128173828125,-0.51678466796875,-1215,-7836,1145,2,10,-7
311138879,0.55584716796875,-0.3995361328125,0.51318359375,-0.51776123046875,-1216,-7811,1141,1,10,-6
311148858,0.55499267578125,-0.3990478515625,0.51361083984375,-0.5185546875,-1202,-7782,1120,1,10,-3
311158841,0.5543212890625,-0.39837646484375,0.51422119140625,-0.51922607421875,-1199,-7772,1110,1,10,-1
311168827,0.55377197265625,-0.39764404296875,0.5150146484375,-0.5196533203125,-1183,-7786,1081,0,10,2
311178808,0.55328369140625,-0.39678955078125,0.51580810546875,-0.51995849609375,-1172,-7799,1067,1,10,3
311188791,0.5528564453125,-0.39581298828125,0.51666259765625,-0.52032470703125,-1158,-7819,1065,1,10,4
311198772,0.552490234375,-0.3948974609375,0.5174560546875,-0.5206298828125,-1146,-7826,1053,1,10,4
311208764,0.55206298828125,-0.39398193359375,0.518310546875,-0.52093505859375,-1139,-7842,1041,1,10,3
311218745,0.55157470703125,-0.39306640625,0.51910400390625,-0.52130126953125,-1141,-7857,1032,1,10,3
311228724,0.55108642578125,-0.3922119140625,0.5198974609375,-0.52166748046875,-1141,-7849,1016,1,10,2
311238707,0.550537109375,-0.3914794921875,0.52056884765625,-0.52215576171875,-1144,-7817,1013,1,10,1
311248691,0.54986572265625,-0.390869140625,0.521240234375,-0.522705078125,-1156,-7828,1016,0,9,-1
311258671,0.54913330078125,-0.390380859375,0.52178955078125,-0.52325439453125,-1164,-7893,1008,1,9,-2
311268652,0.54833984375,-0.38995361328125,0.5223388671875,-0.52386474609375,-1164,-8026,1001,0,9,-2
311278635,0.54754638671875,-0.38958740234375,0.52288818359375,-0.52447509765625,-1143,-8164,974,1,9,-2
311288617,0.54681396484375,-0.38916015625,0.5233154296875,-0.52508544921875,-1130,-8259,945,2,8,-1
311298602,0.5462646484375,-0.38861083984375,0.52374267578125,-0.52557373046875,-1148,-8270,895,2,8,-1
311308588,0.5457763671875,-0.3880615234375,0.524169921875,-0.52606201171875,-1168,-8217,864,3,7,0
311318571,0.54547119140625,-0.38751220703125,0.52459716796875,-0.52642822265625,-1190,-8116,843,2,6,0
311328559,0.54510498046875,-0.38714599609375,0.52496337890625,-0.52667236328125,-1201,-8014,837,1,5,0
311338542,0.544677734375,-0.386962890625,0.52520751953125,-0.5269775390625,-1176,-7957,851,0,4,-2
311348520,0.544189453125,-0.3870849609375,0.52532958984375,-0.52728271484375,-1140,-7924,862,-1,3,-3
311358500,0.5435791015625,-0.38739013671875,0.52545166015625,-0.52764892578125,-1093,-7885,867,-2,2,-5
311368481,0.5428466796875,-0.38787841796875,0.5255126953125,-0.52789306640625,-1038,-7863,857,-3,2,-6
311378462,0.54205322265625,-0.3885498046875,0.52557373046875,-0.5281982421875,-950,-7824,851,-4,1,-6
311388449,0.541259765625,-0.38922119140625,0.52569580078125,-0.5283203125,-860,-7860,843,-5,1,-4
311398431,0.54058837890625,-0.3897705078125,0.5260009765625,-0.5283203125,-761,-7937,859,-5,1,-1
311408423,0.54010009765625,-0.39019775390625,0.5264892578125,-0.528076171875,-640,-8022,895,-6,2,3
311418403,0.53973388671875,-0.390380859375,0.52716064453125,-0.52764892578125,-506,-8057,919,-7,3,6
311428380,0.5394287109375,-0.390380859375,0.52801513671875,-0.527099609375,-393,-8022,938,-7,4,8
311438363,0.53900146484375,-0.390380859375,0.5289306640625,-0.52655029296875,-273,-7934,943,-8,5,8
311448350,0.53839111328125,-0.390380859375,0.530029296875,-0.526123046875,-169,-7846,932,-9,7,7
311458328,0.5374755859375,-0.39044189453125,0.53118896484375,-0.52587890625,-92,-7779,933,-10,8,5
311468311,0.53619384765625,-0.390625,0.53240966796875,-0.52581787109375,-8,-7736,926,-10,10,2
311478293,0.53460693359375,-0.390869140625,0.53363037109375,-0.5260009765625,81,-7716,921,-11,13,0
311488279,0.53271484375,-0.39117431640625,0.534912109375,-0.5263671875,154,-7689,917,-12,15,-2
311498258,0.53057861328125,-0.39141845703125,0.53631591796875,-0.52691650390625,183,-7622,899,-12,17,-3
311508239,0.528076171875,-0.39166259765625,0.537841796875,-0.52764892578125,159,-7560,927,-13,19,-6
311518231,0.5252685546875,-0.39202880859375,0.539306640625,-0.52874755859375,107,-7527,966,-13,21,-11
311528215,0.52215576171875,-0.39251708984375,0.5406494140625,-0.53009033203125,-1,-7589,1056,-14,23,-15
311538195,0.5186767578125,-0.39324951171875,0.54168701171875,-0.53192138671875,-108,-7767,1173,-13,23,-22
311548188,0.51483154296875,-0.39422607421875,0.54229736328125,-0.5343017578125,-202,-7992,1304,-11,24,-28
311558173,0.5108642578125,-0.39508056640625,0.54254150390625,-0.53717041015625,-279,-8201,1433,-8,24,-30
311568155,0.507080078125,-0.3956298828125,0.54248046875,-0.5404052734375,-374,-8346,1566,-3,25,-32
311578129,0.50347900390625,-0.39569091796875,0.5421142578125,-0.5440673828125,-460,-8407,1674,2,26,-32
311588109,0.5001220703125,-0.39532470703125,0.54168701171875,-0.54791259765625,-572,-8368,1740,6,27,-30
311598091,0.49700927734375,-0.39453125,0.541259765625,-0.55169677734375,-687,-8274,1772,8,29,-28
311608075,0.4937744140625,-0.39349365234375,0.541015625,-0.5555419921875,-819,-8141,1786,8,31,-28
311618060,0.490478515625,-0.392333984375,0.54095458984375,-0.559326171875,-995,-7965,1818,6,32,-29
311628043,0.4869384765625,-0.39105224609375,0.541259765625,-0.56304931640625,-1210,-7770,1861,3,35,-29
311638026,0.4832763671875,-0.3896484375,0.54205322265625,-0.56634521484375,-1455,-7607,1873,-1,36,-27
311648007,0.47955322265625,-0.38818359375,0.54345703125,-0.5692138671875,-1753,-7524,1891,-6,38,-24
311657996,0.4757080078125,-0.38653564453125,0.54541015625,-0.57171630859375,-2079,-7596,1931,-10,40,-23
311667980,0.47174072265625,-0.38482666015625,0.54766845703125,-0.573974609375,-2409,-7807,2046,-13,41,-23
311677957,0.467529296875,-0.383056640625,0.5499267578125,-0.57635498046875,-2695,-8078,2202,-13,43,-26
311687940,0.46331787109375,-0.3809814453125,0.55224609375,-0.57891845703125,-2963,-8318,2352,-12,45,-24
311697923,0.45941162109375,-0.37835693359375,0.55474853515625,-0.58148193359375,-3234,-8435,2454,-10,47,-20
311707907,0.4559326171875,-0.37493896484375,0.55755615234375,-0.58367919921875,-3552,-8427,2469,-8,48,-13
311717888,0.453125,-0.37078857421875,0.56085205078125,-0.5853271484375,-3875,-8327,2412,-8,48,-4
311727877,0.45111083984375,-0.36602783203125,0.5645751953125,-0.58636474609375,-4202,-8198,2308,-7,47,5
311737852,0.44970703125,-0.36090087890625,0.56854248046875,-0.58673095703125,-4529,-8104,2163,-8,45,10
311747836,0.44873046875,-0.35577392578125,0.57257080078125,-0.586669921875,-4872,-8075,1997,-8,41,12
311757819,0.4481201171875,-0.35076904296875,0.57666015625,-0.586181640625,-5235,-8058,1796,-8,37,14
311767801,0.44781494140625,-0.3460693359375,0.58056640625,-0.5853271484375,-5585,-8045,1581,-9,32,14
311777784,0.44793701171875,-0.3416748046875,0.5843505859375,-0.5841064453125,-5902,-8023,1334,-9,27,14
311787773,0.44842529296875,-0.3377685546875,0.58782958984375,-0.58245849609375,-6200,-8004,1090,-9,21,14
311797756,0.44940185546875,-0.33416748046875,0.5911865234375,-0.58038330078125,-6433,-7951,838,-10,15,16
311807740,0.45098876953125,-0.33087158203125,0.59454345703125,-0.57763671875,-6589,-7829,564,-11,9,21
311817717,0.45330810546875,-0.32763671875,0.59808349609375,-0.573974609375,-6719,-7687,274,-14,2,29
311827697,0.45654296875,-0.32452392578125,0.60186767578125,-0.5692138671875,-6787,-7535,-69,-18,-4,38
311837679,0.46044921875,-0.32171630859375,0.60595703125,-0.56329345703125,-6796,-7418,-436,-22,-12,46
311847663,0.46514892578125,-0.319091796875,0.6102294921875,-0.5562744140625,-6764,-7319,-801,-26,-19,54
311857644,0.47064208984375,-0.31671142578125,0.61468505859375,-0.54803466796875,-6674,-7229,-1145,-31,-26,63
311867628,0.4769287109375,-0.314453125,0.61920166015625,-0.53875732421875,-6486,-7163,-1445,-34,-33,72
311877612,0.48382568359375,-0.31231689453125,0.62371826171875,-0.528564453125,-6205,-7089,-1741,-37,-39,80
311887594,0.49102783203125,-0.3104248046875,0.62823486328125,-0.51751708984375,-5849,-7031,-2040,-41,-44,85
311897579,0.49822998046875,-0.30908203125,0.63262939453125,-0.5059814453125,-5425,-7002,-2359,-44,-49,86
311907563,0.5050048828125,-0.30859375,0.63671875,-0.4942626953125,-4956,-7020,-2690,-47,-52,82
311917547,0.51116943359375,-0.30908203125,0.6405029296875,-0.48260498046875,-4462,-7081,-3027,-50,-54,75
311927529,0.51678466796875,-0.31048583984375,0.64385986328125,-0.47113037109375,-3931,-7262,-3321,-52,-57,70
311937513,0.52197265625,-0.31256103515625,0.646728515625,-0.4599609375,-3335,-7658,-3523,-53,-59,67
311947497,0.52667236328125,-0.31524658203125,0.649169921875,-0.44921875,-2636,-8204,-3652,-52,-59,65
311957478,0.531005859375,-0.31829833984375,0.65106201171875,-0.4390869140625,-1875,-8709,-3696,-50,-59,62
311967462,0.53515625,-0.32147216796875,0.65240478515625,-0.42974853515625,-1100,-9083,-3630,-47,-58,60
311977449,0.5390625,-0.324462890625,0.6533203125,-0.4210205078125,-315,-9336,-3500,-43,-56,60
311987437,0.54290771484375,-0.32720947265625,0.654052734375,-0.4127197265625,447,-9534,-3315,-41,-54,62
311997420,0.546630859375,-0.3294677734375,0.65478515625,-0.40478515625,1148,-9664,-3090,-39,-51,65
312007402,0.55029296875,-0.331298828125,0.655517578125,-0.3970947265625,1751,-9720,-2813,-37,-48,68
312017380,0.55389404296875,-0.332763671875,0.65618896484375,-0.38970947265625,2244,-9678,-2488,-36,-45,68
312027362,0.55718994140625,-0.334228515625,0.65673828125,-0.3826904296875,2627,-9529,-2132,-36,-43,64
312037350,0.5601806640625,-0.3360595703125,0.656982421875,-0.37628173828125,2920,-9271,-1758,-36,-42,56
312047328,0.56268310546875,-0.338623046875,0.6568603515625,-0.3704833984375,3111,-8901,-1389,-37,-40,45
312057310,0.564697265625,-0.3419189453125,0.65631103515625,-0.36529541015625,3248,-8446,-1022,-40,-40,35
312067294,0.56622314453125,-0.34600830078125,0.65557861328125,-0.36029052734375,3326,-7949,-669,-44,-40,27
312077277,0.56744384765625,-0.3507080078125,0.65472412109375,-0.35540771484375,3351,-7501,-347,-48,-40,21
312087257,0.568359375,-0.35601806640625,0.65374755859375,-0.3504638671875,3334,-7174,-59,-52,-40,16
312097237,0.5689697265625,-0.36175537109375,0.65277099609375,-0.34527587890625,3296,-7025,162,-57,-40,15
312107231,0.5694580078125,-0.36767578125,0.6519775390625,-0.33978271484375,3218,-7069,326,-60,-40,17
312117213,0.5699462890625,-0.37353515625,0.6512451171875,-0.33392333984375,3095,-7265,484,-63,-41,20
312127193,0.57049560546875,-0.3792724609375,0.65057373046875,-0.32763671875,2900,-7554,635,-66,-41,23
312137184,0.571044921875,-0.38519287109375,0.64990234375,-0.32110595703125,2660,-7839,766,-69,-42,21
312147173,0.57122802734375,-0.39166259765625,0.6490478515625,-0.314697265625,2353,-8085,882,-71,-42,13
312157142,0.5709228515625,-0.3990478515625,0.64764404296875,-0.308837890625,2015,-8305,1009,-74,-41,1
312167121,0.5699462890625,-0.407470703125,0.6456298828125,-0.30377197265625,1631,-8583,1143,-76,-40,-14
312177099,0.56842041015625,-0.4168701171875,0.6429443359375,-0.299560546875,1190,-8938,1269,-76,-39,-27
312187083,0.5665283203125,-0.4266357421875,0.63970947265625,-0.2962646484375,707,-9356,1379,-74,-37,-37
312197067,0.56451416015625,-0.4364013671875,0.63604736328125,-0.29376220703125,201,-9824,1485,-69,-35,-42
312207051,0.56268310546875,-0.44561767578125,0.63201904296875,-0.2921142578125,-337,-10260,1610,-61,-32,-45
312217031,0.5611572265625,-0.45379638671875,0.6279296875,-0.291259765625,-958,-10597,1707,-51,-28,-45
312227015,0.5601806640625,-0.460693359375,0.62384033203125,-0.29119873046875,-1687,-10844,1764,-39,-24,-45
312236997,0.55963134765625,-0.46636962890625,0.6197509765625,-0.29193115234375,-2469,-10977,1741,-27,-20,-45
312246987,0.5594482421875,-0.4710693359375,0.61553955078125,-0.29351806640625,-3187,-10974,1626,-16,-17,-47
312259995,0.5594482421875,-0.47503662109375,0.61138916015625,-0.29595947265625,-3797,-10810,1431,-7,-13,-51
312266949,0.5592041015625,-0.47869873046875,0.60699462890625,-0.2994384765625,-4261,-10457,1193,1,-8,-58
312276929,0.55853271484375,-0.48248291015625,0.60223388671875,-0.30419921875,-4635,-9982,916,8,-3,-70
312286913,0.55712890625,-0.48638916015625,0.5972900390625,-0.310302734375,-4968,-9469,596,14,4,-82
312296897,0.55499267578125,-0.49029541015625,0.59222412109375,-0.31756591796875,-5282,-9022,268,19,11,-90
312306879,0.55255126953125,-0.49365234375,0.58740234375,-0.32550048828125,-5608,-8681,-74,24,18,-91
312316862,0.54998779296875,-0.495849609375,0.58331298828125,-0.333740234375,-5906,-8424,-397,30,25,-84
312326844,0.54779052734375,-0.49652099609375,0.580078125,-0.34185791015625,-6147,-8167,-664,37,31,-72
312336827,0.546142578125,-0.49542236328125,0.5780029296875,-0.34954833984375,-6315,-7836,-852,42,37,-56
312346812,0.54510498046875,-0.49267578125,0.5770263671875,-0.35662841796875,-6406,-7490,-979,46,41,-39
312356796,0.54449462890625,-0.48846435546875,0.5771484375,-0.36309814453125,-6484,-7095,-1077,48,44,-26
312366775,0.54425048828125,-0.48321533203125,0.57794189453125,-0.36920166015625,-6449,-6719,-1126,51,47,-16
312376766,0.54400634765625,-0.4774169921875,0.5791015625,-0.37518310546875,-6316,-6413,-1173,51,50,-12
312386749,0.54351806640625,-0.47149658203125,0.58050537109375,-0.38116455078125,-6189,-6177,-1242,50,52,-12
312396725,0.54254150390625,-0.4658203125,0.5819091796875,-0.38739013671875,-6069,-6054,-1324,49,54,-15
312406709,0.5411376953125,-0.4603271484375,0.583251953125,-0.39373779296875,-5961,-6099,-1425,48,55,-17
312416691,0.53955078125,-0.4547119140625,0.5848388671875,-0.40008544921875,-5859,-6318,-1533,48,56,-14
312426677,0.53826904296875,-0.44866943359375,0.58673095703125,-0.40582275390625,-5767,-6692,-1660,48,56,-5
312436664,0.53741455078125,-0.4417724609375,0.58917236328125,-0.410888671875,-5676,-7236,-1806,48,56,8
312446644,0.5369873046875,-0.4342041015625,0.5921630859375,-0.415283203125,-5633,-7807,-1984,49,55,17
312456628,0.53662109375,-0.42633056640625,0.59527587890625,-0.41937255859375,-5652,-8254,-2171,49,55,19
312466610,0.5361328125,-0.4185791015625,0.59820556640625,-0.423583984375,-5800,-8487,-2352,50,55,14
312476594,0.535400390625,-0.4112548828125,0.60089111328125,-0.427978515625,-5985,-8571,-2505,50,54,6
312486578,0.5343017578125,-0.4044189453125,0.6031494140625,-0.4326171875,-6176,-8583,-2599,50,52,1
312496561,0.533203125,-0.39776611328125,0.605224609375,-0.43719482421875,-6317,-8507,-2664,49,50,0
312506543,0.532470703125,-0.3909912109375,0.6072998046875,-0.4412841796875,-6411,-8366,-2723,48,47,5
312516526,0.5322265625,-0.38397216796875,0.609619140625,-0.444580078125,-6455,-8200,-2776,47,44,14
312526508,0.53265380859375,-0.37646484375,0.61224365234375,-0.44696044921875,-6449,-8008,-2824,45,40,24
312536492,0.53369140625,-0.3685302734375,0.61505126953125,-0.44830322265625,-6401,-7766,-2849,43,36,34
312546475,0.535400390625,-0.36041259765625,0.6181640625,-0.44866943359375,-6344,-7485,-2871,40,32,42
312556458,0.53753662109375,-0.35223388671875,0.62139892578125,-0.4481201171875,-6253,-7221,-2894,36,27,49
312566437,0.53985595703125,-0.34442138671875,0.62469482421875,-0.44683837890625,-6145,-6965,-2920,32,22,51
312576428,0.54229736328125,-0.337158203125,0.62774658203125,-0.44512939453125,-6054,-6720,-2948,27,17,49
312586411,0.544677734375,-0.33074951171875,0.630615234375,-0.4429931640625,-5955,-6504,-2972,23,12,46
312596393,0.54681396484375,-0.32537841796875,0.63311767578125,-0.44073486328125,-5824,-6379,-2957,18,8,40
312606370,0.54876708984375,-0.32098388671875,0.63531494140625,-0.4383544921875,-5633,-6350,-2920,13,3,36
312616352,0.55072021484375,-0.31732177734375,0.63714599609375,-0.4359130859375,-5416,-6400,-2846,10,-1,34
312626332,0.552734375,-0.31414794921875,0.63885498046875,-0.43316650390625,-5160,-6471,-2793,7,-5,35
312636315,0.554931640625,-0.311279296875,0.64044189453125,-0.4300537109375,-4895,-6561,-2737,4,-7,37
312646297,0.5572509765625,-0.30865478515625,0.64202880859375,-0.4266357421875,-4622,-6679,-2681,2,-10,40
312656281,0.55950927734375,-0.306396484375,0.64349365234375,-0.42303466796875,-4343,-6814,-2635,0,-12,39
312666263,0.56170654296875,-0.30450439453125,0.6448974609375,-0.41937255859375,-4073,-6962,-2592,-3,-13,38
312676241,0.56378173828125,-0.30303955078125,0.64617919921875,-0.41558837890625,-3826,-7126,-2545,-5,-14,38
312686233,0.5657958984375,-0.30181884765625,0.64739990234375,-0.41180419921875,-3597,-7296,-2493,-7,-15,38
312696215,0.56781005859375,-0.30078125,0.64862060546875,-0.40789794921875,-3396,-7465,-2428,-8,-16,38
312706205,0.56976318359375,-0.29998779296875,0.649658203125,-0.40399169921875,-3201,-7648,-2365,-10,-17,37
312716188,0.5716552734375,-0.299560546875,0.65057373046875,-0.4002685546875,-3017,-7797,-2292,-11,-18,34
312726173,0.5732421875,-0.299560546875,0.6512451171875,-0.3968505859375,-2840,-7913,-2220,-11,-18,29
312736154,0.5745849609375,-0.300048828125,0.65167236328125,-0.39385986328125,-2672,-7973,-2143,-11,-18,23
312746126,0.57562255859375,-0.30096435546875,0.65185546875,-0.3912353515625,-2506,-7992,-2072,-12,-18,19
312756108,0.57647705078125,-0.30218505859375,0.6519775390625,-0.38885498046875,-2355,-7963,-2014,-12,-18,16
312766090,0.5772705078125,-0.30352783203125,0.65203857421875,-0.3865966796875,-2219,-7939,-1928,-12,-18,15
312776072,0.5780029296875,-0.3048095703125,0.652099609375,-0.3843994140625,-2067,-7898,-1825,-12,-17,16
312786058,0.5787353515625,-0.3060302734375,0.65216064453125,-0.38214111328125,-1949,-7857,-1729,-13,-16,17
312796038,0.5794677734375,-0.3072509765625,0.6522216796875,-0.37994384765625,-1835,-7810,-1613,-13,-16,16
312806023,0.58001708984375,-0.30859375,0.65228271484375,-0.3779296875,-1752,-7774,-1497,-14,-15,13
312816005,0.58038330078125,-0.31024169921875,0.65216064453125,-0.37615966796875,-1690,-7729,-1367,-14,-14,10
312825994,0.58062744140625,-0.31207275390625,0.6519775390625,-0.3746337890625,-1641,-7693,-1265,-14,-14,7
312835978,0.58062744140625,-0.314208984375,0.6517333984375,-0.373291015625,-1579,-7624,-1146,-15,-13,4
312845956,0.58056640625,-0.31646728515625,0.65142822265625,-0.37200927734375,-1522,-7553,-1017,-16,-13,3
312855938,0.58038330078125,-0.31884765625,0.651123046875,-0.37078857421875,-1448,-7466,-891,-17,-12,1
312865918,0.58013916015625,-0.32135009765625,0.6507568359375,-0.36962890625,-1369,-7395,-761,-18,-12,0
312875901,0.57977294921875,-0.3240966796875,0.65032958984375,-0.36859130859375,-1272,-7403,-633,-19,-12,-1
312885883,0.57916259765625,-0.3270263671875,0.64990234375,-0.36773681640625,-1152,-7483,-513,-20,-11,-4
312895864,0.57830810546875,-0.330322265625,0.6492919921875,-0.36724853515625,-987,-7609,-403,-21,-10,-7
312905846,0.57708740234375,-0.33392333984375,0.6485595703125,-0.36712646484375,-807,-7768,-310,-21,-8,-11
312915830,0.5755615234375,-0.33770751953125,0.6478271484375,-0.36737060546875,-646,-7876,-242,-21,-6,-14
312925814,0.5738525390625,-0.341552734375,0.64715576171875,-0.36773681640625,-509,-7923,-179,-22,-5,-14
312935797,0.572021484375,-0.34527587890625,0.64666748046875,-0.36798095703125,-403,-7932,-110,-23,-4,-13
312945784,0.57012939453125,-0.34893798828125,0.646240234375,-0.36810302734375,-301,-7909,25,-25,-2,-13
312955767,0.56817626953125,-0.35272216796875,0.6458740234375,-0.36822509765625,-221,-7864,214,-26,-2,-14
312965750,0.56610107421875,-0.356689453125,0.64532470703125,-0.3685302734375,-138,-7843,448,-28,-1,-17
312975740,0.5638427734375,-0.36083984375,0.64471435546875,-0.36907958984375,-81,-7844,696,-29,0,-20
312985714,0.5615234375,-0.3651123046875,0.6439208984375,-0.36981201171875,-40,-7854,977,-29,0,-22
312995696,0.5592041015625,-0.369384765625,0.64300537109375,-0.37060546875,-2,-7847,1282,-30,0,-22
313005678,0.5570068359375,-0.37353515625,0.6419677734375,-0.3714599609375,15,-7865,1604,-30,0,-22
313015664,0.554931640625,-0.37774658203125,0.64093017578125,-0.372314453125,-25,-7915,1901,-31,0,-23
313025646,0.55279541015625,-0.3819580078125,0.63970947265625,-0.37322998046875,-146,-8002,2180,-31,0,-25
313035629,0.55078125,-0.38629150390625,0.63824462890625,-0.37420654296875,-350,-8118,2475,-31,-1,-28
313045611,0.5489501953125,-0.39068603515625,0.63641357421875,-0.37548828125,-637,-8202,2805,-30,-3,-32
313055594,0.54736328125,-0.395263671875,0.63397216796875,-0.37713623046875,-1000,-8162,3179,-27,-6,-40
313065578,0.5458984375,-0.4002685546875,0.630859375,-0.37921142578125,-1406,-7946,3629,-26,-8,-49
313075562,0.54449462890625,-0.40570068359375,0.62701416015625,-0.3818359375,-1785,-7552,4085,-25,-10,-59
313085543,0.54302978515625,-0.41156005859375,0.6226806640625,-0.38470458984375,-2164,-7070,4524,-26,-12,-67
313095526,0.5413818359375,-0.4178466796875,0.6180419921875,-0.38775634765625,-2568,-6669,4884,-28,-13,-73
313105510,0.5396728515625,-0.42425537109375,0.61322021484375,-0.3907470703125,-3007,-6369,5106,-28,-14,-76
313115494,0.53802490234375,-0.430419921875,0.60870361328125,-0.393310546875,-3542,-6190,5197,-29,-14,-73
313125476,0.53668212890625,-0.43609619140625,0.6046142578125,-0.39520263671875,-4174,-6108,5156,-29,-15,-67
313135461,0.5357666015625,-0.441162109375,0.6009521484375,-0.39642333984375,-4920,-6019,5004,-29,-16,-64
313145449,0.5350341796875,-0.44598388671875,0.59759521484375,-0.39715576171875,-5706,-6015,4738,-28,-17,-63
313155432,0.53436279296875,-0.4505615234375,0.59442138671875,-0.3975830078125,-6373,-6291,4341,-26,-17,-62
313165414,0.53375244140625,-0.45501708984375,0.5911865234375,-0.39813232421875,-6799,-6804,3833,-22,-17,-60
313175398,0.53314208984375,-0.4591064453125,0.58807373046875,-0.39898681640625,-6984,-7411,3235,-16,-15,-57
313185375,0.53271484375,-0.46234130859375,0.58514404296875,-0.4000244140625,-7064,-8142,2594,-8,-12,-49
313195358,0.53302001953125,-0.46405029296875,0.58294677734375,-0.40087890625,-7106,-8982,1939,1,-10,-32
313205338,0.5345458984375,-0.4639892578125,0.5814208984375,-0.401123046875,-7247,-9787,1237,10,-11,-13
313215318,0.53729248046875,-0.4622802734375,0.58038330078125,-0.40087890625,-7370,-10459,601,20,-12,-1
313225306,0.54095458984375,-0.45965576171875,0.57940673828125,-0.40045166015625,-7403,-10932,14,29,-14,7
313235293,0.5452880859375,-0.45654296875,0.57818603515625,-0.39990234375,-7330,-11037,-549,35,-19,12
313245273,0.54986572265625,-0.45361328125,0.57659912109375,-0.3992919921875,-6950,-10671,-1127,37,-24,12
313255257,0.55426025390625,-0.45135498046875,0.57489013671875,-0.39825439453125,-6453,-10011,-1725,35,-28,11
313265245,0.55810546875,-0.45001220703125,0.57305908203125,-0.39703369140625,-5791,-9332,-2282,31,-30,7
313275228,0.56109619140625,-0.4495849609375,0.57122802734375,-0.39581298828125,-5103,-8614,-2719,23,-30,5
313285210,0.5635986328125,-0.44970703125,0.57012939453125,-0.39373779296875,-4467,-8229,-3161,14,-29,10
313295191,0.56536865234375,-0.4505615234375,0.5694580078125,-0.3912353515625,-3827,-8255,-3522,6,-28,9
313305181,0.5662841796875,-0.45220947265625,0.56878662109375,-0.38897705078125,-3280,-8545,-3855,1,-26,4
313315173,0.56634521484375,-0.45458984375,0.5679931640625,-0.38726806640625,-2778,-8866,-4140,-1,-23,-3
313325139,0.565673828125,-0.45745849609375,0.5670166015625,-0.3863525390625,-2334,-9081,-4348,-1,-19,-11
313335117,0.564453125,-0.46051025390625,0.56591796875,-0.38604736328125,-1946,-9164,-4439,-1,-15,-15
313345103,0.56317138671875,-0.4632568359375,0.56494140625,-0.3861083984375,-1587,-9110,-4423,1,-11,-14
313355082,0.56195068359375,-0.46533203125,0.564208984375,-0.38641357421875,-1251,-8955,-4297,3,-7,-8
313365074,0.5611572265625,-0.4664306640625,0.56396484375,-0.3865966796875,-986,-8749,-4114,5,-3,0
313375054,0.5606689453125,-0.46661376953125,0.56427001953125,-0.38665771484375,-779,-8483,-3887,8,0,8
313385035,0.560546875,-0.4659423828125,0.5650634765625,-0.38653564453125,-636,-8079,-3653,9,3,14
313395019,0.56048583984375,-0.46490478515625,0.56597900390625,-0.38653564453125,-576,-7575,-3391,10,5,13
313404999,0.56024169921875,-0.4638671875,0.56689453125,-0.38677978515625,-606,-7083,-3142,10,7,9
313414987,0.55963134765625,-0.46307373046875,0.5677490234375,-0.38739013671875,-688,-6698,-2881,8,9,3
313424962,0.55877685546875,-0.4625244140625,0.5684814453125,-0.38824462890625,-791,-6441,-2626,6,10,0
313434947,0.5577392578125,-0.46209716796875,0.56915283203125,-0.38909912109375,-898,-6291,-2378,4,11,-2
313444927,0.556640625,-0.4617919921875,0.56988525390625,-0.3900146484375,-1003,-6227,-2143,3,11,-3
313454909,0.55548095703125,-0.4615478515625,0.57061767578125,-0.39093017578125,-1113,-6233,-1946,1,11,-3
313464893,0.55426025390625,-0.46136474609375,0.57135009765625,-0.3917236328125,-1219,-6255,-1789,0,11,-3
313474884,0.55316162109375,-0.4610595703125,0.572265625,-0.392333984375,-1338,-6334,-1669,-1,11,0
313484859,0.55218505859375,-0.46063232421875,0.5733642578125,-0.3927001953125,-1455,-6457,-1565,-1,11,2
313494842,0.55133056640625,-0.46002197265625,0.57452392578125,-0.39288330078125,-1582,-6632,-1486,-1,10,4
313504824,0.5506591796875,-0.4593505859375,0.57562255859375,-0.39300537109375,-1692,-6851,-1407,-1,10,4
313514811,0.550048828125,-0.45867919921875,0.5765380859375,-0.39324951171875,-1795,-7085,-1351,0,9,3
313524793,0.5494384765625,-0.45819091796875,0.57720947265625,-0.39361572265625,-1897,-7279,-1296,1,8,0
313534774,0.54888916015625,-0.4578857421875,0.57769775390625,-0.3941650390625,-1979,-7405,-1243,2,7,-2
313544764,0.54840087890625,-0.4576416015625,0.577880859375,-0.39471435546875,-2061,-7505,-1171,2,5,-3
313554748,0.54815673828125,-0.4573974609375,0.57806396484375,-0.39520263671875,-2137,-7556,-1106,2,3,-2
313564738,0.548095703125,-0.45709228515625,0.578125,-0.3955078125,-2207,-7651,-1042,2,2,0
313574710,0.5482177734375,-0.45684814453125,0.578125,-0.3956298828125,-2265,-7775,-965,2,0,0
313584698,0.54840087890625,-0.45660400390625,0.5780029296875,-0.39581298828125,-2293,-7900,-914,3,-1,-1
313594674,0.548583984375,-0.4566650390625,0.57763671875,-0.3961181640625,-2318,-8011,-881,3,-2,-4
313604652,0.54864501953125,-0.45697021484375,0.576904296875,-0.3966064453125,-2326,-8069,-872,3,-4,-8
313614636,0.54852294921875,-0.4576416015625,0.57598876953125,-0.3973388671875,-2324,-8087,-858,4,-4,-11
313624619,0.54840087890625,-0.45843505859375,0.57489013671875,-0.398193359375,-2295,-8097,-833,3,-5,-13
313634602,0.54827880859375,-0.459228515625,0.57379150390625,-0.3990478515625,-2257,-8125,-821,4,-5,-13
313644586,0.54827880859375,-0.46002197265625,0.5726318359375,-0.39984130859375,-2219,-8131,-832,4,-5,-11
313654567,0.54840087890625,-0.46051025390625,0.5716552734375,-0.40045166015625,-2175,-8076,-830,5,-5,-8
313664550,0.5487060546875,-0.46087646484375,0.57080078125,-0.40087890625,-2146,-7941,-822,5,-5,-6
313674533,0.549072265625,-0.4610595703125,0.57012939453125,-0.40118408203125,-2138,-7777,-818,5,-5,-4
313684515,0.54949951171875,-0.46112060546875,0.56951904296875,-0.4012451171875,-2145,-7630,-807,4,-5,-3
313694499,0.54998779296875,-0.4613037109375,0.56903076171875,-0.40118408203125,-2174,-7501,-781,3,-6,-2
313704481,0.55047607421875,-0.46142578125,0.568603515625,-0.40093994140625,-2212,-7431,-755,2,-6,-2
313714465,0.55096435546875,-0.46173095703125,0.568115234375,-0.400634765625,-2264,-7434,-743,0,-7,-2
313724449,0.55133056640625,-0.46221923828125,0.567626953125,-0.40020751953125,-2287,-7468,-741,-1,-8,-4
313734436,0.55157470703125,-0.46295166015625,0.5670166015625,-0.39990234375,-2275,-7530,-748,-2,-9,-5
313744418,0.5517578125,-0.46392822265625,0.56622314453125,-0.399658203125,-2226,-7618,-772,-2,-9,-7
313754401,0.55181884765625,-0.465087890625,0.5653076171875,-0.3995361328125,-2185,-7704,-781,-2,-10,-9
313764375,0.5517578125,-0.46636962890625,0.56427001953125,-0.3995361328125,-2138,-7791,-796,-2,-9,-11
313774359,0.5517578125,-0.46759033203125,0.563232421875,-0.399658203125,-2114,-7913,-802,-1,-9,-11
313784350,0.5517578125,-0.46875,0.5621337890625,-0.39984130859375,-2095,-8060,-789,0,-9,-10
313794328,0.5518798828125,-0.4697265625,0.56097412109375,-0.4000244140625,-2063,-8195,-750,1,-9,-9
313804310,0.552001953125,-0.47064208984375,0.55987548828125,-0.400390625,-2035,-8242,-705,1,-7,-9
313814299,0.552001953125,-0.4715576171875,0.558837890625,-0.4007568359375,-2001,-8155,-662,0,-7,-10
313824280,0.55181884765625,-0.47259521484375,0.55792236328125,-0.40106201171875,-1946,-8011,-625,-2,-5,-11
313834261,0.55133056640625,-0.47369384765625,0.5572509765625,-0.4013671875,-1871,-7894,-576,-4,-4,-10
313844241,0.55072021484375,-0.47479248046875,0.556884765625,-0.40142822265625,-1779,-7814,-518,-7,-2,-8
313854240,0.5498046875,-0.475830078125,0.55694580078125,-0.40130615234375,-1686,-7763,-441,-11,0,-6
313864219,0.548583984375,-0.47711181640625,0.55712890625,-0.4012451171875,-1612,-7695,-341,-15,3,-9
313874205,0.54656982421875,-0.47900390625,0.55731201171875,-0.40142822265625,-1532,-7539,-241,-20,5,-17
313884190,0.54339599609375,-0.482177734375,0.55712890625,-0.40228271484375,-1481,-7249,-147,-27,7,-34
313894173,0.53851318359375,-0.48724365234375,0.5560302734375,-0.4041748046875,-1413,-6852,-121,-35,9,-59
313904155,0.53125,-0.4951171875,0.5535888671875,-0.4075927734375,-1286,-6510,-122,-45,10,-95
313914127,0.5211181640625,-0.50628662109375,0.54913330078125,-0.4129638671875,-1069,-6351,-199,-54,11,-136
313924109,0.50787353515625,-0.5208740234375,0.5421142578125,-0.4205322265625,-713,-6449,-270,-64,11,-181
313934093,0.4913330078125,-0.538818359375,0.5322265625,-0.43011474609375,-241,-6793,-388,-72,10,-226
313944080,0.47161865234375,-0.5596923828125,0.51904296875,-0.44146728515625,307,-7325,-549,-79,8,-269
313954061,0.44903564453125,-0.5826416015625,0.502685546875,-0.45404052734375,919,-7835,-781,-83,5,-306
313964044,0.423828125,-0.60699462890625,0.48321533203125,-0.46734619140625,1535,-8276,-1039,-84,2,-337
313974030,0.39666748046875,-0.6317138671875,0.4609375,-0.48077392578125,2108,-8649,-1284,-84,-1,-359
313984009,0.36834716796875,-0.6558837890625,0.43646240234375,-0.49359130859375,2606,-8834,-1537,-80,-4,-370
313993996,0.33966064453125,-0.67877197265625,0.4105224609375,-0.50543212890625,3004,-8776,-1808,-76,-7,-372
314003981,0.3115234375,-0.69964599609375,0.38433837890625,-0.5155029296875,3279,-8491,-2097,-70,-10,-357
314013960,0.28509521484375,-0.71807861328125,0.35919189453125,-0.5235595703125,3482,-8023,-2365,-64,-12,-328
314023944,0.26129150390625,-0.733642578125,0.33648681640625,-0.5294189453125,3641,-7512,-2604,-58,-14,-287
314033925,0.240966796875,-0.746337890625,0.317138671875,-0.53326416015625,3766,-7006,-2775,-51,-15,-238
314043909,0.2247314453125,-0.756103515625,0.3021240234375,-0.53533935546875,3833,-6517,-2872,-44,-15,-182
314053892,0.212890625,-0.76312255859375,0.2918701171875,-0.53594970703125,3925,-6130,-2875,-38,-14,-122
314063877,0.20550537109375,-0.767333984375,0.286865234375,-0.535400390625,4095,-5833,-2780,-32,-11,-61
314073857,0.20233154296875,-0.76910400390625,0.287109375,-0.5340576171875,4271,-5628,-2643,-27,-8,-3
314083839,0.20294189453125,-0.7685546875,0.2919921875,-0.53192138671875,4400,-5495,-2486,-23,-4,48
314093820,0.20648193359375,-0.76611328125,0.30072021484375,-0.5291748046875,4398,-5405,-2352,-20,-1,86
314103807,0.2117919921875,-0.76239013671875,0.31170654296875,-0.526123046875,4364,-5334,-2250,-17,2,108
314113787,0.2177734375,-0.75799560546875,0.3233642578125,-0.52294921875,4393,-5328,-2215,-16,3,113
314123768,0.22320556640625,-0.75384521484375,0.33392333984375,-0.52001953125,4492,-5388,-2244,-14,3,98
314133759,0.22674560546875,-0.75079345703125,0.34173583984375,-0.517822265625,4602,-5410,-2352,-13,3,66
314143742,0.22760009765625,-0.74951171875,0.3458251953125,-0.5166015625,4752,-5402,-2545,-14,2,24
314153722,0.2255859375,-0.75018310546875,0.34613037109375,-0.51629638671875,4886,-5409,-2812,-15,2,-17
314163701,0.2210693359375,-0.75244140625,0.34320068359375,-0.51690673828125,5028,-5447,-3067,-17,3,-53
314173683,0.214599609375,-0.755859375,0.3377685546875,-0.51824951171875,5178,-5505,-3319,-17,3,-78
314183667,0.20709228515625,-0.7598876953125,0.33087158203125,-0.51983642578125,5389,-5590,-3551,-19,3,-91
314193650,0.1993408203125,-0.763916015625,0.3238525390625,-0.5213623046875,5641,-5684,-3753,-20,3,-89
314203635,0.19219970703125,-0.76739501953125,0.3179931640625,-0.5225830078125,5951,-5815,-3922,-21,3,-75
314213615,0.1861572265625,-0.77008056640625,0.3138427734375,-0.52337646484375,6157,-5868,-4092,-21,4,-55
314223596,0.18121337890625,-0.77197265625,0.31146240234375,-0.523681640625,6189,-5846,-4251,-22,5,-39
314233579,0.17694091796875,-0.77349853515625,0.310302734375,-0.52362060546875,6014,-5750,-4368,-22,5,-30
314243563,0.1728515625,-0.7750244140625,0.3095703125,-0.52313232421875,5747,-5604,-4473,-24,4,-28
314253548,0.16864013671875,-0.77679443359375,0.308837890625,-0.5223388671875,5383,-5369,-4509,-26,2,-31
314263542,0.16375732421875,-0.77923583984375,0.3072509765625,-0.52117919921875,4946,-5040,-4582,-28,-3,-43
314273516,0.15728759765625,-0.7830810546875,0.3033447265625,-0.5196533203125,4353,-4646,-4683,-30,-9,-72
314283498,0.148681640625,-0.788818359375,0.2958984375,-0.517822265625,3888,-4404,-4852,-31,-16,-112
314293480,0.13800048828125,-0.79620361328125,0.2845458984375,-0.515869140625,3603,-4185,-4935,-30,-24,-148
314303466,0.1260986328125,-0.80462646484375,0.27008056640625,-0.513671875,3352,-3992,-4958,-27,-31,-174
314313449,0.1131591796875,-0.81390380859375,0.25274658203125,-0.51080322265625,3032,-3777,-4940,-24,-40,-200
314323430,0.09906005859375,-0.82427978515625,0.23199462890625,-0.5069580078125,2680,-3511,-4935,-22,-51,-230
314333421,0.08392333984375,-0.8355712890625,0.2078857421875,-0.50164794921875,2470,-3336,-4948,-19,-65,-255
314343406,0.06890869140625,-0.84710693359375,0.181884765625,-0.49462890625,2628,-3283,-4945,-14,-81,-263
314353389,0.05535888671875,-0.858154296875,0.15594482421875,-0.486083984375,3316,-3271,-4938,-7,-95,-248
314363368,0.0445556640625,-0.86810302734375,0.13238525390625,-0.47637939453125,4090,-3115,-4918,1,-104,-212
314373350,0.03692626953125,-0.8770751953125,0.11273193359375,-0.465576171875,4721,-2787,-4889,7,-112,-167
314383330,0.032470703125,-0.88519287109375,0.09759521484375,-0.4537353515625,5077,-2347,-4916,13,-117,-119
314393312,0.0306396484375,-0.892822265625,0.08709716796875,-0.44091796875,5222,-1818,-4979,15,-123,-75
314403296,0.0308837890625,-0.900146484375,0.08099365234375,-0.427001953125,5303,-1315,-5105,14,-129,-34
314413280,0.03277587890625,-0.9071044921875,0.07916259765625,-0.41217041015625,5563,-878,-5295,11,-136,5
314423258,0.03607177734375,-0.91363525390625,0.08160400390625,-0.39666748046875,6037,-553,-5585,7,-141,43
314433238,0.0404052734375,-0.919677734375,0.08807373046875,-0.380615234375,6555,-307,-6028,2,-144,76
314443230,0.0452880859375,-0.9251708984375,0.09796142578125,-0.36395263671875,6930,-164,-6571,-5,-146,102
314453210,0.0501708984375,-0.93011474609375,0.1103515625,-0.3468017578125,7123,-79,-7097,-12,-146,120
314463192,0.05450439453125,-0.9344482421875,0.12457275390625,-0.32928466796875,7279,-17,-7443,-22,-146,132
314473183,0.0577392578125,-0.93804931640625,0.14007568359375,-0.31170654296875,7381,47,-7645,-33,-146,140
314483173,0.059814453125,-0.94097900390625,0.15679931640625,-0.29400634765625,7415,2,-7817,-45,-144,146
314493153,0.060791015625,-0.9432373046875,0.17425537109375,-0.27618408203125,7448,-163,-8042,-56,-142,149
314503124,0.0606689453125,-0.94482421875,0.19195556640625,-0.258544921875,7413,-447,-8299,-65,-139,146
314513106,0.05950927734375,-0.94586181640625,0.2088623046875,-0.2413330078125,7288,-793,-8506,-72,-132,135
314523090,0.05731201171875,-0.9466552734375,0.223876953125,-0.22479248046875,7042,-1156,-8616,-76,-126,115
314533074,0.0540771484375,-0.94757080078125,0.23590087890625,-0.2088623046875,6691,-1512,-8649,-79,-120,87
314543056,0.0499267578125,-0.9488525390625,0.24432373046875,-0.19366455078125,6280,-1774,-8586,-80,-115,54
314553040,0.0447998046875,-0.9508056640625,0.24884033203125,-0.17919921875,5881,-1942,-8486,-80,-110,21
314563021,0.0389404296875,-0.95330810546875,0.249755859375,-0.16546630859375,5526,-2034,-8452,-80,-105,-10
314573000,0.03240966796875,-0.956298828125,0.2476806640625,-0.15228271484375,5194,-2025,-8536,-79,-101,-32
314582990,0.02545166015625,-0.95947265625,0.2437744140625,-0.13934326171875,4884,-1959,-8690,-80,-98,-46
314592965,0.01812744140625,-0.96258544921875,0.23895263671875,-0.12646484375,4547,-1860,-8853,-82,-97,-51
314602949,0.01068115234375,-0.96551513671875,0.23406982421875,-0.11346435546875,4187,-1743,-9045,-83,-97,-50
314612931,0.003173828125,-0.96807861328125,0.22967529296875,-0.100341796875,3834,-1624,-9257,-84,-97,-45
314622915,-0.00421142578125,-0.97021484375,0.22613525390625,-0.08709716796875,3513,-1517,-9474,-84,-96,-36
314632899,-0.011474609375,-0.9718017578125,0.223876953125,-0.073974609375,3273,-1384,-9687,-84,-96,-25
314642881,-0.01861572265625,-0.9727783203125,0.22296142578125,-0.06109619140625,3158,-1239,-9891,-83,-95,-12
314652877,-0.0255126953125,-0.97308349609375,0.223876953125,-0.048828125,3177,-1110,-10087,-81,-92,4
314662852,-0.0321044921875,-0.97271728515625,0.22686767578125,-0.0374755859375,3284,-1014,-10179,-79,-87,23
314672835,-0.0384521484375,-0.97161865234375,0.2318115234375,-0.02740478515625,3402,-975,-10156,-76,-79,40
314682819,-0.04449462890625,-0.969970703125,0.238525390625,-0.018798828125,3503,-989,-10032,-72,-69,54
314692802,-0.05023193359375,-0.9677734375,0.24652099609375,-0.0118408203125,3617,-1020,-9839,-68,-57,65
314702785,-0.05584716796875,-0.96514892578125,0.25567626953125,-0.0067138671875,3744,-1006,-9621,-63,-44,76
314712766,-0.06121826171875,-0.9620361328125,0.2659912109375,-0.0035400390625,3810,-963,-9393,-58,-30,87
314722760,-0.06640625,-0.95855712890625,0.27716064453125,-0.0020751953125,3771,-917,-9171,-52,-17,95
314732741,-0.07135009765625,-0.9547119140625,0.28887939453125,-0.002197265625,3751,-829,-8991,-47,-4,99
314742718,-0.07611083984375,-0.95074462890625,0.30059814453125,-0.00408935546875,3705,-740,-8810,-41,9,99
314752697,-0.08056640625,-0.94677734375,0.3116455078125,-0.0074462890625,3585,-666,-8621,-35,21,94
314762680,-0.084716796875,-0.9429931640625,0.3216552734375,-0.01214599609375,3413,-602,-8526,-29,33,85
314772664,-0.08837890625,-0.9395751953125,0.33026123046875,-0.0179443359375,3160,-514,-8490,-22,43,74
314782646,-0.09161376953125,-0.93658447265625,0.33746337890625,-0.0245361328125,2790,-404,-8433,-15,51,63
314792635,-0.0943603515625,-0.9339599609375,0.34326171875,-0.03155517578125,2370,-298,-8315,-9,57,52
314802614,-0.0966796875,-0.93182373046875,0.34765625,-0.03912353515625,2072,-207,-8207,-3,62,41
314812595,-0.09869384765625,-0.9300537109375,0.3507080078125,-0.04754638671875,1971,-185,-8123,3,68,30
314822577,-0.1002197265625,-0.9288330078125,0.35223388671875,-0.05694580078125,2028,-285,-8088,9,75,17
314832559,-0.1011962890625,-0.92803955078125,0.35198974609375,-0.06781005859375,2291,-504,-8211,17,84,3
314842542,-0.1015625,-0.92767333984375,0.3502197265625,-0.0802001953125,2599,-716,-8473,26,94,-8
314852524,-0.101318359375,-0.92755126953125,0.34722900390625,-0.0938720703125,2760,-905,-8780,35,103,-16
314862506,-0.10028076171875,-0.92755126953125,0.34344482421875,-0.10833740234375,2676,-1066,-9027,44,110,-20
314872493,-0.09820556640625,-0.9273681640625,0.3394775390625,-0.12322998046875,2408,-1164,-9201,53,114,-18
314882473,-0.09521484375,-0.92681884765625,0.33599853515625,-0.13818359375,2016,-1136,-9283,61,115,-10
314892462,-0.09124755859375,-0.92572021484375,0.333740234375,-0.1529541015625,1590,-1002,-9364,68,113,4
314902438,-0.0863037109375,-0.9239501953125,0.3331298828125,-0.16717529296875,1123,-773,-9365,73,108,20
314912429,-0.08056640625,-0.92169189453125,0.33404541015625,-0.1802978515625,550,-449,-9239,76,99,33
314922416,-0.07415771484375,-0.919189453125,0.33599853515625,-0.19171142578125,-92,-28,-9006,77,86,41
314932397,-0.0673828125,-0.91680908203125,0.33843994140625,-0.20111083984375,-729,391,-8736,75,71,43
314942376,-0.0604248046875,-0.914794921875,0.3409423828125,-0.20806884765625,-1264,775,-8478,72,52,41
314952359,-0.05340576171875,-0.913330078125,0.34326171875,-0.2125244140625,-1716,1078,-8215,66,32,36
314962343,-0.04656982421875,-0.91253662109375,0.34527587890625,-0.2142333984375,-2061,1362,-7966,59,11,31
314972323,-0.03985595703125,-0.9124755859375,0.346923828125,-0.2132568359375,-2264,1587,-7739,51,-10,24
314982303,-0.03350830078125,-0.9132080078125,0.34796142578125,-0.20965576171875,-2345,1744,-7546,43,-31,15
314992293,-0.027587890625,-0.9146728515625,0.3480224609375,-0.2037353515625,-2229,1850,-7475,35,-50,4
315002268,-0.02227783203125,-0.9169921875,0.346923828125,-0.1956787109375,-1956,1885,-7508,27,-67,-9
315012246,-0.01763916015625,-0.9200439453125,0.34454345703125,-0.18585205078125,-1596,1902,-7581,19,-82,-22
315022237,-0.01373291015625,-0.92364501953125,0.34100341796875,-0.1744384765625,-1200,1945,-7679,11,-93,-33
315032220,-0.01055908203125,-0.92755126953125,0.33673095703125,-0.16180419921875,-761,1969,-7801,3,-103,-39
315042205,-0.00811767578125,-0.9315185546875,0.33203125,-0.14825439453125,-330,1986,-7920,-4,-110,-43
315052190,-0.0062255859375,-0.93536376953125,0.3272705078125,-0.134033203125,86,1931,-8013,-10,-115,-44
315062173,-0.0048828125,-0.93902587890625,0.32244873046875,-0.11944580078125,544,1831,-8146,-17,-118,-44
315072156,-0.0040283203125,-0.94219970703125,0.31817626953125,-0.10498046875,1140,1642,-8323,-21,-118,-39
315082127,-0.0035400390625,-0.94476318359375,0.31488037109375,-0.091064453125,1897,1411,-8501,-25,-117,-28
315092109,-0.00341796875,-0.9464111328125,0.31341552734375,-0.078125,2805,1207,-8701,-28,-113,-10
315102096,-0.00384521484375,-0.94696044921875,0.31439208984375,-0.0665283203125,3709,1026,-8942,-31,-105,12
315112076,-0.0048828125,-0.9464111328125,0.3179931640625,-0.056396484375,4449,822,-9128,-34,-94,34
315122060,-0.0062255859375,-0.9449462890625,0.32373046875,-0.04766845703125,4911,519,-9201,-36,-82,52
315132042,-0.00799560546875,-0.9427490234375,0.3309326171875,-0.0404052734375,5125,226,-9162,-38,-68,63
315142025,-0.01025390625,-0.940185546875,0.3388671875,-0.03472900390625,5176,-85,-9028,-39,-53,68
315152009,-0.0128173828125,-0.93731689453125,0.3470458984375,-0.03057861328125,5155,-420,-8893,-38,-39,69
315161995,-0.0155029296875,-0.934326171875,0.3551025390625,-0.02813720703125,5066,-727,-8732,-36,-26,68
315171984,-0.0181884765625,-0.9312744140625,0.3629150390625,-0.02728271484375,4949,-994,-8654,-31,-13,67
315181957,-0.020751953125,-0.92822265625,0.37042236328125,-0.02789306640625,4791,-1201,-8630,-27,-1,64
315191944,-0.02301025390625,-0.92529296875,0.37744140625,-0.02978515625,4553,-1409,-8598,-21,9,59
315201926,-0.02484130859375,-0.922607421875,0.38360595703125,-0.03277587890625,4338,-1654,-8530,-14,17,52
315211909,-0.02606201171875,-0.9202880859375,0.38873291015625,-0.037109375,4188,-1936,-8432,-7,26,42
315221895,-0.02679443359375,-0.91839599609375,0.3924560546875,-0.04290771484375,4083,-2216,-8335,2,36,30
315231877,-0.02691650390625,-0.917236328125,0.39434814453125,-0.05010986328125,3988,-2438,-8251,11,46,14
315241859,-0.02655029296875,-0.91680908203125,0.3941650390625,-0.058837890625,3899,-2626,-8233,21,56,-5
315251837,-0.02569580078125,-0.9171142578125,0.391845703125,-0.0689697265625,3900,-2766,-8271,30,66,-22
315261820,-0.02435302734375,-0.91790771484375,0.3878173828125,-0.08062744140625,3991,-2841,-8393,40,75,-34
315271803,-0.02252197265625,-0.9188232421875,0.38275146484375,-0.09368896484375,4037,-2829,-8541,50,84,-41
315281787,-0.0201416015625,-0.919677734375,0.3770751953125,-0.10797119140625,3992,-2733,-8603,61,94,-43
315291767,-0.01727294921875,-0.92022705078125,0.37109375,-0.12347412109375,3980,-2561,-8526,70,103,-44
315301761,-0.01409912109375,-0.92047119140625,0.36456298828125,-0.1402587890625,3930,-2290,-8372,78,113,-47
315311741,-0.0107421875,-0.9205322265625,0.35711669921875,-0.158203125,3873,-2060,-8249,86,123,-53
315321721,-0.00714111328125,-0.92034912109375,0.34844970703125,-0.177490234375,3910,-2003,-8315,94,134,-61
315331705,-0.00311279296875,-0.91973876953125,0.3389892578125,-0.197998046875,3954,-2118,-8544,100,143,-65
315341687,0.00152587890625,-0.9183349609375,0.32952880859375,-0.21923828125,3849,-2307,-8777,106,151,-60
315351670,0.00732421875,-0.91583251953125,0.32122802734375,-0.24090576171875,3599,-2608,-8941,113,157,-44
315361655,0.0146484375,-0.91192626953125,0.3150634765625,-0.2626953125,3311,-2898,-9004,120,159,-22
315371643,0.02337646484375,-0.90643310546875,0.31134033203125,-0.284423828125,3095,-3118,-9079,126,160,3
315381621,0.0335693359375,-0.899658203125,0.309814453125,-0.305908203125,2853,-3289,-9204,133,159,25
315391604,0.0450439453125,-0.89190673828125,0.309814453125,-0.32647705078125,2398,-3251,-9276,139,155,40
315401588,0.05743408203125,-0.88360595703125,0.31072998046875,-0.34552001953125,1729,-2983,-9141,142,146,51
315411571,0.070556640625,-0.8751220703125,0.3125,-0.36273193359375,1015,-2510,-8780,142,133,61
315421554,0.08404541015625,-0.86663818359375,0.31512451171875,-0.3775634765625,380,-1911,-8311,139,114,72
315431542,0.09783935546875,-0.85858154296875,0.318603515625,-0.38958740234375,-180,-1298,-7834,132,91,79
315441519,0.11114501953125,-0.85150146484375,0.32232666015625,-0.39849853515625,-709,-652,-7413,120,67,77
315451502,0.123291015625,-0.8460693359375,0.32537841796875,-0.40399169921875,-1223,10,-7005,104,40,66
315461486,0.1336669921875,-0.84271240234375,0.32720947265625,-0.40618896484375,-1643,602,-6583,85,14,49
315471471,0.14202880859375,-0.841552734375,0.327880859375,-0.40521240234375,-1947,1122,-6201,64,-13,33
315481449,0.1483154296875,-0.842529296875,0.3277587890625,-0.40093994140625,-2038,1543,-5884,41,-39,20
315491438,0.15252685546875,-0.84552001953125,0.32708740234375,-0.3935546875,-1899,1770,-5669,18,-63,9
315501416,0.15478515625,-0.85028076171875,0.3260498046875,-0.3831787109375,-1636,1823,-5628,-5,-86,0
315511399,0.15509033203125,-0.85662841796875,0.32476806640625,-0.36981201171875,-1346,1835,-5794,-28,-107,-8
315521374,0.15325927734375,-0.86431884765625,0.3233642578125,-0.3533935546875,-1088,1881,-6188,-49,-125,-14
315531355,0.14947509765625,-0.87310791015625,0.32208251953125,-0.3341064453125,-930,1896,-6724,-70,-142,-17
315541350,0.14404296875,-0.88262939453125,0.321044921875,-0.31182861328125,-877,1861,-7315,-91,-159,-18
315551326,0.13702392578125,-0.89239501953125,0.3204345703125,-0.28668212890625,-854,1797,-7903,-111,-175,-17
315561308,0.12860107421875,-0.902099609375,0.3203125,-0.259033203125,-746,1669,-8553,-129,-189,-13
315571293,0.11895751953125,-0.91131591796875,0.32073974609375,-0.22930908203125,-478,1447,-9276,-144,-201,-8
315581277,0.108154296875,-0.919677734375,0.3212890625,-0.19830322265625,-19,1128,-9960,-157,-209,-7
315591261,0.09619140625,-0.92724609375,0.32122802734375,-0.16680908203125,587,742,-10708,-167,-212,-12
315601240,0.0831298828125,-0.93402099609375,0.31982421875,-0.1356201171875,1310,385,-11454,-174,-211,-23
315611232,0.06915283203125,-0.940185546875,0.31646728515625,-0.105712890625,2129,97,-11966,-178,-205,-39
315621215,0.054443359375,-0.94573974609375,0.31085205078125,-0.077392578125,2860,-126,-12244,-179,-196,-56
315631195,0.03955078125,-0.95068359375,0.303466796875,-0.05120849609375,3426,-364,-12355,-176,-183,-69
315641187,0.02471923828125,-0.954833984375,0.2950439453125,-0.02716064453125,3944,-555,-12339,-172,-168,-74
315651173,0.01007080078125,-0.95806884765625,0.28643798828125,-0.005859375,4408,-842,-12192,-167,-152,-73
315661153,-0.00384521484375,-0.96051025390625,0.27789306640625,0.01336669921875,4434,-1115,-11881,-159,-136,-72
315671123,-0.01690673828125,-0.96240234375,0.26953125,0.03057861328125,4296,-1448,-11501,-150,-119,-69
315681108,-0.02899169921875,-0.96356201171875,0.26202392578125,0.0455322265625,4091,-1765,-11154,-140,-103,-58
315691091,-0.04034423828125,-0.9638671875,0.2568359375,0.05804443359375,3899,-1968,-10833,-129,-86,-34
315701078,-0.051025390625,-0.9630126953125,0.25567626953125,0.068115234375,3620,-2127,-10496,-118,-70,3
315711057,-0.06097412109375,-0.9609375,0.25909423828125,0.07598876953125,3211,-2244,-10161,-107,-54,43
315721040,-0.07025146484375,-0.957763671875,0.2666015625,0.0819091796875,2667,-2269,-9799,-96,-40,76
315731022,-0.078857421875,-0.95379638671875,0.27679443359375,0.08624267578125,2069,-2218,-9439,-85,-28,97
315741005,-0.086669921875,-0.94952392578125,0.2880859375,0.08905029296875,1534,-2126,-9126,-74,-17,103
315750992,-0.09356689453125,-0.9453125,0.29913330078125,0.09051513671875,1117,-1995,-8871,-64,-8,99
315760977,-0.09954833984375,-0.94146728515625,0.30914306640625,0.09075927734375,794,-1843,-8669,-53,0,89
315770952,-0.10443115234375,-0.93804931640625,0.31787109375,0.0899658203125,475,-1631,-8460,-42,7,78
315780938,-0.10833740234375,-0.93524169921875,0.32525634765625,0.088623046875,115,-1381,-8247,-32,12,65
315790919,-0.11114501953125,-0.9329833984375,0.33111572265625,0.08697509765625,-265,-1108,-8031,-23,15,52
315800901,-0.11309814453125,-0.93133544921875,0.3355712890625,0.08526611328125,-620,-818,-7861,-15,16,40
315810884,-0.11419677734375,-0.9300537109375,0.339111328125,0.08343505859375,-920,-545,-7721,-8,16,33
315820864,-0.11444091796875,-0.928955078125,0.34259033203125,0.0816650390625,-1155,-297,-7623,-1,15,33
315830851,-0.1141357421875,-0.9276123046875,0.3466796875,0.07958984375,-1261,-63,-7583,5,13,40
315840833,-0.11328125,-0.9259033203125,0.35205078125,0.07733154296875,-1282,154,-7633,11,11,51
315850816,-0.11187744140625,-0.9237060546875,0.358642578125,0.07489013671875,-1250,394,-7725,16,8,61
315860798,-0.1099853515625,-0.92108154296875,0.36639404296875,0.07257080078125,-1252,653,-7779,20,5,70
315870784,-0.1077880859375,-0.91815185546875,0.37481689453125,0.07049560546875,-1250,882,-7830,23,1,75
315880772,-0.1051025390625,-0.91497802734375,0.38348388671875,0.0687255859375,-1206,1080,-7929,26,-3,76
315890752,-0.10211181640625,-0.9117431640625,0.3922119140625,0.0672607421875,-1098,1249,-8055,28,-7,75
315900735,-0.0987548828125,-0.908447265625,0.40081787109375,0.06591796875,-903,1346,-8173,30,-11,73
315910711,-0.0950927734375,-0.90533447265625,0.40887451171875,0.06463623046875,-637,1396,-8319,32,-12,67
315920694,-0.091064453125,-0.902587890625,0.416015625,0.06317138671875,-271,1392,-8508,34,-13,58
315930677,-0.08685302734375,-0.90032958984375,0.422119140625,0.06146240234375,59,1409,-8722,36,-13,48
315940661,-0.08245849609375,-0.8984375,0.42718505859375,0.059814453125,270,1445,-8894,37,-13,40
315950642,-0.0780029296875,-0.8968505859375,0.4315185546875,0.05828857421875,387,1509,-8991,39,-13,33
315960626,-0.07342529296875,-0.8955078125,0.43536376953125,0.0567626953125,451,1544,-9028,39,-12,30
315970609,-0.06890869140625,-0.8941650390625,0.43896484375,0.05517578125,494,1571,-9031,39,-12,29
315980592,-0.064453125,-0.89288330078125,0.4425048828125,0.05352783203125,521,1590,-9033,39,-10,28
315990574,-0.06005859375,-0.89154052734375,0.4459228515625,0.05181884765625,547,1568,-9017,39,-10,28
316000558,-0.05572509765625,-0.89031982421875,0.44921875,0.0499267578125,544,1528,-8963,39,-8,26
316010542,-0.051513671875,-0.88909912109375,0.4522705078125,0.0479736328125,514,1488,-8888,39,-7,25
316020524,-0.04730224609375,-0.88787841796875,0.45538330078125,0.04595947265625,451,1455,-8804,39,-6,26
316030508,-0.04327392578125,-0.88653564453125,0.4586181640625,0.04400634765625,389,1460,-8747,38,-5,28
316040494,-0.03955078125,-0.88482666015625,0.46234130859375,0.0419921875,372,1506,-8732,37,-4,34
316050478,-0.03619384765625,-0.88275146484375,0.46673583984375,0.03997802734375,386,1568,-8753,35,-4,40
316060461,-0.03314208984375,-0.88031005859375,0.47174072265625,0.0380859375,365,1601,-8757,33,-3,46
316070449,-0.0303955078125,-0.8775634765625,0.47711181640625,0.03631591796875,330,1615,-8718,30,-3,48
316080431,-0.02789306640625,-0.87481689453125,0.482421875,0.0347900390625,281,1605,-8675,27,-3,48
316090415,-0.02569580078125,-0.8721923828125,0.48736572265625,0.0333251953125,240,1568,-8650,24,-2,44
316100398,-0.02374267578125,-0.86968994140625,0.4920654296875,0.03204345703125,226,1541,-8625,22,-2,42
316110373,-0.022216796875,-0.86712646484375,0.49664306640625,0.0308837890625,241,1537,-8615,19,-2,42
316120355,-0.02105712890625,-0.864501953125,0.5013427734375,0.02978515625,308,1529,-8632,16,-1,44
316130350,-0.02032470703125,-0.86175537109375,0.506103515625,0.0286865234375,373,1501,-8662,13,0,45
316140325,-0.0198974609375,-0.8590087890625,0.5108642578125,0.02764892578125,438,1479,-8691,10,1,44
316150306,-0.0198974609375,-0.85638427734375,0.5152587890625,0.0267333984375,497,1440,-8727,7,2,40
316160293,-0.02020263671875,-0.85406494140625,0.51910400390625,0.0257568359375,538,1365,-8759,4,3,35
316170272,-0.020751953125,-0.8521728515625,0.52227783203125,0.02484130859375,575,1298,-8795,1,4,29
316180256,-0.0216064453125,-0.85052490234375,0.52496337890625,0.02398681640625,582,1230,-8811,-1,6,24
316190239,-0.022705078125,-0.84912109375,0.5272216796875,0.023193359375,573,1179,-8814,-3,7,21
316200222,-0.0240478515625,-0.8477783203125,0.52935791015625,0.0224609375,555,1150,-8824,-5,8,20
316210208,-0.02557373046875,-0.846435546875,0.531494140625,0.02178955078125,515,1108,-8813,-7,8,21
316220186,-0.02728271484375,-0.844970703125,0.53369140625,0.02117919921875,471,1064,-8778,-9,9,21
316230180,-0.0291748046875,-0.84356689453125,0.535888671875,0.02056884765625,438,990,-8738,-10,10,21
316240161,-0.03118896484375,-0.8421630859375,0.5379638671875,0.02001953125,422,899,-8687,-11,10,20
316250139,-0.03326416015625,-0.8408203125,0.5399169921875,0.01947021484375,389,817,-8634,-12,10,19
316262995,-0.0352783203125,-0.83953857421875,0.54180908203125,0.01885986328125,383,724,-8605,-12,11,18
316270100,-0.0372314453125,-0.8382568359375,0.543701171875,0.01824951171875,346,664,-8573,-13,11,18
316280081,-0.03924560546875,-0.83697509765625,0.5455322265625,0.0177001953125,294,587,-8535,-13,11,18
316290065,-0.04107666015625,-0.835693359375,0.54736328125,0.01727294921875,226,526,-8487,-13,10,18
316300051,-0.04278564453125,-0.83447265625,0.5491943359375,0.01690673828125,151,483,-8436,-12,9,18
316310029,-0.04443359375,-0.833251953125,0.55084228515625,0.0167236328125,75,435,-8370,-12,9,16
316320012,-0.0458984375,-0.832275390625,0.55224609375,0.01641845703125,52,374,-8343,-11,8,14
316329996,-0.04718017578125,-0.8314208984375,0.55340576171875,0.01617431640625,48,318,-8326,-10,7,11
