subject,Two-hands and jerked
arm,neither
label,0
hz,100.17108619635984
time,4.652041

timestamp_us,q0,q1,q2,q3,ax,ay,az,gx,gy,gz
281317433,-0.557861328125,-0.67755126953125,0.444580078125,-0.17926025390625,6079,4525,-2518,14,17,-6
281327426,-0.5577392578125,-0.67840576171875,0.44268798828125,-0.18109130859375,6067,4562,-2512,14,16,-6
281337409,-0.5574951171875,-0.6793212890625,0.44085693359375,-0.1827392578125,6055,4591,-2486,14,14,-7
281347391,-0.5572509765625,-0.68023681640625,0.4390869140625,-0.18426513671875,6051,4638,-2469,13,13,-7
281357368,-0.5570068359375,-0.68115234375,0.43743896484375,-0.18560791015625,6041,4697,-2440,13,11,-7
281367351,-0.5567626953125,-0.68212890625,0.43585205078125,-0.18670654296875,6041,4790,-2428,12,10,-7
281377335,-0.55645751953125,-0.6829833984375,0.4344482421875,-0.1876220703125,6052,4861,-2433,11,8,-6
281387316,-0.55615234375,-0.683837890625,0.4332275390625,-0.1883544921875,6064,4915,-2462,10,6,-6
281397298,-0.555908203125,-0.68463134765625,0.4320068359375,-0.1888427734375,6054,4975,-2478,8,5,-7
281407282,-0.5556640625,-0.68548583984375,0.430908203125,-0.18902587890625,6025,5003,-2493,7,3,-8
281417266,-0.55548095703125,-0.68634033203125,0.42974853515625,-0.18896484375,5998,5031,-2483,6,2,-10
281427241,-0.555419921875,-0.687255859375,0.42864990234375,-0.18853759765625,5949,5064,-2473,4,0,-11
281437233,-0.555419921875,-0.6881103515625,0.42755126953125,-0.187744140625,5933,5085,-2438,3,-2,-12
281447207,-0.55548095703125,-0.68890380859375,0.4266357421875,-0.18670654296875,5907,5106,-2419,1,-4,-13
281457187,-0.5555419921875,-0.689697265625,0.4259033203125,-0.18536376953125,5895,5129,-2421,-1,-6,-12
281467177,-0.5556640625,-0.6903076171875,0.42535400390625,-0.1839599609375,5883,5150,-2437,-2,-8,-11
281477160,-0.55584716796875,-0.69073486328125,0.42510986328125,-0.182373046875,5855,5153,-2454,-4,-9,-10
281487139,-0.55596923828125,-0.69110107421875,0.4251708984375,-0.18072509765625,5803,5136,-2467,-6,-10,-8
281497113,-0.5560302734375,-0.6912841796875,0.4254150390625,-0.178955078125,5754,5090,-2470,-7,-12,-7
281507097,-0.55621337890625,-0.69134521484375,0.4259033203125,-0.17706298828125,5722,5055,-2456,-8,-13,-7
281517082,-0.556396484375,-0.6912841796875,0.426513671875,-0.175048828125,5702,5019,-2413,-9,-14,-6
281527064,-0.5567626953125,-0.691162109375,0.42718505859375,-0.1729736328125,5728,5026,-2387,-11,-15,-6
281537051,-0.55718994140625,-0.69085693359375,0.427978515625,-0.1707763671875,5793,5053,-2420,-13,-15,-5
281547029,-0.55767822265625,-0.6904296875,0.4288330078125,-0.1685791015625,5877,5101,-2466,-14,-15,-5
281557012,-0.558349609375,-0.68988037109375,0.4298095703125,-0.16644287109375,5969,5137,-2547,-16,-14,-4
281566996,-0.55914306640625,-0.6890869140625,0.4307861328125,-0.1644287109375,6029,5156,-2606,-18,-12,-3
281576984,-0.56011962890625,-0.6881103515625,0.4317626953125,-0.16253662109375,6065,5163,-2636,-19,-10,-2
281586974,-0.561279296875,-0.6868896484375,0.43280029296875,-0.160888671875,6073,5177,-2630,-20,-9,0
281596946,-0.56256103515625,-0.6854248046875,0.43402099609375,-0.15948486328125,6077,5219,-2615,-21,-7,4
281606928,-0.5640869140625,-0.68359375,0.43536376953125,-0.15838623046875,6111,5293,-2553,-23,-6,8
281616912,-0.56573486328125,-0.6812744140625,0.43701171875,-0.15771484375,6225,5364,-2526,-24,-4,12
281626895,-0.5675048828125,-0.67864990234375,0.43890380859375,-0.157470703125,6362,5435,-2531,-26,-1,16
281636883,-0.5694580078125,-0.67578125,0.4407958984375,-0.15765380859375,6465,5461,-2542,-27,2,18
281646862,-0.57159423828125,-0.67266845703125,0.4425048828125,-0.1580810546875,6488,5443,-2510,-27,5,19
281656846,-0.57391357421875,-0.6695556640625,0.44403076171875,-0.1588134765625,6449,5386,-2394,-26,9,18
281666828,-0.5762939453125,-0.66650390625,0.4451904296875,-0.15972900390625,6356,5283,-2235,-25,11,17
281676810,-0.57879638671875,-0.66357421875,0.44598388671875,-0.1607666015625,6274,5158,-2066,-23,13,14
281686793,-0.58135986328125,-0.66094970703125,0.44622802734375,-0.1617431640625,6197,5052,-1912,-22,14,10
281696775,-0.5838623046875,-0.65875244140625,0.44580078125,-0.1624755859375,6136,4968,-1765,-19,16,2
281706768,-0.58648681640625,-0.65716552734375,0.4447021484375,-0.162841796875,6104,4923,-1613,-17,17,-5
281716747,-0.589111328125,-0.65606689453125,0.44268798828125,-0.16290283203125,6089,4927,-1476,-14,18,-13
281726722,-0.591796875,-0.655517578125,0.4400634765625,-0.1627197265625,6063,4931,-1322,-12,19,-19
281736706,-0.5943603515625,-0.65545654296875,0.4368896484375,-0.162353515625,5997,4926,-1183,-8,19,-24
281746690,-0.5966796875,-0.65576171875,0.433349609375,-0.161865234375,5916,4910,-1064,-5,19,-27
281756672,-0.5987548828125,-0.65643310546875,0.4296875,-0.16143798828125,5838,4892,-985,-2,18,-28
281766659,-0.60040283203125,-0.6573486328125,0.426025390625,-0.16119384765625,5747,4896,-939,2,18,-27
281776643,-0.6016845703125,-0.65850830078125,0.42242431640625,-0.16107177734375,5632,4893,-896,6,17,-26
281786628,-0.60260009765625,-0.65997314453125,0.4188232421875,-0.16094970703125,5479,4878,-851,9,15,-27
281796611,-0.6031494140625,-0.66180419921875,0.41522216796875,-0.16082763671875,5306,4848,-799,13,13,-27
281806594,-0.603271484375,-0.66400146484375,0.41162109375,-0.16058349609375,5121,4836,-763,17,11,-28
281816578,-0.6029052734375,-0.66656494140625,0.40814208984375,-0.16033935546875,4941,4828,-747,21,8,-27
281826561,-0.60198974609375,-0.6693115234375,0.405029296875,-0.16021728515625,4819,4833,-773,25,5,-24
281836543,-0.6004638671875,-0.6722412109375,0.40228271484375,-0.160400390625,4775,4844,-822,30,3,-20
281846521,-0.598388671875,-0.67529296875,0.4000244140625,-0.16094970703125,4850,4899,-929,33,1,-16
281856505,-0.595703125,-0.678466796875,0.3983154296875,-0.16192626953125,4977,4973,-1075,37,-1,-11
281866484,-0.59246826171875,-0.6817626953125,0.39697265625,-0.16339111328125,5074,5028,-1262,42,-2,-6
281876468,-0.58868408203125,-0.6851806640625,0.39593505859375,-0.16522216796875,5132,5107,-1449,46,-2,-2
281886455,-0.58447265625,-0.68865966796875,0.39520263671875,-0.1673583984375,5171,5213,-1589,49,-4,1
281896433,-0.57977294921875,-0.69232177734375,0.39471435546875,-0.16973876953125,5194,5314,-1724,53,-5,5
281906425,-0.57464599609375,-0.69610595703125,0.3944091796875,-0.17230224609375,5194,5404,-1870,56,-6,7
281916411,-0.56915283203125,-0.699951171875,0.39434814453125,-0.17510986328125,5227,5406,-2012,59,-7,9
281926396,-0.56329345703125,-0.70391845703125,0.3944091796875,-0.1781005859375,5290,5388,-2190,62,-8,11
281936375,-0.55694580078125,-0.7080078125,0.3946533203125,-0.18121337890625,5368,5410,-2416,64,-9,13
281946356,-0.5501708984375,-0.71209716796875,0.39520263671875,-0.18463134765625,5444,5472,-2661,67,-10,17
281956339,-0.54302978515625,-0.716064453125,0.39617919921875,-0.188232421875,5497,5563,-2910,69,-11,22
281966321,-0.53546142578125,-0.72003173828125,0.39752197265625,-0.19195556640625,5546,5643,-3159,71,-13,26
281976307,-0.52764892578125,-0.72393798828125,0.399169921875,-0.195556640625,5554,5700,-3353,71,-16,27
281986293,-0.51959228515625,-0.7279052734375,0.40081787109375,-0.19903564453125,5575,5715,-3513,72,-18,27
281996271,-0.51141357421875,-0.73193359375,0.4024658203125,-0.2021484375,5625,5690,-3681,73,-20,25
282006256,-0.50299072265625,-0.736083984375,0.40399169921875,-0.20501708984375,5707,5664,-3879,74,-22,22
282016242,-0.49444580078125,-0.74053955078125,0.40521240234375,-0.20745849609375,5780,5653,-4152,74,-24,18
282026226,-0.48583984375,-0.74530029296875,0.4058837890625,-0.2093505859375,5806,5681,-4439,75,-25,11
282036209,-0.47735595703125,-0.75048828125,0.40570068359375,-0.21051025390625,5763,5733,-4671,75,-26,2
282046190,-0.46917724609375,-0.756103515625,0.40460205078125,-0.21087646484375,5693,5824,-4855,74,-26,-8
282056179,-0.46148681640625,-0.761962890625,0.40277099609375,-0.21063232421875,5606,5947,-4984,72,-26,-15
282066161,-0.4542236328125,-0.767578125,0.40057373046875,-0.2100830078125,5487,5944,-5028,68,-25,-17
282076138,-0.44744873046875,-0.77294921875,0.39825439453125,-0.20928955078125,5342,5866,-5026,64,-24,-20
282086114,-0.441162109375,-0.7783203125,0.39544677734375,-0.2081298828125,5175,5720,-5019,60,-24,-26
282096097,-0.43524169921875,-0.7838134765625,0.39202880859375,-0.20648193359375,5005,5541,-5018,58,-24,-34
282106081,-0.42962646484375,-0.78948974609375,0.3878173828125,-0.20428466796875,4803,5369,-5015,56,-24,-43
282116064,-0.42437744140625,-0.79547119140625,0.3829345703125,-0.20147705078125,4579,5205,-5004,54,-25,-49
282126051,-0.419189453125,-0.80145263671875,0.377685546875,-0.19830322265625,4403,5067,-5002,53,-26,-53
282136031,-0.41400146484375,-0.80731201171875,0.37274169921875,-0.19500732421875,4304,5008,-5047,52,-27,-49
282146015,-0.40875244140625,-0.81256103515625,0.36865234375,-0.19207763671875,4336,5035,-5164,50,-27,-39
282156000,-0.40338134765625,-0.81695556640625,0.365966796875,-0.18975830078125,4450,5097,-5350,47,-27,-24
282165986,-0.3980712890625,-0.82049560546875,0.36474609375,-0.18792724609375,4572,5191,-5518,43,-28,-11
282175959,-0.392822265625,-0.8233642578125,0.36480712890625,-0.1864013671875,4607,5229,-5672,39,-28,-1
282185946,-0.3878173828125,-0.82574462890625,0.36553955078125,-0.18487548828125,4536,5149,-5749,35,-30,3
282195930,-0.3829345703125,-0.828125,0.36627197265625,-0.18292236328125,4356,4978,-5782,33,-31,0
282205914,-0.37811279296875,-0.83087158203125,0.3663330078125,-0.1802978515625,4116,4764,-5832,32,-33,-10
282215898,-0.373291015625,-0.8343505859375,0.36517333984375,-0.1767578125,3898,4543,-5879,33,-37,-23
282225882,-0.3682861328125,-0.8385009765625,0.36285400390625,-0.17236328125,3754,4380,-5962,36,-40,-36
282235865,-0.363037109375,-0.84320068359375,0.35955810546875,-0.167236328125,3643,4312,-6122,38,-44,-45
282245849,-0.35760498046875,-0.8482666015625,0.35565185546875,-0.16168212890625,3574,4323,-6260,40,-46,-50
282255831,-0.35198974609375,-0.8533935546875,0.3515625,-0.1558837890625,3514,4324,-6396,42,-48,-51
282265812,-0.3460693359375,-0.85845947265625,0.34759521484375,-0.14996337890625,3490,4301,-6528,43,-50,-49
282275796,-0.33966064453125,-0.86346435546875,0.343994140625,-0.14422607421875,3501,4275,-6663,46,-52,-46
282285784,-0.332763671875,-0.8682861328125,0.34088134765625,-0.138671875,3522,4265,-6794,49,-54,-41
282295768,-0.32525634765625,-0.872802734375,0.338623046875,-0.13336181640625,3561,4308,-6941,53,-56,-31
282305751,-0.31719970703125,-0.876708984375,0.3380126953125,-0.1285400390625,3550,4380,-7091,55,-58,-14
282315738,-0.30859375,-0.879638671875,0.3399658203125,-0.12445068359375,3498,4405,-7184,56,-60,12
282325710,-0.2994384765625,-0.88134765625,0.3448486328125,-0.12103271484375,3430,4337,-7235,56,-63,39
282335692,-0.289794921875,-0.8819580078125,0.3524169921875,-0.1182861328125,3424,4174,-7255,55,-66,61
282345675,-0.27960205078125,-0.8817138671875,0.36187744140625,-0.11602783203125,3504,3941,-7291,56,-69,76
282355659,-0.26904296875,-0.880859375,0.37249755859375,-0.1138916015625,3585,3693,-7343,56,-72,85
282365641,-0.25823974609375,-0.879638671875,0.3836669921875,-0.1116943359375,3669,3440,-7467,56,-74,88
282375625,-0.24713134765625,-0.8782958984375,0.39447021484375,-0.1092529296875,3737,3208,-7645,57,-76,84
282385607,-0.2359619140625,-0.877197265625,0.40447998046875,-0.10638427734375,3771,2985,-7814,57,-78,75
282395591,-0.224609375,-0.87646484375,0.4132080078125,-0.10302734375,3813,2784,-7910,59,-80,64
282405576,-0.21337890625,-0.8760986328125,0.4207763671875,-0.09942626953125,3851,2600,-7929,59,-80,55
282415558,-0.2021484375,-0.8758544921875,0.4276123046875,-0.09588623046875,3928,2396,-7912,60,-80,49
282425542,-0.19097900390625,-0.875732421875,0.43365478515625,-0.0924072265625,3998,2196,-7917,61,-78,43
282435523,-0.179931640625,-0.8758544921875,0.4388427734375,-0.0892333984375,4107,2012,-7950,62,-75,35
282445507,-0.1690673828125,-0.8763427734375,0.44281005859375,-0.08636474609375,4239,1809,-7988,63,-72,25
282455491,-0.158447265625,-0.87713623046875,0.445556640625,-0.0838623046875,4348,1639,-8024,64,-68,15
282465474,-0.14813232421875,-0.87823486328125,0.44732666015625,-0.081787109375,4435,1479,-8086,64,-64,9
282475456,-0.13818359375,-0.8792724609375,0.44873046875,-0.08013916015625,4456,1389,-8165,63,-58,8
282485437,-0.1287841796875,-0.880126953125,0.45013427734375,-0.078857421875,4413,1392,-8254,62,-53,11
282495428,-0.1199951171875,-0.880615234375,0.45172119140625,-0.07781982421875,4322,1455,-8317,58,-48,13
282505411,-0.112060546875,-0.88092041015625,0.453369140625,-0.07708740234375,4172,1551,-8356,54,-42,15
282515394,-0.10498046875,-0.881103515625,0.45477294921875,-0.076416015625,3910,1665,-8345,50,-37,11
282525370,-0.09869384765625,-0.88165283203125,0.455322265625,-0.0755615234375,3554,1729,-8254,44,-34,3
282535350,-0.09326171875,-0.882568359375,0.454833984375,-0.07440185546875,3188,1786,-8117,39,-31,-7
282545330,-0.08856201171875,-0.8837890625,0.45361328125,-0.07293701171875,2840,1813,-8015,32,-29,-12
282555312,-0.08465576171875,-0.88494873046875,0.452392578125,-0.07110595703125,2544,1870,-7953,26,-29,-11
282565296,-0.08148193359375,-0.8858642578125,0.45159912109375,-0.069091796875,2313,1874,-7892,19,-27,-7
282575280,-0.0791015625,-0.886474609375,0.4510498046875,-0.06683349609375,2152,1839,-7830,12,-25,-6
282585262,-0.07757568359375,-0.88726806640625,0.45013427734375,-0.064453125,2012,1803,-7821,6,-24,-12
282595237,-0.07672119140625,-0.888671875,0.4478759765625,-0.061767578125,1887,1755,-7851,0,-22,-26
282605229,-0.0765380859375,-0.8907470703125,0.44415283203125,-0.058837890625,1773,1701,-7897,-5,-22,-40
282615210,-0.076904296875,-0.893310546875,0.43939208984375,-0.05548095703125,1623,1646,-7923,-10,-22,-48
282625191,-0.0777587890625,-0.8958740234375,0.4344482421875,-0.05157470703125,1443,1608,-8015,-15,-24,-48
282635184,-0.07891845703125,-0.898193359375,0.42999267578125,-0.0472412109375,1296,1548,-8200,-20,-25,-43
282645167,-0.08038330078125,-0.90020751953125,0.4259033203125,-0.0426025390625,1238,1394,-8388,-25,-26,-41
282655142,-0.08209228515625,-0.90240478515625,0.4212646484375,-0.03790283203125,1179,1250,-8503,-27,-27,-49
282665120,-0.08392333984375,-0.90533447265625,0.41510009765625,-0.0328369140625,1120,1111,-8560,-29,-28,-64
282675102,-0.08575439453125,-0.908935546875,0.4071044921875,-0.02734375,1113,917,-8562,-31,-31,-81
282685086,-0.08740234375,-0.9130859375,0.39776611328125,-0.021484375,1077,733,-8547,-30,-34,-91
282695072,-0.08868408203125,-0.91729736328125,0.387939453125,-0.0152587890625,985,593,-8543,-30,-38,-93
282705054,-0.0897216796875,-0.9212646484375,0.37841796875,-0.008544921875,825,554,-8633,-29,-42,-88
282715039,-0.09039306640625,-0.92486572265625,0.36944580078125,-0.00128173828125,731,549,-8816,-29,-46,-84
282725021,-0.0908203125,-0.9283447265625,0.36053466796875,0.0062255859375,760,525,-8997,-27,-51,-85
282735005,-0.09075927734375,-0.93194580078125,0.350830078125,0.01373291015625,870,484,-9084,-24,-53,-93
282744992,-0.09027099609375,-0.93585205078125,0.340087890625,0.0211181640625,982,428,-9084,-20,-54,-103
282754975,-0.0892333984375,-0.93988037109375,0.328369140625,0.0286865234375,960,418,-9091,-17,-56,-110
282764951,-0.08758544921875,-0.94390869140625,0.31640625,0.03656005859375,718,381,-9004,-14,-58,-110
282774935,-0.0855712890625,-0.94744873046875,0.3050537109375,0.04498291015625,157,536,-8884,-10,-62,-102
282784917,-0.08306884765625,-0.950439453125,0.29461669921875,0.05462646484375,-463,754,-8846,-8,-69,-93
282794901,-0.08038330078125,-0.9530029296875,0.28485107421875,0.065185546875,-808,1045,-9045,-8,-79,-90
282804882,-0.07757568359375,-0.9552001953125,0.27520751953125,0.0765380859375,-978,1334,-9264,-8,-88,-90
282814866,-0.07464599609375,-0.95703125,0.26580810546875,0.0885009765625,-1003,1464,-9365,-9,-95,-86
282824849,-0.07147216796875,-0.95843505859375,0.25714111328125,0.10076904296875,-757,1378,-9403,-9,-101,-80
282834832,-0.0684814453125,-0.95941162109375,0.249267578125,0.11260986328125,-155,1568,-9361,-9,-104,-74
282844814,-0.06561279296875,-0.96002197265625,0.24212646484375,0.12432861328125,79,1729,-9244,-6,-107,-69
282854798,-0.06219482421875,-0.9603271484375,0.235107421875,0.13671875,-287,2013,-9236,-2,-108,-68
282864785,-0.05853271484375,-0.960205078125,0.22845458984375,0.14971923828125,-330,2237,-9240,3,-110,-64
282874769,-0.053466796875,-0.96014404296875,0.221923828125,0.1614990234375,4,1508,-8890,10,-112,-67
282884753,-0.0458984375,-0.960205078125,0.214599609375,0.1727294921875,181,554,-8802,20,-112,-74
282894737,-0.03643798828125,-0.96038818359375,0.2066650390625,0.18353271484375,358,-346,-8917,32,-113,-79
282904713,-0.0252685546875,-0.9603271484375,0.1988525390625,0.19384765625,426,-1080,-9033,46,-114,-78
282914695,-0.012451171875,-0.95989990234375,0.19207763671875,0.20379638671875,377,-1659,-9189,61,-115,-68
282924679,0.001953125,-0.95892333984375,0.18695068359375,0.21356201171875,197,-2111,-9323,77,-116,-56
282934663,0.017822265625,-0.957275390625,0.183349609375,0.22314453125,2,-2445,-9407,93,-118,-46
282944644,0.03497314453125,-0.9549560546875,0.18096923828125,0.232666015625,-180,-2555,-9386,107,-121,-38
282954635,0.05291748046875,-0.95196533203125,0.1796875,0.24224853515625,-382,-2415,-9323,119,-122,-32
282964615,0.0716552734375,-0.94842529296875,0.1788330078125,0.2518310546875,-617,-2179,-9218,128,-125,-32
282974599,0.09112548828125,-0.94439697265625,0.17755126953125,0.26141357421875,-919,-1905,-9138,136,-126,-39
282984581,0.111328125,-0.94000244140625,0.17510986328125,0.2708740234375,-1260,-1580,-9062,142,-126,-52
282994565,0.13226318359375,-0.93536376953125,0.1710205078125,0.27996826171875,-1615,-1290,-8998,147,-126,-68
283004546,0.15380859375,-0.93048095703125,0.16522216796875,0.28851318359375,-1920,-1044,-8911,150,-125,-83
283014530,0.17572021484375,-0.92535400390625,0.15802001953125,0.29644775390625,-2226,-797,-8762,152,-123,-95
283024514,0.19769287109375,-0.91986083984375,0.149658203125,0.30389404296875,-2589,-583,-8552,152,-121,-105
283034495,0.2197265625,-0.9139404296875,0.14044189453125,0.31103515625,-2993,-493,-8338,152,-119,-112
283044478,0.24169921875,-0.90753173828125,0.13037109375,0.3177490234375,-3398,-558,-8116,151,-117,-119
283054462,0.26361083984375,-0.90069580078125,0.11944580078125,0.32403564453125,-3859,-656,-7856,149,-116,-125
283064449,0.2850341796875,-0.893310546875,0.1082763671875,0.33013916015625,-4383,-726,-7545,146,-114,-126
283074433,0.30560302734375,-0.88531494140625,0.09765625,0.3365478515625,-4932,-965,-7180,142,-114,-117
283084417,0.3251953125,-0.8765869140625,0.0885009765625,0.343505859375,-5469,-1469,-6845,138,-115,-99
283094400,0.34344482421875,-0.8670654296875,0.08154296875,0.3515625,-5972,-2005,-6494,134,-117,-73
283104377,0.359619140625,-0.85693359375,0.0771484375,0.36114501953125,-6492,-2237,-5986,127,-121,-46
283114359,0.3734130859375,-0.84619140625,0.074951171875,0.3726806640625,-7011,-2031,-5333,116,-125,-23
283124350,0.38433837890625,-0.83544921875,0.07415771484375,0.3858642578125,-7383,-1643,-4713,100,-129,-5
283134327,0.3927001953125,-0.8248291015625,0.07391357421875,0.39996337890625,-7579,-1411,-4120,82,-132,8
283144306,0.39898681640625,-0.814453125,0.0736083984375,0.41473388671875,-7723,-1486,-3550,65,-134,17
283154293,0.403564453125,-0.804443359375,0.072998046875,0.42974853515625,-7866,-1775,-3101,50,-135,24
283164272,0.40655517578125,-0.794677734375,0.0723876953125,0.4449462890625,-8012,-2147,-2714,38,-135,33
283174257,0.40771484375,-0.7850341796875,0.07220458984375,0.46075439453125,-8117,-2424,-2368,26,-136,47
283184244,0.40667724609375,-0.7755126953125,0.0728759765625,0.47735595703125,-8247,-2448,-2063,15,-137,63
283194227,0.4036865234375,-0.76611328125,0.07373046875,0.49462890625,-8389,-2280,-1786,3,-140,68
283204207,0.399658203125,-0.75701904296875,0.0733642578125,0.51165771484375,-8471,-2024,-1584,-9,-141,59
283214194,0.39593505859375,-0.74847412109375,0.070068359375,0.52734375,-8181,-1890,-1348,-22,-141,37
283224176,0.3922119140625,-0.74029541015625,0.0645751953125,0.5421142578125,-8047,-1811,-1268,-30,-141,14
283234163,0.38958740234375,-0.73272705078125,0.05609130859375,0.55517578125,-7748,-1883,-1193,-37,-139,-9
283244127,0.38787841796875,-0.7255859375,0.04541015625,0.56658935546875,-7347,-2126,-1109,-42,-136,-26
283254112,0.38677978515625,-0.71875,0.03338623046875,0.57672119140625,-6913,-2410,-1007,-44,-131,-36
283264094,0.38616943359375,-0.71221923828125,0.02069091796875,0.5858154296875,-6468,-2678,-896,-45,-125,-43
283274078,0.38568115234375,-0.70599365234375,0.0078125,0.59393310546875,-6016,-2889,-807,-45,-119,-46
283284060,0.38519287109375,-0.7000732421875,-0.00494384765625,0.60125732421875,-5590,-3043,-740,-45,-112,-46
283294043,0.3846435546875,-0.6944580078125,-0.0172119140625,0.6077880859375,-5201,-3207,-703,-45,-105,-45
283304025,0.3839111328125,-0.6893310546875,-0.02899169921875,0.61370849609375,-4880,-3433,-705,-44,-98,-41
283314010,0.38275146484375,-0.6845703125,-0.039794921875,0.61907958984375,-4602,-3742,-711,-42,-91,-33
283323996,0.38116455078125,-0.68023681640625,-0.04949951171875,0.6241455078125,-4381,-4161,-687,-40,-83,-22
283333982,0.3790283203125,-0.67620849609375,-0.05780029296875,0.6290283203125,-4238,-4604,-622,-37,-76,-10
283343965,0.37646484375,-0.67254638671875,-0.06463623046875,0.63385009765625,-4184,-4935,-508,-33,-69,0
283353943,0.37353515625,-0.6693115234375,-0.070068359375,0.638427734375,-4227,-5171,-378,-29,-61,7
283363925,0.3704833984375,-0.66644287109375,-0.07452392578125,0.6427001953125,-4346,-5314,-242,-27,-54,11
283373911,0.36767578125,-0.663818359375,-0.0784912109375,0.646484375,-4606,-5379,-98,-24,-49,8
283383893,0.365478515625,-0.6614990234375,-0.08233642578125,0.649658203125,-4974,-5436,10,-22,-44,0
283393878,0.36419677734375,-0.65924072265625,-0.0865478515625,0.652099609375,-5356,-5478,77,-19,-40,-10
283403857,0.36383056640625,-0.65716552734375,-0.0911865234375,0.65380859375,-5630,-5515,78,-17,-37,-19
283413839,0.36407470703125,-0.6551513671875,-0.095947265625,0.65496826171875,-5736,-5597,65,-15,-33,-24
283423824,0.36480712890625,-0.6533203125,-0.10052490234375,0.65570068359375,-5739,-5677,49,-11,-30,-24
283433810,0.36566162109375,-0.651611328125,-0.10455322265625,0.65631103515625,-5682,-5686,57,-9,-26,-21
283443792,0.36639404296875,-0.65020751953125,-0.1077880859375,0.65679931640625,-5635,-5625,105,-7,-21,-17
283453773,0.36688232421875,-0.649169921875,-0.1103515625,0.6571044921875,-5574,-5540,151,-5,-16,-13
283463764,0.36737060546875,-0.6484375,-0.11236572265625,0.6572265625,-5487,-5489,206,-4,-12,-10
283473747,0.36798095703125,-0.64794921875,-0.11407470703125,0.6571044921875,-5418,-5501,303,-3,-7,-11
283483719,0.36907958984375,-0.647705078125,-0.11572265625,0.6563720703125,-5344,-5559,410,-2,-1,-14
283493711,0.3707275390625,-0.64776611328125,-0.1173095703125,0.6551513671875,-5268,-5627,531,0,4,-18
283503689,0.37274169921875,-0.64801025390625,-0.11871337890625,0.6534423828125,-5239,-5618,706,1,9,-20
283513671,0.37493896484375,-0.6485595703125,-0.1197509765625,0.6514892578125,-5252,-5496,881,2,14,-20
283523654,0.37701416015625,-0.64935302734375,-0.120361328125,0.64935302734375,-5288,-5268,1051,2,18,-19
283533638,0.37890625,-0.65045166015625,-0.12060546875,0.64715576171875,-5299,-5008,1211,1,21,-17
283543618,0.38043212890625,-0.65191650390625,-0.120361328125,0.64483642578125,-5291,-4832,1351,0,25,-13
283553602,0.38153076171875,-0.6536865234375,-0.11968994140625,0.6424560546875,-5369,-4802,1477,-2,29,-8
283563583,0.3824462890625,-0.65576171875,-0.11865234375,0.6400146484375,-5612,-4842,1622,-2,31,-6
283573565,0.38336181640625,-0.657958984375,-0.11737060546875,0.637451171875,-5893,-4845,1741,-2,33,-7
283583550,0.38427734375,-0.66021728515625,-0.11602783203125,0.63482666015625,-6112,-4827,1796,-1,34,-7
283593532,0.38525390625,-0.6624755859375,-0.1146240234375,0.632080078125,-6244,-4775,1799,-1,35,-8
283603516,0.3861083984375,-0.66485595703125,-0.11322021484375,0.62933349609375,-6302,-4691,1740,-1,35,-7
283613498,0.386962890625,-0.66729736328125,-0.11163330078125,0.62646484375,-6285,-4641,1645,-1,36,-6
283623484,0.38775634765625,-0.66986083984375,-0.10992431640625,0.62359619140625,-6292,-4684,1529,1,36,-4
283633464,0.38861083984375,-0.67236328125,-0.10821533203125,0.62060546875,-6401,-4787,1396,1,37,-5
283643449,0.38983154296875,-0.67486572265625,-0.106689453125,0.617431640625,-6598,-4897,1237,3,36,-10
283653437,0.3916015625,-0.67718505859375,-0.10565185546875,0.61395263671875,-6816,-4987,1048,4,35,-19
283663421,0.39404296875,-0.67919921875,-0.10552978515625,0.610107421875,-6959,-5025,844,4,33,-29
283673405,0.397216796875,-0.6810302734375,-0.10626220703125,0.60589599609375,-7039,-5015,624,5,31,-39
283683381,0.4007568359375,-0.68255615234375,-0.10748291015625,0.60162353515625,-7030,-5001,413,6,28,-43
283693364,0.4041748046875,-0.6839599609375,-0.1087646484375,0.59747314453125,-6938,-5051,195,6,26,-39
283703350,0.40692138671875,-0.685302734375,-0.1094970703125,0.59393310546875,-6748,-5193,-10,6,23,-27
283713331,0.40863037109375,-0.686767578125,-0.10906982421875,0.59112548828125,-6565,-5421,-219,7,22,-10
283723318,0.40924072265625,-0.688232421875,-0.107421875,0.58929443359375,-6493,-5616,-390,8,19,6
283733297,0.408935546875,-0.689697265625,-0.104736328125,0.58831787109375,-6528,-5724,-550,8,17,17
283743280,0.407958984375,-0.69110107421875,-0.10150146484375,0.587890625,-6573,-5746,-680,9,14,22
283753262,0.40679931640625,-0.6922607421875,-0.09808349609375,0.587890625,-6593,-5743,-811,9,11,24
283763242,0.40570068359375,-0.6932373046875,-0.094970703125,0.5880126953125,-6594,-5727,-926,9,8,22
283773235,0.40478515625,-0.6939697265625,-0.09228515625,0.58819580078125,-6558,-5688,-1049,9,5,19
283783219,0.4041748046875,-0.6944580078125,-0.09014892578125,0.58837890625,-6425,-5701,-1134,9,2,14
283793195,0.40435791015625,-0.69464111328125,-0.08892822265625,0.5882568359375,-6227,-5765,-1170,10,1,5
283803192,0.4052734375,-0.694580078125,-0.08868408203125,0.58770751953125,-6072,-5783,-1193,10,-1,-5
283813166,0.4068603515625,-0.6943359375,-0.0892333984375,0.58685302734375,-5952,-5708,-1218,10,-2,-15
283823144,0.408935546875,-0.69390869140625,-0.0904541015625,0.585693359375,-5810,-5554,-1237,10,-3,-23
283833121,0.41143798828125,-0.69342041015625,-0.09246826171875,0.584228515625,-5316,-5336,-1228,8,-3,-30
283843109,0.41473388671875,-0.69293212890625,-0.09552001953125,0.58197021484375,-4522,-5257,-1218,7,0,-38
283853086,0.41864013671875,-0.69268798828125,-0.0992431640625,0.578857421875,-4281,-5265,-1210,5,4,-45
283863074,0.42230224609375,-0.6927490234375,-0.10272216796875,0.5755615234375,-4526,-5250,-1188,4,6,-47
283873057,0.42535400390625,-0.69287109375,-0.105712890625,0.572509765625,-4780,-5202,-1095,2,6,-42
283883042,0.42791748046875,-0.69305419921875,-0.1083984375,0.56988525390625,-4902,-5164,-936,1,6,-36
283893025,0.43023681640625,-0.6932373046875,-0.11090087890625,0.5675048828125,-4913,-5159,-729,-1,6,-33
283903005,0.432373046875,-0.6934814453125,-0.11346435546875,0.5650634765625,-4863,-5110,-541,-3,7,-34
283912995,0.4345703125,-0.69384765625,-0.11614990234375,0.5623779296875,-4864,-5117,-340,-5,9,-36
283922976,0.43670654296875,-0.6943359375,-0.11883544921875,0.55950927734375,-4931,-5197,-157,-6,12,-36
283932955,0.43865966796875,-0.69500732421875,-0.1214599609375,0.5565185546875,-5043,-5403,44,-8,13,-34
283942937,0.44036865234375,-0.6959228515625,-0.123779296875,0.5535888671875,-5174,-5644,200,-10,16,-29
283952919,0.4412841796875,-0.6971435546875,-0.1253662109375,0.55096435546875,-5316,-5797,254,-12,17,-20
283962902,0.44122314453125,-0.69879150390625,-0.1259765625,0.54876708984375,-5446,-5872,259,-14,18,-8
283972890,0.440185546875,-0.70074462890625,-0.12567138671875,0.54718017578125,-5509,-5892,236,-15,19,3
283982867,0.43853759765625,-0.70306396484375,-0.12481689453125,0.54571533203125,-5474,-5938,154,-16,20,9
283992849,0.43682861328125,-0.70550537109375,-0.1236572265625,0.544189453125,-5425,-6109,37,-16,22,12
284002832,0.43524169921875,-0.70806884765625,-0.1224365234375,0.54241943359375,-5433,-6295,-81,-15,24,11
284012816,0.433837890625,-0.7105712890625,-0.1212158203125,0.54052734375,-5421,-6409,-227,-13,25,10
284022799,0.43267822265625,-0.71307373046875,-0.12005615234375,0.5384521484375,-5308,-6410,-399,-12,25,8
284032784,0.43157958984375,-0.71563720703125,-0.1187744140625,0.5361328125,-5015,-6222,-671,-10,26,8
284042770,0.430419921875,-0.7183837890625,-0.11712646484375,0.5338134765625,-5078,-6250,-882,-9,27,11
284052755,0.42926025390625,-0.7210693359375,-0.115234375,0.53155517578125,-5112,-6274,-992,-7,28,13
284062735,0.427978515625,-0.7236328125,-0.11273193359375,0.52960205078125,-5343,-6315,-1074,-6,28,17
284072715,0.42657470703125,-0.72607421875,-0.1094970703125,0.528076171875,-5507,-6282,-1109,-3,28,22
284082697,0.42535400390625,-0.72833251953125,-0.1060791015625,0.52667236328125,-5611,-6125,-1073,-1,28,21
284092683,0.424560546875,-0.73040771484375,-0.10284423828125,0.5250244140625,-5760,-5955,-974,1,29,14
284102662,0.42449951171875,-0.73236083984375,-0.10028076171875,0.52288818359375,-5967,-5862,-899,2,30,3
284112647,0.4256591796875,-0.73406982421875,-0.09906005859375,0.51971435546875,-6029,-5967,-915,3,32,-16
284122628,0.42840576171875,-0.73577880859375,-0.10003662109375,0.51483154296875,-5951,-6154,-1128,3,34,-39
284132612,0.43231201171875,-0.737548828125,-0.10302734375,0.50836181640625,-5924,-6143,-1396,2,36,-62
284142596,0.43707275390625,-0.7393798828125,-0.10784912109375,0.5006103515625,-5909,-5997,-1572,-2,39,-82
284152580,0.4423828125,-0.7412109375,-0.11431884765625,0.49176025390625,-5854,-5744,-1608,-7,41,-100
284162563,0.447998046875,-0.74298095703125,-0.12200927734375,0.4820556640625,-5729,-5479,-1482,-13,43,-111
284172545,0.45367431640625,-0.74468994140625,-0.13079833984375,0.47161865234375,-5447,-5315,-1152,-19,45,-120
284182527,0.45989990234375,-0.74627685546875,-0.140869140625,0.46014404296875,-5091,-5156,-744,-24,48,-133
284192510,0.46630859375,-0.747802734375,-0.15228271484375,0.4473876953125,-4796,-5138,-479,-30,52,-148
284202495,0.472900390625,-0.749267578125,-0.16497802734375,0.4332275390625,-4456,-5410,-351,-36,55,-158
284212479,0.47930908203125,-0.7508544921875,-0.1781005859375,0.41802978515625,-3842,-5921,-400,-39,59,-157
284222462,0.485107421875,-0.75274658203125,-0.19061279296875,0.402099609375,-2908,-6290,-520,-43,65,-145
284234995,0.48980712890625,-0.75543212890625,-0.20166015625,0.38568115234375,-1977,-6291,-619,-48,74,-130
284242434,0.493408203125,-0.7589111328125,-0.21173095703125,0.36846923828125,-1422,-6161,-700,-57,84,-127
284252416,0.49627685546875,-0.762939453125,-0.22149658203125,0.35009765625,-1205,-6117,-758,-65,93,-132
284262398,0.49835205078125,-0.76739501953125,-0.2310791015625,0.33074951171875,-1160,-6208,-835,-73,99,-133
284272375,0.49932861328125,-0.772216796875,-0.23980712890625,0.311279296875,-1185,-6494,-1015,-79,103,-121
284282358,0.49871826171875,-0.77777099609375,-0.24603271484375,0.2928466796875,-1461,-6744,-1288,-83,104,-94
284292342,0.49639892578125,-0.78424072265625,-0.24932861328125,0.27642822265625,-1792,-6887,-1649,-84,102,-68
284302323,0.4930419921875,-0.79095458984375,-0.25115966796875,0.26123046875,-2005,-7042,-2072,-85,99,-54
284312306,0.4891357421875,-0.797607421875,-0.25238037109375,0.2467041015625,-2235,-7154,-2495,-84,96,-49
284322293,0.48492431640625,-0.803955078125,-0.25384521484375,0.23260498046875,-2400,-7182,-2840,-84,91,-52
284332275,0.48052978515625,-0.809814453125,-0.255859375,0.21868896484375,-2436,-7157,-3123,-84,87,-56
284342257,0.47607421875,-0.815185546875,-0.258544921875,0.20489501953125,-2390,-7144,-3379,-84,82,-60
284352245,0.471435546875,-0.82012939453125,-0.26171875,0.19140625,-2329,-7173,-3633,-83,78,-61
284362230,0.4666748046875,-0.82470703125,-0.26519775390625,0.1783447265625,-2318,-7191,-3856,-82,73,-63
284372213,0.46185302734375,-0.8287353515625,-0.26910400390625,0.1658935546875,-2359,-7206,-3989,-80,67,-67
284382192,0.4571533203125,-0.83221435546875,-0.2734375,0.15399169921875,-2412,-7167,-4041,-77,62,-69
284392185,0.45263671875,-0.8350830078125,-0.2783203125,0.14263916015625,-2398,-7191,-4040,-74,56,-73
284402167,0.448486328125,-0.8372802734375,-0.28369140625,0.13189697265625,-2348,-7352,-4044,-70,50,-76
284412142,0.44482421875,-0.83880615234375,-0.28936767578125,0.12188720703125,-2348,-7713,-4093,-64,44,-77
284422120,0.44171142578125,-0.8397216796875,-0.2950439453125,0.11309814453125,-2325,-8167,-4206,-56,38,-75
284432104,0.439208984375,-0.84014892578125,-0.30047607421875,0.105224609375,-2058,-8535,-4445,-48,33,-70
284442088,0.43719482421875,-0.84033203125,-0.30523681640625,0.09814453125,-1451,-8736,-4704,-40,29,-59
284452070,0.435791015625,-0.8404541015625,-0.3087158203125,0.09185791015625,-713,-8839,-5001,-31,27,-42
284462051,0.4349365234375,-0.8409423828125,-0.31005859375,0.0869140625,-110,-9071,-5344,-23,26,-19
284472039,0.43487548828125,-0.841796875,-0.30859375,0.08380126953125,321,-9493,-5663,-12,26,7
284482013,0.435791015625,-0.84295654296875,-0.30438232421875,0.08258056640625,648,-9770,-5906,-1,26,32
284492001,0.43756103515625,-0.84417724609375,-0.29840087890625,0.08270263671875,822,-9778,-6065,10,25,45
284501991,0.440185546875,-0.84503173828125,-0.2919921875,0.0833740234375,953,-9610,-6122,21,24,45
284511974,0.443603515625,-0.84515380859375,-0.2862548828125,0.08392333984375,1163,-9300,-6123,29,24,38
284521950,0.44781494140625,-0.84454345703125,-0.28155517578125,0.08380126953125,1466,-8810,-6036,35,25,28
284531934,0.45233154296875,-0.843505859375,-0.2777099609375,0.08270263671875,1786,-8194,-5875,37,28,19
284541915,0.45697021484375,-0.84222412109375,-0.2745361328125,0.0806884765625,2047,-7560,-5696,37,32,12
284551897,0.46142578125,-0.8409423828125,-0.271728515625,0.0777587890625,2183,-6974,-5491,34,37,7
284561881,0.46563720703125,-0.83978271484375,-0.269287109375,0.07403564453125,2185,-6488,-5312,29,41,1
284571863,0.46929931640625,-0.83880615234375,-0.2672119140625,0.06964111328125,2127,-6046,-5150,23,44,-4
284581845,0.47235107421875,-0.8380126953125,-0.26544189453125,0.06463623046875,2055,-5673,-5042,17,46,-9
284591827,0.4747314453125,-0.837646484375,-0.26373291015625,0.05908203125,2060,-5384,-4925,10,48,-8
284601809,0.4764404296875,-0.8377685546875,-0.26153564453125,0.05316162109375,2056,-5193,-4816,2,51,-3
284611796,0.477294921875,-0.838623046875,-0.2581787109375,0.04754638671875,1972,-5140,-4736,-6,53,8
284621773,0.47735595703125,-0.84033203125,-0.25335693359375,0.04241943359375,1762,-5179,-4722,-13,55,20
284631765,0.4766845703125,-0.8426513671875,-0.24749755859375,0.037841796875,1408,-5338,-4747,-19,55,28
284641747,0.47552490234375,-0.8453369140625,-0.2413330078125,0.03369140625,965,-5588,-4811,-24,53,27
284651724,0.47393798828125,-0.847900390625,-0.2357177734375,0.02984619140625,535,-5903,-4908,-26,49,22
284661707,0.47216796875,-0.850341796875,-0.23095703125,0.02618408203125,230,-6178,-4963,-27,44,16
284671693,0.47021484375,-0.85260009765625,-0.22686767578125,0.02276611328125,17,-6374,-4984,-27,40,12
284681674,0.46807861328125,-0.8548583984375,-0.22314453125,0.019775390625,-112,-6472,-4986,-28,35,12
284691654,0.4656982421875,-0.85711669921875,-0.2196044921875,0.01727294921875,-194,-6508,-4956,-29,30,14
284701638,0.463134765625,-0.85943603515625,-0.21600341796875,0.01544189453125,-254,-6513,-4933,-29,25,18
284711620,0.46044921875,-0.86187744140625,-0.21221923828125,0.0142822265625,-262,-6531,-4932,-29,20,22
284721606,0.4576416015625,-0.86431884765625,-0.20819091796875,0.01385498046875,-228,-6514,-4970,-29,16,27
284731588,0.4547119140625,-0.86688232421875,-0.2039794921875,0.013916015625,-139,-6473,-4969,-29,12,32
284741575,0.45166015625,-0.86956787109375,-0.19921875,0.01458740234375,-38,-6481,-4975,-30,10,39
284751557,0.44842529296875,-0.87237548828125,-0.19403076171875,0.0157470703125,82,-6437,-4985,-31,7,44
284761542,0.44500732421875,-0.875244140625,-0.188720703125,0.01702880859375,202,-6406,-5006,-33,6,45
284771524,0.44140625,-0.878173828125,-0.18359375,0.01837158203125,255,-6406,-5033,-34,5,43
284781507,0.43768310546875,-0.88092041015625,-0.17913818359375,0.0194091796875,284,-6419,-5077,-35,5,37
284791489,0.433837890625,-0.883544921875,-0.17547607421875,0.0201416015625,247,-6464,-5141,-36,4,28
284801473,0.4300537109375,-0.8858642578125,-0.1727294921875,0.0205078125,173,-6508,-5199,-35,3,20
284811455,0.42633056640625,-0.8880615234375,-0.1707763671875,0.02081298828125,91,-6567,-5244,-35,1,14
284821435,0.422607421875,-0.89013671875,-0.169189453125,0.02130126953125,-15,-6635,-5299,-34,-1,13
284831423,0.41900634765625,-0.89208984375,-0.167724609375,0.02203369140625,-126,-6726,-5359,-33,-3,12
284841405,0.4156494140625,-0.8939208984375,-0.1663818359375,0.023193359375,-217,-6827,-5435,-31,-6,13
284851389,0.4124755859375,-0.89556884765625,-0.16510009765625,0.0247802734375,-308,-6978,-5504,-28,-9,13
284861365,0.40972900390625,-0.89697265625,-0.16375732421875,0.02691650390625,-413,-7185,-5543,-24,-12,15
284871350,0.407470703125,-0.898193359375,-0.16229248046875,0.02972412109375,-552,-7390,-5588,-20,-16,18
284881332,0.4056396484375,-0.89923095703125,-0.16070556640625,0.03314208984375,-683,-7541,-5611,-15,-20,19
284891316,0.404296875,-0.89990234375,-0.1593017578125,0.037109375,-799,-7599,-5603,-10,-23,19
284901297,0.4033203125,-0.90032958984375,-0.15838623046875,0.0413818359375,-866,-7590,-5539,-6,-27,15
284911281,0.40277099609375,-0.90032958984375,-0.1583251953125,0.04571533203125,-946,-7531,-5486,-2,-30,9
284921264,0.40264892578125,-0.90008544921875,-0.158935546875,0.05029296875,-1045,-7488,-5416,2,-33,3
284931239,0.40283203125,-0.89947509765625,-0.16015625,0.0550537109375,-1118,-7486,-5346,5,-37,0
284941231,0.4034423828125,-0.89862060546875,-0.16143798828125,0.060302734375,-1187,-7553,-5304,9,-40,1
284951219,0.4044189453125,-0.8975830078125,-0.16253662109375,0.06622314453125,-1204,-7604,-5248,13,-44,6
284961206,0.40576171875,-0.8963623046875,-0.16326904296875,0.0726318359375,-1121,-7566,-5168,18,-47,11
284971190,0.40740966796875,-0.89495849609375,-0.16375732421875,0.07928466796875,-1010,-7486,-5022,21,-48,14
284981174,0.4091796875,-0.8934326171875,-0.16412353515625,0.08624267578125,-980,-7366,-4854,22,-50,15
284991156,0.4111328125,-0.89178466796875,-0.1644287109375,0.09332275390625,-990,-7296,-4680,24,-50,15
285001126,0.41326904296875,-0.88995361328125,-0.16485595703125,0.10052490234375,-1072,-7289,-4520,26,-51,14
285011109,0.4156494140625,-0.88787841796875,-0.1651611328125,0.10809326171875,-1213,-7416,-4368,28,-53,15
285021094,0.41839599609375,-0.885498046875,-0.165283203125,0.1162109375,-1410,-7650,-4279,32,-55,18
285031077,0.4215087890625,-0.88287353515625,-0.1650390625,0.12493896484375,-1586,-7920,-4203,37,-59,22
285041059,0.42523193359375,-0.8797607421875,-0.1646728515625,0.1343994140625,-1768,-8229,-4118,42,-63,23
285051042,0.4295654296875,-0.8760986328125,-0.16455078125,0.1444091796875,-2027,-8532,-4056,50,-67,21
285061026,0.43463134765625,-0.8717041015625,-0.1649169921875,0.15496826171875,-2387,-8802,-4022,58,-73,15
285071009,0.4404296875,-0.86651611328125,-0.16632080078125,0.16607666015625,-2848,-8991,-4048,67,-79,5
285080994,0.4468994140625,-0.8603515625,-0.16900634765625,0.17767333984375,-3395,-9093,-4137,76,-87,-6
285090977,0.4541015625,-0.8531494140625,-0.17254638671875,0.19012451171875,-3759,-9206,-4312,86,-97,-12
285100957,0.4619140625,-0.8450927734375,-0.1759033203125,0.20379638671875,-3939,-9475,-4534,99,-107,-1
285110943,0.4700927734375,-0.83624267578125,-0.17730712890625,0.2197265625,-4043,-9817,-4774,111,-118,24
285120927,0.4781494140625,-0.8267822265625,-0.17608642578125,0.23834228515625,-4062,-10001,-4981,123,-128,53
285130911,0.48590087890625,-0.81658935546875,-0.17291259765625,0.2591552734375,-4028,-9953,-5139,133,-139,72
285140892,0.493408203125,-0.8055419921875,-0.16912841796875,0.2811279296875,-3903,-9703,-5241,140,-148,78
285150878,0.50091552734375,-0.79339599609375,-0.16595458984375,0.30340576171875,-3752,-9380,-5257,145,-156,73
285160859,0.50860595703125,-0.78009033203125,-0.16424560546875,0.32525634765625,-3537,-9069,-5243,147,-163,59
285170841,0.5166015625,-0.76580810546875,-0.1641845703125,0.345947265625,-3297,-8792,-5233,149,-166,42
285180824,0.52496337890625,-0.75054931640625,-0.1658935546875,0.365478515625,-3021,-8550,-5169,149,-168,26
285190807,0.533447265625,-0.734619140625,-0.16876220703125,0.3837890625,-2740,-8306,-5081,149,-168,15
285200790,0.5418701171875,-0.71807861328125,-0.17230224609375,0.4012451171875,-2434,-8032,-4978,149,-167,9
285210770,0.5499267578125,-0.70135498046875,-0.17596435546875,0.41802978515625,-2041,-7697,-4883,147,-166,8
285220763,0.55718994140625,-0.68463134765625,-0.17938232421875,0.43426513671875,-1599,-7327,-4681,142,-162,13
285230747,0.5634765625,-0.6683349609375,-0.18218994140625,0.45013427734375,-1151,-6965,-4332,134,-156,21
285240723,0.568603515625,-0.6527099609375,-0.18438720703125,0.46551513671875,-780,-6636,-3874,124,-148,27
285250707,0.57257080078125,-0.63787841796875,-0.1864013671875,0.4801025390625,-540,-6325,-3388,112,-140,29
285260688,0.57568359375,-0.62408447265625,-0.18853759765625,0.4935302734375,-365,-6072,-2902,99,-131,26
285270672,0.57818603515625,-0.611328125,-0.19097900390625,0.5054931640625,-309,-5912,-2458,86,-121,21
285280653,0.580078125,-0.59967041015625,-0.1939697265625,0.5159912109375,-325,-5869,-2081,74,-113,15
285290636,0.58148193359375,-0.58917236328125,-0.197265625,0.52520751953125,-412,-5937,-1776,63,-104,11
285300620,0.582275390625,-0.57977294921875,-0.20068359375,0.533447265625,-557,-6067,-1546,53,-96,10
285310604,0.58233642578125,-0.57147216796875,-0.203857421875,0.541015625,-694,-6197,-1290,45,-88,14
285320587,0.58154296875,-0.5643310546875,-0.2066650390625,0.54827880859375,-843,-6381,-1044,37,-81,20
285330569,0.5799560546875,-0.55828857421875,-0.2088623046875,0.5552978515625,-975,-6571,-839,30,-74,28
285340554,0.57745361328125,-0.5533447265625,-0.2105712890625,0.5621337890625,-1060,-6760,-641,23,-67,35
285350536,0.57421875,-0.5494384765625,-0.211669921875,0.56878662109375,-1182,-6902,-484,17,-60,42
285360519,0.570556640625,-0.54644775390625,-0.21240234375,0.5750732421875,-1332,-7027,-341,12,-53,44
285370503,0.56671142578125,-0.544189453125,-0.21295166015625,0.580810546875,-1530,-7147,-207,8,-46,42
285380487,0.56298828125,-0.54248046875,-0.21337890625,0.5858154296875,-1777,-7281,-70,5,-41,39
285390468,0.5594482421875,-0.54119873046875,-0.2137451171875,0.59027099609375,-2078,-7422,80,4,-36,35
285400450,0.556396484375,-0.5400390625,-0.21417236328125,0.59405517578125,-2399,-7604,202,4,-33,29
285410431,0.55377197265625,-0.538818359375,-0.2147216796875,0.59735107421875,-2684,-7838,271,6,-31,23
285420422,0.5517578125,-0.53753662109375,-0.2152099609375,0.6002197265625,-2895,-8094,338,9,-29,19
285430406,0.5501708984375,-0.5360107421875,-0.21551513671875,0.60296630859375,-3013,-8311,421,13,-28,18
285440390,0.54888916015625,-0.5341796875,-0.21539306640625,0.60577392578125,-3061,-8450,563,18,-26,20
285450366,0.54791259765625,-0.5322265625,-0.2147216796875,0.608642578125,-3072,-8501,728,21,-23,21
285460350,0.54718017578125,-0.53009033203125,-0.2135009765625,0.61151123046875,-3077,-8465,894,25,-21,22
285470330,0.54669189453125,-0.52789306640625,-0.211669921875,0.61456298828125,-3101,-8325,1064,29,-19,23
285480316,0.5462646484375,-0.52557373046875,-0.20928955078125,0.61767578125,-3129,-8126,1223,32,-17,25
285490296,0.5460205078125,-0.52313232421875,-0.20654296875,0.6209716796875,-3183,-7958,1372,35,-17,25
285500281,0.5458984375,-0.5205078125,-0.20343017578125,0.62420654296875,-3254,-7802,1508,38,-16,25
285510265,0.54608154296875,-0.51763916015625,-0.2001953125,0.62750244140625,-3272,-7635,1642,40,-16,24
285520246,0.54644775390625,-0.5146484375,-0.19677734375,0.63067626953125,-3235,-7400,1792,42,-15,23
285530237,0.547119140625,-0.511474609375,-0.19329833984375,0.6337890625,-3138,-7099,1986,42,-13,21
285540219,0.5479736328125,-0.50823974609375,-0.18975830078125,0.63665771484375,-2990,-6735,2194,42,-11,19
285550206,0.5491943359375,-0.505126953125,-0.18621826171875,0.63916015625,-2834,-6319,2409,40,-7,15
285560190,0.5506591796875,-0.5023193359375,-0.182861328125,0.64111328125,-2703,-5880,2607,37,-4,10
285570179,0.55242919921875,-0.4998779296875,-0.17987060546875,0.642333984375,-2647,-5440,2783,32,0,3
285580146,0.55462646484375,-0.49786376953125,-0.17730712890625,0.6427001953125,-2645,-5065,2933,27,5,-6
285590120,0.55718994140625,-0.4964599609375,-0.1754150390625,0.64215087890625,-2719,-4823,3084,21,9,-15
285600104,0.5599365234375,-0.4954833984375,-0.17401123046875,0.64080810546875,-2791,-4762,3215,16,12,-20
285610086,0.562744140625,-0.4949951171875,-0.17303466796875,0.6390380859375,-2838,-4826,3314,12,15,-20
285620070,0.5650634765625,-0.4951171875,-0.1719970703125,0.63714599609375,-2879,-4940,3390,9,17,-16
285630053,0.56689453125,-0.49578857421875,-0.17071533203125,0.63531494140625,-2906,-5058,3460,6,21,-11
285640035,0.568115234375,-0.4969482421875,-0.16900634765625,0.6337890625,-2965,-5164,3536,4,23,-3
285650023,0.56854248046875,-0.4986572265625,-0.16668701171875,0.63262939453125,-3064,-5257,3588,1,26,5
285659998,0.56829833984375,-0.5008544921875,-0.1639404296875,0.63189697265625,-3196,-5328,3630,0,28,12
285669987,0.5675048828125,-0.50341796875,-0.1607666015625,0.63134765625,-3346,-5397,3670,-3,29,17
285679960,0.5665283203125,-0.5062255859375,-0.15753173828125,0.630859375,-3518,-5491,3696,-3,30,18
285689944,0.56549072265625,-0.50909423828125,-0.15435791015625,0.6302490234375,-3696,-5593,3705,-4,30,17
285699928,0.56463623046875,-0.511962890625,-0.15130615234375,0.62945556640625,-3861,-5716,3723,-4,30,14
285709910,0.56396484375,-0.51470947265625,-0.1485595703125,0.62841796875,-4015,-5839,3739,-4,30,11
285719893,0.56353759765625,-0.51739501953125,-0.14593505859375,0.627197265625,-4175,-5933,3746,-4,29,8
285729880,0.56341552734375,-0.51983642578125,-0.1435546875,0.6258544921875,-4323,-6007,3743,-3,28,4
285739859,0.56353759765625,-0.52203369140625,-0.1414794921875,0.6243896484375,-4436,-6057,3755,-2,26,0
285749844,0.56390380859375,-0.5240478515625,-0.1396484375,0.62274169921875,-4525,-6095,3757,-2,25,-3
285759825,0.56451416015625,-0.5257568359375,-0.1380615234375,0.62109375,-4593,-6142,3751,-1,23,-5
285769811,0.5653076171875,-0.52728271484375,-0.13665771484375,0.61944580078125,-4635,-6188,3756,0,21,-7
285779792,0.56610107421875,-0.528564453125,-0.1353759765625,0.61785888671875,-4671,-6226,3749,1,19,-7
285789772,0.5670166015625,-0.529541015625,-0.1341552734375,0.616455078125,-4647,-6229,3742,3,17,-7
285799764,0.5679931640625,-0.53033447265625,-0.13299560546875,0.61517333984375,-4613,-6202,3740,4,16,-7
285809746,0.5689697265625,-0.53094482421875,-0.13177490234375,0.61395263671875,-4561,-6138,3739,4,14,-7
285819724,0.5699462890625,-0.5313720703125,-0.130615234375,0.61297607421875,-4517,-6091,3749,5,13,-6
285829706,0.5709228515625,-0.5316162109375,-0.12933349609375,0.61212158203125,-4476,-6029,3757,6,12,-5
285839689,0.57177734375,-0.53179931640625,-0.12811279296875,0.61138916015625,-4429,-5976,3761,6,10,-4
285849674,0.57269287109375,-0.5318603515625,-0.126953125,0.6107177734375,-4393,-5936,3755,7,10,-4
285859654,0.5736083984375,-0.5318603515625,-0.12579345703125,0.610107421875,-4387,-5887,3754,6,9,-4
285869638,0.574462890625,-0.53173828125,-0.12469482421875,0.609619140625,-4366,-5872,3759,7,8,-4
285879623,0.5753173828125,-0.53155517578125,-0.12359619140625,0.60919189453125,-4359,-5867,3777,7,7,-3
285889609,0.57598876953125,-0.5313720703125,-0.12249755859375,0.6090087890625,-4356,-5845,3782,7,5,-1
285899598,0.5765380859375,-0.531005859375,-0.121337890625,0.60894775390625,-4346,-5820,3779,7,5,0
285909577,0.5770263671875,-0.53070068359375,-0.1202392578125,0.6090087890625,-4333,-5793,3775,7,4,1
285919560,0.57745361328125,-0.5302734375,-0.119140625,0.60919189453125,-4316,-5777,3776,6,3,2
285929543,0.57781982421875,-0.52984619140625,-0.1180419921875,0.60943603515625,-4289,-5747,3774,6,2,2
285939528,0.57806396484375,-0.5294189453125,-0.116943359375,0.60980224609375,-4268,-5727,3774,7,2,3
285949508,0.5782470703125,-0.5289306640625,-0.11590576171875,0.6102294921875,-4242,-5725,3766,6,1,4
285959490,0.57843017578125,-0.5284423828125,-0.11492919921875,0.61065673828125,-4205,-5711,3771,6,1,4
285969474,0.5784912109375,-0.5279541015625,-0.11395263671875,0.6112060546875,-4169,-5692,3748,6,0,5
