subject,Two-hands and jerked
arm,neither
label,0
hz,100.17114851969302
time,5.48062

timestamp_us,q0,q1,q2,q3,ax,ay,az,gx,gy,gz
304150836,0.2960205078125,-0.21734619140625,0.57861328125,-0.728271484375,-161,-8031,1866,2,-5,1
304160818,0.2965087890625,-0.21746826171875,0.57818603515625,-0.72833251953125,-148,-8026,1876,3,-4,2
304170801,0.29705810546875,-0.2176513671875,0.57781982421875,-0.72833251953125,-147,-7985,1869,2,-5,1
304180784,0.29754638671875,-0.21783447265625,0.57745361328125,-0.7283935546875,-155,-7902,1883,3,-5,1
304190766,0.29791259765625,-0.21807861328125,0.57708740234375,-0.72845458984375,-138,-7800,1894,2,-4,-1
304200753,0.29815673828125,-0.218505859375,0.57672119140625,-0.728515625,-136,-7686,1914,1,-5,-1
304210737,0.29840087890625,-0.21893310546875,0.576416015625,-0.72857666015625,-133,-7600,1938,0,-5,-2
304220714,0.298583984375,-0.21942138671875,0.576171875,-0.728515625,-130,-7522,1952,-1,-5,-1
304230695,0.298828125,-0.2198486328125,0.5760498046875,-0.7283935546875,-141,-7501,1957,-2,-5,-1
304240679,0.29913330078125,-0.22021484375,0.57611083984375,-0.72808837890625,-132,-7527,1959,-3,-5,1
304253995,0.29949951171875,-0.22064208984375,0.57623291015625,-0.72772216796875,-132,-7587,1950,-3,-5,2
304260642,0.2999267578125,-0.220947265625,0.576416015625,-0.727294921875,-112,-7659,1943,-4,-5,3
304270624,0.300537109375,-0.22125244140625,0.5765380859375,-0.72686767578125,-115,-7719,1934,-3,-5,4
304280608,0.3011474609375,-0.221435546875,0.5767822265625,-0.72637939453125,-108,-7791,1915,-3,-5,4
304290590,0.3018798828125,-0.22161865234375,0.57696533203125,-0.72589111328125,-95,-7854,1913,-3,-5,5
304300574,0.30267333984375,-0.22174072265625,0.5771484375,-0.72540283203125,-94,-7922,1893,-2,-5,6
304310557,0.30340576171875,-0.22186279296875,0.57720947265625,-0.7249755859375,-98,-7972,1874,-1,-5,5
304320542,0.30401611328125,-0.2220458984375,0.57720947265625,-0.72467041015625,-102,-7995,1879,-1,-5,3
304330529,0.30450439453125,-0.22235107421875,0.5770263671875,-0.7244873046875,-109,-8008,1882,0,-5,1
304340514,0.3048095703125,-0.2227783203125,0.5767822265625,-0.72442626953125,-119,-8012,1902,0,-5,-1
304350492,0.3050537109375,-0.2232666015625,0.57647705078125,-0.72442626953125,-124,-7993,1901,1,-5,-2
304360474,0.3052978515625,-0.22381591796875,0.5760498046875,-0.7244873046875,-108,-7971,1909,1,-5,-2
304370457,0.3055419921875,-0.22430419921875,0.57562255859375,-0.72454833984375,-106,-7957,1920,2,-6,-2
304380435,0.305908203125,-0.22467041015625,0.5751953125,-0.724609375,-118,-7928,1921,2,-5,-1
304390432,0.306396484375,-0.22503662109375,0.5748291015625,-0.724609375,-130,-7914,1919,2,-6,1
304400409,0.30694580078125,-0.22528076171875,0.574462890625,-0.724609375,-126,-7909,1924,2,-6,2
304410394,0.3077392578125,-0.2254638671875,0.5740966796875,-0.72454833984375,-137,-7921,1926,2,-6,3
304420370,0.30859375,-0.22552490234375,0.57373046875,-0.724365234375,-153,-7930,1928,2,-6,5
304430353,0.3095703125,-0.2255859375,0.57342529296875,-0.72418212890625,-165,-7931,1917,2,-6,5
304440335,0.310546875,-0.2255859375,0.5731201171875,-0.7239990234375,-183,-7948,1921,2,-7,5
304450319,0.3115234375,-0.2257080078125,0.57275390625,-0.723876953125,-205,-7985,1925,3,-7,4
304460301,0.3125,-0.225830078125,0.5723876953125,-0.72369384765625,-226,-8037,1927,3,-7,4
304470284,0.31341552734375,-0.22601318359375,0.57196044921875,-0.72357177734375,-234,-8107,1927,3,-7,4
304480268,0.3143310546875,-0.2261962890625,0.571533203125,-0.72344970703125,-245,-8140,1937,3,-7,4
304490256,0.3154296875,-0.22637939453125,0.5711669921875,-0.7232666015625,-270,-8158,1947,3,-8,5
304500240,0.3165283203125,-0.2265625,0.57073974609375,-0.7230224609375,-311,-8150,1961,3,-8,5
304510224,0.31768798828125,-0.22674560546875,0.5704345703125,-0.72265625,-342,-8104,1961,2,-9,5
304520206,0.31884765625,-0.22705078125,0.57025146484375,-0.72222900390625,-366,-8043,1951,0,-9,5
304530194,0.3199462890625,-0.22747802734375,0.57012939453125,-0.72174072265625,-405,-8000,1933,-1,-10,3
304540176,0.32080078125,-0.2281494140625,0.570068359375,-0.72119140625,-433,-8016,1915,-3,-10,2
304550159,0.32159423828125,-0.22894287109375,0.570068359375,-0.72052001953125,-458,-8032,1890,-4,-11,1
304560129,0.32232666015625,-0.22991943359375,0.57012939453125,-0.7198486328125,-475,-8023,1842,-5,-11,0
304570113,0.3231201171875,-0.23095703125,0.5703125,-0.71905517578125,-472,-7981,1778,-5,-12,1
304580096,0.323974609375,-0.23199462890625,0.57061767578125,-0.71807861328125,-463,-7907,1708,-7,-12,3
304590078,0.324951171875,-0.2330322265625,0.571044921875,-0.7169189453125,-434,-7828,1632,-8,-13,5
304600060,0.326171875,-0.2340087890625,0.5716552734375,-0.715576171875,-417,-7775,1548,-9,-13,7
304610043,0.32757568359375,-0.2349853515625,0.5723876953125,-0.71405029296875,-421,-7769,1469,-10,-14,8
304620026,0.32891845703125,-0.23602294921875,0.5732421875,-0.71240234375,-437,-7793,1410,-11,-14,8
304630008,0.3304443359375,-0.237060546875,0.5740966796875,-0.710693359375,-464,-7822,1388,-11,-15,9
304639995,0.33197021484375,-0.23828125,0.574951171875,-0.7088623046875,-476,-7842,1361,-13,-16,9
304649982,0.33367919921875,-0.23944091796875,0.575927734375,-0.70684814453125,-509,-7874,1321,-13,-17,11
304659957,0.33563232421875,-0.2406005859375,0.57696533203125,-0.70465087890625,-510,-7906,1276,-14,-18,13
304669942,0.337890625,-0.24169921875,0.57818603515625,-0.70220947265625,-533,-7944,1207,-15,-20,16
304679923,0.34039306640625,-0.2427978515625,0.5794677734375,-0.6995849609375,-571,-7994,1129,-16,-21,19
304689908,0.34320068359375,-0.24395751953125,0.580810546875,-0.69671630859375,-655,-8005,1070,-16,-23,20
304699892,0.3463134765625,-0.24517822265625,0.58209228515625,-0.69366455078125,-741,-7969,1052,-17,-26,21
304709877,0.3494873046875,-0.2467041015625,0.5833740234375,-0.6904296875,-819,-7911,1042,-19,-29,20
304719858,0.35272216796875,-0.24859619140625,0.58465576171875,-0.68701171875,-897,-7864,1047,-21,-31,19
304729841,0.35601806640625,-0.2508544921875,0.58587646484375,-0.68341064453125,-949,-7878,1056,-24,-34,18
304739825,0.35931396484375,-0.25360107421875,0.587158203125,-0.6795654296875,-959,-7945,1037,-26,-37,17
304749808,0.36279296875,-0.256591796875,0.58843994140625,-0.67547607421875,-971,-8035,976,-27,-40,18
304759792,0.3665771484375,-0.25982666015625,0.58978271484375,-0.67108154296875,-1030,-8099,897,-28,-43,20
304769770,0.37078857421875,-0.26312255859375,0.591064453125,-0.666259765625,-1130,-8110,800,-29,-47,23
304779762,0.37554931640625,-0.2664794921875,0.5924072265625,-0.66107177734375,-1256,-8114,734,-30,-51,26
304789746,0.380859375,-0.2698974609375,0.59368896484375,-0.6553955078125,-1363,-8116,696,-31,-55,29
304799732,0.38671875,-0.27362060546875,0.59490966796875,-0.6494140625,-1453,-8139,662,-33,-60,32
304809709,0.39300537109375,-0.27752685546875,0.595947265625,-0.6429443359375,-1501,-8197,654,-34,-65,34
304819695,0.399658203125,-0.28173828125,0.5968017578125,-0.63616943359375,-1493,-8312,650,-35,-69,36
304829677,0.40667724609375,-0.28607177734375,0.59747314453125,-0.629150390625,-1437,-8532,660,-35,-73,39
304839660,0.4140625,-0.29058837890625,0.59796142578125,-0.6217041015625,-1362,-8735,643,-35,-77,42
304849644,0.42181396484375,-0.295166015625,0.59814453125,-0.6141357421875,-1230,-8849,644,-34,-80,44
304859626,0.42962646484375,-0.29986572265625,0.5980224609375,-0.60650634765625,-1083,-8808,616,-33,-82,44
304869609,0.43731689453125,-0.304931640625,0.59759521484375,-0.598876953125,-923,-8698,591,-33,-84,40
304879594,0.44439697265625,-0.310546875,0.5968017578125,-0.591552734375,-730,-8540,561,-33,-84,33
304889575,0.45086669921875,-0.3167724609375,0.59552001953125,-0.58453369140625,-514,-8367,513,-34,-84,25
304899559,0.4564208984375,-0.3236083984375,0.593994140625,-0.5780029296875,-269,-8180,475,-34,-83,17
304909542,0.4613037109375,-0.33074951171875,0.5921630859375,-0.57196044921875,-7,-8021,489,-34,-80,12
304919524,0.46563720703125,-0.3380126953125,0.59014892578125,-0.56622314453125,259,-7856,474,-34,-77,9
304929506,0.46942138671875,-0.34503173828125,0.5882568359375,-0.56085205078125,515,-7712,458,-34,-72,7
304939490,0.4727783203125,-0.351806640625,0.58648681640625,-0.55560302734375,753,-7616,424,-33,-67,8
304949473,0.47576904296875,-0.3580322265625,0.58502197265625,-0.5506591796875,957,-7564,376,-32,-62,9
304959455,0.47845458984375,-0.3636474609375,0.58380126953125,-0.5458984375,1111,-7523,304,-30,-56,11
304969436,0.48095703125,-0.36859130859375,0.5828857421875,-0.5413818359375,1215,-7542,227,-28,-50,13
304979428,0.483154296875,-0.37286376953125,0.58221435546875,-0.53717041015625,1304,-7692,238,-26,-44,15
304989408,0.48529052734375,-0.37640380859375,0.58154296875,-0.5335693359375,1368,-7980,341,-22,-38,15
304999391,0.487060546875,-0.3792724609375,0.5806884765625,-0.53076171875,1433,-8256,393,-16,-31,14
305009368,0.488525390625,-0.38140869140625,0.57989501953125,-0.52874755859375,1450,-8459,436,-10,-24,13
305019352,0.48980712890625,-0.3828125,0.57916259765625,-0.52734375,1378,-8529,493,-5,-18,13
305029332,0.490966796875,-0.3834228515625,0.57855224609375,-0.5264892578125,1181,-8516,545,-1,-12,12
305039320,0.491943359375,-0.38348388671875,0.57794189453125,-0.52618408203125,874,-8369,628,3,-7,9
305049299,0.49267578125,-0.38323974609375,0.57733154296875,-0.52630615234375,505,-8103,686,4,-4,4
305059283,0.4931640625,-0.38299560546875,0.57672119140625,-0.5267333984375,86,-7744,736,4,-2,-1
305069267,0.49322509765625,-0.3829345703125,0.57635498046875,-0.52716064453125,-387,-7504,733,2,0,-4
305079243,0.4931640625,-0.383056640625,0.57598876953125,-0.52752685546875,-910,-7469,751,0,-1,-8
305089233,0.49310302734375,-0.38336181640625,0.57550048828125,-0.52789306640625,-1446,-7673,827,1,-3,-11
305099214,0.49334716796875,-0.3837890625,0.57440185546875,-0.52850341796875,-1932,-8022,933,4,-6,-15
305109205,0.49371337890625,-0.38427734375,0.57275390625,-0.5296630859375,-2258,-8328,1022,10,-7,-18
305119188,0.494140625,-0.38458251953125,0.5706787109375,-0.53118896484375,-2424,-8428,1032,14,-7,-19
305129173,0.49481201171875,-0.384521484375,0.56866455078125,-0.5328369140625,-2468,-8381,1000,17,-6,-15
305139155,0.495849609375,-0.3839111328125,0.56695556640625,-0.5341796875,-2484,-8293,941,18,-4,-7
305149129,0.49737548828125,-0.3824462890625,0.56591796875,-0.534912109375,-2565,-8208,853,18,-3,5
305159108,0.49969482421875,-0.380126953125,0.56561279296875,-0.53472900390625,-2744,-8135,770,16,-3,16
305169092,0.50262451171875,-0.37713623046875,0.5660400390625,-0.5335693359375,-2982,-8055,696,13,-4,27
305179075,0.5062255859375,-0.373779296875,0.56707763671875,-0.53143310546875,-3298,-7980,666,9,-6,35
305189060,0.5101318359375,-0.37042236328125,0.56842041015625,-0.528564453125,-3644,-7918,674,6,-9,37
305199043,0.5142822265625,-0.367431640625,0.5697021484375,-0.5252685546875,-4001,-7839,711,2,-13,36
305209027,0.51824951171875,-0.36529541015625,0.57061767578125,-0.52191162109375,-4368,-7688,768,-1,-19,27
305219008,0.52191162109375,-0.36444091796875,0.5709228515625,-0.5185546875,-4712,-7461,750,-5,-26,16
305228996,0.52532958984375,-0.364990234375,0.5706787109375,-0.51495361328125,-4997,-7176,668,-10,-34,8
305238978,0.52874755859375,-0.366943359375,0.5699462890625,-0.51080322265625,-5230,-6900,508,-15,-44,2
305248958,0.5322265625,-0.37017822265625,0.56884765625,-0.50604248046875,-5421,-6656,293,-20,-54,-2
305258936,0.5360107421875,-0.37457275390625,0.5672607421875,-0.50054931640625,-5600,-6446,66,-25,-66,-4
305268920,0.54034423828125,-0.380126953125,0.5650634765625,-0.49420166015625,-5743,-6229,-161,-29,-78,-5
305278903,0.54541015625,-0.38653564453125,0.56231689453125,-0.48675537109375,-5810,-6030,-381,-33,-91,-2
305288889,0.5511474609375,-0.3936767578125,0.55926513671875,-0.47796630859375,-5769,-5856,-642,-38,-103,3
305298877,0.5574951171875,-0.4017333984375,0.55572509765625,-0.4678955078125,-5589,-5685,-923,-43,-115,7
305308855,0.56402587890625,-0.41082763671875,0.55157470703125,-0.45697021484375,-5315,-5558,-1200,-48,-126,6
305318837,0.5704345703125,-0.4210205078125,0.5467529296875,-0.4454345703125,-4977,-5557,-1509,-52,-134,1
305328821,0.57635498046875,-0.4326171875,0.540771484375,-0.43377685546875,-4539,-5647,-1799,-55,-143,-7
305338801,0.58172607421875,-0.4454345703125,0.5335693359375,-0.42242431640625,-4008,-5792,-2084,-56,-149,-19
305348785,0.58636474609375,-0.4595947265625,0.52496337890625,-0.4114990234375,-3333,-6078,-2365,-57,-156,-29
305358768,0.59039306640625,-0.474609375,0.51513671875,-0.40106201171875,-2455,-6550,-2609,-56,-159,-37
305368759,0.5936279296875,-0.490234375,0.5040283203125,-0.3914794921875,-1311,-7236,-2781,-53,-160,-43
305378744,0.59613037109375,-0.50592041015625,0.4918212890625,-0.38311767578125,79,-7986,-2900,-48,-156,-48
305388718,0.597900390625,-0.5211181640625,0.47894287109375,-0.376220703125,1627,-8755,-2909,-41,-147,-49
305398702,0.59918212890625,-0.5350341796875,0.46600341796875,-0.370849609375,3266,-9453,-2828,-31,-133,-45
305408685,0.60009765625,-0.54705810546875,0.4534912109375,-0.3673095703125,4943,-9963,-2661,-19,-114,-39
305418668,0.60052490234375,-0.556884765625,0.4420166015625,-0.365966796875,6510,-10201,-2467,-7,-90,-34
305428653,0.60003662109375,-0.5645751953125,0.4317626953125,-0.36712646484375,7926,-10231,-2292,4,-61,-34
305438635,0.598388671875,-0.5701904296875,0.42315673828125,-0.37109375,9074,-10137,-2093,12,-29,-33
305448613,0.59576416015625,-0.573486328125,0.4169921875,-0.37725830078125,9895,-10035,-1757,17,5,-27
305458595,0.5921630859375,-0.57415771484375,0.41363525390625,-0.38543701171875,10295,-9950,-1327,20,40,-19
305468578,0.5880126953125,-0.57208251953125,0.41357421875,-0.39495849609375,10213,-9813,-884,22,73,-6
305478568,0.58349609375,-0.56707763671875,0.4171142578125,-0.40496826171875,9709,-9662,-544,24,102,12
305488549,0.5787353515625,-0.55938720703125,0.42413330078125,-0.41497802734375,8934,-9445,-344,25,128,29
305498529,0.5736083984375,-0.54949951171875,0.4339599609375,-0.4251708984375,7970,-9208,-270,25,150,40
305508514,0.56756591796875,-0.53790283203125,0.44573974609375,-0.4356689453125,6874,-8962,-338,25,169,43
305518496,0.5604248046875,-0.52508544921875,0.45892333984375,-0.44671630859375,5602,-8727,-512,24,186,39
305528479,0.5521240234375,-0.51129150390625,0.4732666015625,-0.45794677734375,4164,-8408,-732,22,198,37
305538464,0.54315185546875,-0.49658203125,0.48846435546875,-0.46875,2537,-8052,-957,19,205,36
305548451,0.53387451171875,-0.48101806640625,0.5045166015625,-0.47857666015625,744,-7754,-1129,15,208,38
305558436,0.5247802734375,-0.46484375,0.52093505859375,-0.48699951171875,-1215,-7529,-1227,11,204,40
305568420,0.51611328125,-0.44842529296875,0.537353515625,-0.49371337890625,-3309,-7339,-1259,5,195,41
305578405,0.50830078125,-0.432373046875,0.55316162109375,-0.49871826171875,-5430,-7078,-1198,0,179,37
305588381,0.50115966796875,-0.41778564453125,0.56768798828125,-0.5020751953125,-7511,-6752,-1052,-7,158,27
305598361,0.49517822265625,-0.4051513671875,0.58050537109375,-0.503662109375,-9480,-6357,-802,-15,130,18
305608350,0.49102783203125,-0.39483642578125,0.59149169921875,-0.5030517578125,-11264,-6117,-514,-23,96,13
305618325,0.48931884765625,-0.38714599609375,0.6005859375,-0.5,-12622,-6064,-243,-31,58,14
305628311,0.4903564453125,-0.382080078125,0.60760498046875,-0.494384765625,-13619,-6077,-108,-37,17,16
305638293,0.49395751953125,-0.37982177734375,0.612548828125,-0.486328125,-14134,-6102,-148,-43,-23,17
305648270,0.49969482421875,-0.38092041015625,0.6151123046875,-0.47625732421875,-14117,-6236,-360,-48,-62,14
305658256,0.50701904296875,-0.3851318359375,0.61529541015625,-0.4647216796875,-13571,-6458,-675,-51,-97,11
305668243,0.515625,-0.39227294921875,0.61297607421875,-0.45220947265625,-12492,-6726,-1084,-52,-127,7
305678227,0.52490234375,-0.40179443359375,0.60833740234375,-0.4393310546875,-10924,-7016,-1573,-50,-150,2
305688212,0.5343017578125,-0.4130859375,0.6015625,-0.4266357421875,-8986,-7335,-2082,-46,-165,-2
305698189,0.54339599609375,-0.42572021484375,0.5928955078125,-0.4146728515625,-6767,-7608,-2614,-40,-173,-9
305708181,0.55145263671875,-0.439453125,0.58258056640625,-0.40423583984375,-4330,-7806,-3097,-34,-174,-20
305718164,0.5579833984375,-0.45404052734375,0.5706787109375,-0.39605712890625,-1754,-8004,-3415,-26,-167,-34
305728143,0.562744140625,-0.46875,0.5576171875,-0.390625,737,-8165,-3584,-17,-153,-47
305738119,0.5660400390625,-0.482666015625,0.54425048828125,-0.38775634765625,3039,-8198,-3579,-7,-134,-52
305748103,0.568115234375,-0.494873046875,0.53143310546875,-0.3870849609375,4950,-8101,-3455,2,-110,-49
305758083,0.56939697265625,-0.50457763671875,0.5203857421875,-0.38775634765625,6468,-8038,-3145,8,-84,-37
305768065,0.56988525390625,-0.51177978515625,0.51129150390625,-0.38983154296875,7461,-8072,-2723,13,-56,-29
305778051,0.56927490234375,-0.5167236328125,0.504150390625,-0.39337158203125,7941,-8101,-2327,16,-28,-25
305788031,0.56768798828125,-0.5196533203125,0.499267578125,-0.39801025390625,7938,-8039,-1940,17,-3,-20
305798015,0.56536865234375,-0.5206298828125,0.49664306640625,-0.4033203125,7488,-7921,-1564,16,20,-14
305807995,0.56231689453125,-0.5198974609375,0.4964599609375,-0.40869140625,6616,-7811,-1234,12,40,-6
305817993,0.5589599609375,-0.51763916015625,0.4986572265625,-0.41351318359375,5406,-7685,-950,6,54,2
305827965,0.5550537109375,-0.5145263671875,0.5025634765625,-0.4178466796875,3996,-7636,-700,-1,64,4
305837947,0.55078125,-0.51104736328125,0.507568359375,-0.42169189453125,2502,-7747,-435,-7,70,3
305847929,0.5462646484375,-0.5074462890625,0.51318359375,-0.4251708984375,1081,-7978,-190,-12,71,2
305857911,0.54180908203125,-0.50372314453125,0.51910400390625,-0.42803955078125,-229,-8267,-7,-15,70,3
305867893,0.53778076171875,-0.499755859375,0.52520751953125,-0.4302978515625,-1344,-8579,77,-14,67,7
305877877,0.53448486328125,-0.4954833984375,0.53125,-0.43194580078125,-2306,-8844,99,-12,62,12
305887860,0.53192138671875,-0.49102783203125,0.5369873046875,-0.43316650390625,-3141,-8988,77,-8,56,13
305897846,0.52996826171875,-0.4866943359375,0.5419921875,-0.4342041015625,-3860,-9066,53,-3,49,10
305907831,0.5286865234375,-0.4827880859375,0.5458984375,-0.43524169921875,-4446,-9099,37,1,40,4
305917816,0.52783203125,-0.47955322265625,0.54852294921875,-0.43646240234375,-4861,-9081,57,5,31,-4
305927794,0.52740478515625,-0.47705078125,0.5499267578125,-0.43804931640625,-5108,-9003,68,9,22,-11
305937773,0.5274658203125,-0.47509765625,0.5501708984375,-0.439697265625,-5186,-8918,72,13,14,-15
305947765,0.52783203125,-0.4736328125,0.5496826171875,-0.44146728515625,-5122,-8894,55,16,7,-16
305957748,0.52874755859375,-0.47235107421875,0.548583984375,-0.443115234375,-4941,-8878,39,18,2,-15
305967732,0.530029296875,-0.47113037109375,0.5472412109375,-0.444580078125,-4659,-8787,5,20,-3,-11
305977704,0.53167724609375,-0.4698486328125,0.54583740234375,-0.44561767578125,-4331,-8603,-51,21,-6,-7
305987688,0.53369140625,-0.46856689453125,0.5443115234375,-0.4464111328125,-3957,-8360,-71,21,-8,-3
305997677,0.53582763671875,-0.46728515625,0.54290771484375,-0.44696044921875,-3595,-8133,-111,20,-9,0
306007653,0.53790283203125,-0.46612548828125,0.5416259765625,-0.447265625,-3249,-7939,-146,19,-10,2
306017637,0.53997802734375,-0.46502685546875,0.5404052734375,-0.447265625,-2912,-7823,-217,17,-11,4
306027620,0.5421142578125,-0.4639892578125,0.5394287109375,-0.44708251953125,-2572,-7783,-264,16,-12,8
306037604,0.5443115234375,-0.462890625,0.53857421875,-0.446533203125,-2289,-7725,-295,14,-12,12
306047585,0.546630859375,-0.461669921875,0.53802490234375,-0.44561767578125,-2044,-7618,-323,13,-12,15
306057569,0.54888916015625,-0.4605712890625,0.53765869140625,-0.44439697265625,-1834,-7516,-344,11,-13,17
306067553,0.55108642578125,-0.4595947265625,0.537353515625,-0.443115234375,-1652,-7411,-343,8,-13,17
306077535,0.552978515625,-0.45892333984375,0.5369873046875,-0.44183349609375,-1504,-7432,-348,6,-13,14
306087519,0.5545654296875,-0.45867919921875,0.53643798828125,-0.44073486328125,-1378,-7519,-380,5,-13,9
306097503,0.5557861328125,-0.45880126953125,0.53582763671875,-0.43994140625,-1254,-7650,-438,5,-12,6
306107484,0.5567626953125,-0.45904541015625,0.53509521484375,-0.43927001953125,-1117,-7732,-488,4,-12,5
306117468,0.55767822265625,-0.45928955078125,0.53448486328125,-0.4385986328125,-1002,-7761,-531,4,-11,6
306127451,0.55859375,-0.45928955078125,0.5341796875,-0.43780517578125,-934,-7769,-568,3,-10,9
306137431,0.5595703125,-0.45916748046875,0.53411865234375,-0.436767578125,-865,-7785,-596,2,-9,12
306147422,0.560546875,-0.45880126953125,0.53424072265625,-0.4356689453125,-807,-7851,-588,2,-7,14
306157404,0.56134033203125,-0.45843505859375,0.53448486328125,-0.43475341796875,-739,-7935,-556,2,-5,13
306167389,0.56195068359375,-0.4580078125,0.53472900390625,-0.43414306640625,-707,-8019,-507,2,-3,11
306177364,0.56231689453125,-0.4576416015625,0.5347900390625,-0.43402099609375,-718,-8072,-454,3,-1,6
306187353,0.5623779296875,-0.45733642578125,0.53472900390625,-0.434326171875,-749,-8073,-394,4,1,2
306197335,0.562255859375,-0.45709228515625,0.53460693359375,-0.4349365234375,-794,-8047,-338,4,3,-1
306207313,0.56195068359375,-0.456787109375,0.53448486328125,-0.43572998046875,-841,-7991,-282,5,4,-2
306217297,0.5616455078125,-0.45635986328125,0.53448486328125,-0.43658447265625,-899,-7922,-235,5,6,-1
306227280,0.561279296875,-0.45587158203125,0.53466796875,-0.4373779296875,-997,-7851,-174,4,7,-1
306237262,0.56085205078125,-0.45538330078125,0.534912109375,-0.43817138671875,-1101,-7776,-107,3,7,-1
306247243,0.56024169921875,-0.4549560546875,0.53515625,-0.43896484375,-1198,-7667,-75,1,8,-4
306257234,0.55950927734375,-0.454833984375,0.5355224609375,-0.43963623046875,-1290,-7550,-42,-1,8,-5
306267214,0.55841064453125,-0.4549560546875,0.535888671875,-0.4404296875,-1349,-7465,18,-4,8,-8
306277194,0.55706787109375,-0.4554443359375,0.53619384765625,-0.4412841796875,-1399,-7428,68,-6,8,-11
306287186,0.55548095703125,-0.45623779296875,0.53643798828125,-0.44219970703125,-1433,-7407,123,-8,9,-14
306297173,0.5535888671875,-0.45721435546875,0.53668212890625,-0.4432373046875,-1453,-7426,165,-10,10,-16
306307146,0.551513671875,-0.45831298828125,0.53704833984375,-0.4442138671875,-1484,-7484,160,-11,10,-16
306317123,0.549560546875,-0.45941162109375,0.53753662109375,-0.44488525390625,-1533,-7572,134,-12,9,-14
306327105,0.54779052734375,-0.46038818359375,0.53814697265625,-0.4453125,-1593,-7677,95,-12,8,-11
306337089,0.54644775390625,-0.46112060546875,0.5389404296875,-0.4453125,-1669,-7787,36,-11,6,-6
306347071,0.54547119140625,-0.46160888671875,0.539794921875,-0.4449462890625,-1715,-7909,8,-11,4,-2
306357058,0.54486083984375,-0.4619140625,0.5406494140625,-0.44439697265625,-1731,-8005,-27,-9,2,1
306367039,0.54437255859375,-0.46221923828125,0.5413818359375,-0.44378662109375,-1723,-8088,-65,-8,1,1
306377025,0.5439453125,-0.462646484375,0.5418701171875,-0.44317626953125,-1708,-8163,-118,-8,0,-1
306387003,0.5435791015625,-0.46319580078125,0.5421142578125,-0.44281005859375,-1668,-8216,-155,-7,-2,-2
306396991,0.543212890625,-0.46380615234375,0.54217529296875,-0.4425048828125,-1635,-8250,-210,-5,-2,-4
306406977,0.54296875,-0.4644775390625,0.54205322265625,-0.4422607421875,-1593,-8274,-250,-4,-4,-4
306416950,0.5428466796875,-0.46514892578125,0.54168701171875,-0.442138671875,-1549,-8291,-274,-2,-5,-4
306426938,0.54290771484375,-0.4656982421875,0.54119873046875,-0.44207763671875,-1506,-8312,-285,0,-6,-4
306436920,0.5430908203125,-0.46624755859375,0.54052734375,-0.442138671875,-1448,-8313,-312,2,-7,-4
306446901,0.54339599609375,-0.46673583984375,0.53973388671875,-0.44219970703125,-1379,-8296,-368,3,-7,-4
306456884,0.54376220703125,-0.4671630859375,0.5389404296875,-0.4422607421875,-1291,-8262,-399,4,-7,-3
306466877,0.5443115234375,-0.4674072265625,0.53814697265625,-0.4422607421875,-1194,-8213,-419,5,-8,0
306476850,0.544921875,-0.467529296875,0.53753662109375,-0.44219970703125,-1102,-8217,-402,5,-7,2
306486833,0.545654296875,-0.4674072265625,0.53692626953125,-0.442138671875,-1024,-8266,-347,6,-6,3
306496816,0.54638671875,-0.46710205078125,0.536376953125,-0.4422607421875,-964,-8321,-275,7,-5,4
306506800,0.5472412109375,-0.46661376953125,0.5357666015625,-0.4425048828125,-920,-8325,-206,8,-4,4
306516784,0.5479736328125,-0.46600341796875,0.53515625,-0.44287109375,-914,-8253,-154,9,-3,2
306526766,0.548583984375,-0.46551513671875,0.53448486328125,-0.44354248046875,-924,-8135,-97,9,-2,-1
306536758,0.548828125,-0.4652099609375,0.53375244140625,-0.44439697265625,-934,-8008,-80,8,0,-4
306546737,0.54864501953125,-0.465087890625,0.5330810546875,-0.44549560546875,-955,-7920,-91,7,2,-7
306556714,0.548095703125,-0.4652099609375,0.53253173828125,-0.44671630859375,-1010,-7842,-83,4,4,-10
306566698,0.54730224609375,-0.46539306640625,0.5321044921875,-0.447998046875,-1123,-7778,-44,2,6,-12
306576682,0.54644775390625,-0.46551513671875,0.531982421875,-0.4490966796875,-1315,-7715,6,1,7,-11
306586667,0.54559326171875,-0.4654541015625,0.53216552734375,-0.45001220703125,-1582,-7645,89,-2,8,-10
306596643,0.54461669921875,-0.46539306640625,0.53253173828125,-0.45086669921875,-1943,-7638,181,-3,9,-13
306606627,0.543212890625,-0.465576171875,0.53271484375,-0.4520263671875,-2416,-7692,280,-5,11,-21
306616611,0.54132080078125,-0.46624755859375,0.5325927734375,-0.4537353515625,-3032,-7732,328,-5,12,-33
306626593,0.5390625,-0.46722412109375,0.53228759765625,-0.455810546875,-3764,-7720,332,-5,13,-41
306636575,0.536865234375,-0.4678955078125,0.53228759765625,-0.45770263671875,-4559,-7730,311,-5,14,-38
306646558,0.5355224609375,-0.46734619140625,0.53338623046875,-0.4586181640625,-5317,-7738,292,-4,16,-22
306656548,0.53546142578125,-0.46490478515625,0.5360107421875,-0.4580078125,-5996,-7676,266,-3,19,5
306666527,0.5369873046875,-0.46026611328125,0.5406494140625,-0.45550537109375,-6571,-7477,218,-3,22,35
306676511,0.5400390625,-0.45343017578125,0.54705810546875,-0.45111083984375,-6970,-7110,177,-3,24,65
306686497,0.54412841796875,-0.44488525390625,0.554931640625,-0.44500732421875,-7145,-6637,162,-5,25,89
306696479,0.548828125,-0.43536376953125,0.5634765625,-0.43780517578125,-7123,-6075,157,-7,25,102
306706463,0.553466796875,-0.42578125,0.5721435546875,-0.43017578125,-6954,-5360,149,-9,24,103
306716449,0.5574951171875,-0.41705322265625,0.58013916015625,-0.4227294921875,-6650,-4604,106,-10,22,94
306726438,0.560791015625,-0.40972900390625,0.5869140625,-0.41607666015625,-6239,-3968,89,-12,17,77
306736421,0.5634765625,-0.404052734375,0.59222412109375,-0.41046142578125,-5689,-3708,132,-11,10,62
306746403,0.56610107421875,-0.399658203125,0.5958251953125,-0.40594482421875,-4951,-3961,240,-7,2,53
306756378,0.56903076171875,-0.39605712890625,0.59796142578125,-0.40216064453125,-3972,-4603,292,-1,-6,51
306766361,0.57232666015625,-0.39288330078125,0.59912109375,-0.39886474609375,-2784,-5557,202,5,-13,55
306776342,0.575927734375,-0.3900146484375,0.59979248046875,-0.3955078125,-1509,-6810,5,7,-18,64
306786325,0.57965087890625,-0.38726806640625,0.600341796875,-0.39190673828125,-305,-8150,-232,6,-21,71
306796309,0.58306884765625,-0.3851318359375,0.6007080078125,-0.38836669921875,660,-9356,-501,4,-22,69
306806293,0.58551025390625,-0.3843994140625,0.6007080078125,-0.38543701171875,1310,-10286,-714,-1,-22,52
306816271,0.5865478515625,-0.38568115234375,0.59979248046875,-0.3839111328125,1612,-10957,-875,-5,-21,24
306826256,0.586181640625,-0.38916015625,0.597900390625,-0.384033203125,1590,-11402,-976,-9,-20,-5
306836239,0.58453369140625,-0.39447021484375,0.5950927734375,-0.3853759765625,1326,-11672,-1036,-13,-20,-29
306846223,0.582275390625,-0.4007568359375,0.59185791015625,-0.3873291015625,901,-11816,-1079,-15,-21,-41
306856205,0.580078125,-0.40692138671875,0.588623046875,-0.38909912109375,407,-11809,-1082,-15,-21,-40
306866186,0.5784912109375,-0.41229248046875,0.58587646484375,-0.38995361328125,-57,-11639,-1061,-16,-22,-30
306876177,0.57781982421875,-0.416259765625,0.583984375,-0.3896484375,-449,-11335,-990,-15,-21,-13
306886173,0.57806396484375,-0.418701171875,0.58294677734375,-0.3880615234375,-762,-10922,-871,-14,-20,5
306896138,0.57916259765625,-0.419921875,0.5826416015625,-0.3857421875,-992,-10456,-706,-12,-19,17
306906116,0.58050537109375,-0.4202880859375,0.58258056640625,-0.38330078125,-1188,-9979,-559,-9,-16,20
306916098,0.581787109375,-0.42047119140625,0.58251953125,-0.3812255859375,-1369,-9476,-422,-6,-14,16
306926082,0.58282470703125,-0.4207763671875,0.5821533203125,-0.37994384765625,-1523,-8972,-312,-3,-12,8
306936065,0.58349609375,-0.42120361328125,0.58148193359375,-0.37939453125,-1675,-8484,-219,-1,-9,1
306946052,0.58392333984375,-0.42181396484375,0.58056640625,-0.3795166015625,-1827,-8052,-141,1,-7,-5
306956029,0.5841064453125,-0.42242431640625,0.57958984375,-0.38006591796875,-2008,-7675,-78,3,-5,-9
306966010,0.58428955078125,-0.4228515625,0.57855224609375,-0.380859375,-2203,-7364,-21,4,-4,-10
306975995,0.5843505859375,-0.42315673828125,0.57763671875,-0.38177490234375,-2365,-7161,19,4,-2,-10
306985989,0.5843505859375,-0.42333984375,0.57696533203125,-0.38262939453125,-2500,-7056,31,5,0,-9
306995964,0.5843505859375,-0.42315673828125,0.57647705078125,-0.383544921875,-2583,-7028,41,5,2,-6
307005946,0.5843505859375,-0.42266845703125,0.576416015625,-0.38421630859375,-2647,-7044,37,5,4,-1
307015932,0.58441162109375,-0.4217529296875,0.57684326171875,-0.38446044921875,-2694,-7056,8,3,5,5
307025913,0.5845947265625,-0.42041015625,0.5777587890625,-0.38433837890625,-2735,-7078,-14,2,7,11
307035896,0.584716796875,-0.4188232421875,0.57904052734375,-0.38385009765625,-2767,-7117,-56,1,9,14
307045879,0.58477783203125,-0.417236328125,0.58056640625,-0.3831787109375,-2798,-7188,-82,-1,10,16
307055861,0.584716796875,-0.415771484375,0.5821533203125,-0.382568359375,-2827,-7269,-132,-2,10,14
307065843,0.58441162109375,-0.41455078125,0.5836181640625,-0.382080078125,-2885,-7361,-176,-3,10,11
307075825,0.58392333984375,-0.41363525390625,0.5849609375,-0.38177490234375,-2977,-7477,-217,-3,10,7
307085808,0.58331298828125,-0.4129638671875,0.58612060546875,-0.381591796875,-3075,-7603,-233,-3,9,4
307095793,0.582763671875,-0.4124755859375,0.58709716796875,-0.381591796875,-3177,-7708,-235,-3,8,2
307105771,0.58221435546875,-0.4119873046875,0.587890625,-0.38165283203125,-3247,-7767,-254,-2,7,1
307115765,0.581787109375,-0.41156005859375,0.58856201171875,-0.3817138671875,-3301,-7787,-274,-1,6,0
307125758,0.5814208984375,-0.4112548828125,0.5889892578125,-0.3819580078125,-3336,-7767,-306,0,5,-1
307135733,0.5810546875,-0.41107177734375,0.58935546875,-0.3822021484375,-3362,-7740,-346,0,4,-3
307145708,0.5806884765625,-0.4110107421875,0.58941650390625,-0.3826904296875,-3391,-7706,-379,2,3,-5
307155692,0.580322265625,-0.4110107421875,0.58929443359375,-0.38336181640625,-3413,-7653,-377,3,2,-7
307165674,0.58013916015625,-0.41107177734375,0.58905029296875,-0.384033203125,-3436,-7565,-344,3,1,-7
307175656,0.5802001953125,-0.41094970703125,0.5887451171875,-0.38458251953125,-3412,-7456,-295,4,0,-5
307185645,0.5804443359375,-0.41070556640625,0.58843994140625,-0.3848876953125,-3385,-7404,-253,4,-1,-2
307195623,0.58087158203125,-0.410400390625,0.588134765625,-0.38507080078125,-3340,-7377,-232,4,-3,-1
307205602,0.581298828125,-0.41015625,0.58770751953125,-0.38531494140625,-3273,-7347,-233,5,-3,-1
307215586,0.581787109375,-0.41009521484375,0.58709716796875,-0.38555908203125,-3187,-7326,-240,5,-5,-3
307225568,0.58209228515625,-0.4102783203125,0.58636474609375,-0.38604736328125,-3087,-7310,-264,5,-5,-6
307235551,0.58233642578125,-0.41058349609375,0.58551025390625,-0.38665771484375,-2977,-7298,-266,5,-5,-7
307245536,0.58251953125,-0.4110107421875,0.58453369140625,-0.3873291015625,-2877,-7278,-259,5,-5,-7
307255516,0.58282470703125,-0.411376953125,0.5836181640625,-0.38787841796875,-2755,-7213,-233,4,-6,-6
307265501,0.5831298828125,-0.41180419921875,0.5826416015625,-0.388427734375,-2647,-7160,-209,4,-6,-6
307275482,0.58331298828125,-0.412353515625,0.5816650390625,-0.38909912109375,-2570,-7106,-191,4,-6,-9
307285467,0.58331298828125,-0.4132080078125,0.58050537109375,-0.389892578125,-2513,-7104,-179,3,-6,-12
307295449,0.5831298828125,-0.41424560546875,0.5792236328125,-0.390869140625,-2432,-7142,-176,3,-6,-14
307305437,0.5828857421875,-0.4154052734375,0.57794189453125,-0.391845703125,-2315,-7172,-166,2,-6,-13
307315422,0.582763671875,-0.41644287109375,0.57684326171875,-0.3927001953125,-2175,-7192,-150,1,-6,-10
307325404,0.58270263671875,-0.41729736328125,0.57598876953125,-0.3931884765625,-2040,-7204,-162,1,-5,-5
307335390,0.5826416015625,-0.41796875,0.5753173828125,-0.3934326171875,-1898,-7236,-182,-1,-5,-3
307345361,0.58233642578125,-0.41888427734375,0.5748291015625,-0.39361572265625,-1774,-7281,-257,-2,-4,-5
307355343,0.58160400390625,-0.4202880859375,0.57421875,-0.3941650390625,-1661,-7354,-332,-4,-3,-10
307365332,0.580322265625,-0.42205810546875,0.57354736328125,-0.39508056640625,-1604,-7451,-410,-5,0,-16
307375314,0.57861328125,-0.42413330078125,0.5728759765625,-0.39642333984375,-1592,-7570,-435,-6,2,-21
307385296,0.5767822265625,-0.4261474609375,0.57220458984375,-0.3978271484375,-1614,-7667,-409,-7,3,-21
307395278,0.5750732421875,-0.42791748046875,0.5716552734375,-0.399169921875,-1603,-7755,-370,-6,4,-17
307405260,0.5736083984375,-0.4293212890625,0.5714111328125,-0.40020751953125,-1563,-7784,-355,-6,4,-12
307415241,0.572265625,-0.43023681640625,0.5714111328125,-0.40106201171875,-1515,-7795,-365,-5,5,-8
307425234,0.571044921875,-0.43096923828125,0.571533203125,-0.40185546875,-1470,-7782,-373,-4,7,-7
307435215,0.5697021484375,-0.431640625,0.5716552734375,-0.40289306640625,-1471,-7744,-379,-3,8,-9
307445205,0.56817626953125,-0.432373046875,0.57171630859375,-0.40423583984375,-1492,-7703,-377,-2,9,-12
307455188,0.56646728515625,-0.43316650390625,0.57159423828125,-0.40582275390625,-1526,-7660,-362,-2,10,-16
307465173,0.564697265625,-0.43402099609375,0.57147216796875,-0.40765380859375,-1538,-7649,-337,-1,11,-17
307475158,0.56292724609375,-0.4346923828125,0.57135009765625,-0.4095458984375,-1516,-7698,-320,0,12,-15
307485127,0.56134033203125,-0.4349365234375,0.57135009765625,-0.411376953125,-1400,-7839,-326,2,13,-10
307495109,0.55987548828125,-0.43475341796875,0.57159423828125,-0.4132080078125,-1145,-8029,-392,4,14,-4
307505095,0.55865478515625,-0.43389892578125,0.57220458984375,-0.4149169921875,-811,-8196,-526,7,18,5
307515078,0.55780029296875,-0.43194580078125,0.57354736328125,-0.41632080078125,-434,-8280,-642,11,21,19
307525060,0.55755615234375,-0.42852783203125,0.57586669921875,-0.4169921875,-18,-8312,-671,13,25,37
307535044,0.55816650390625,-0.4234619140625,0.57916259765625,-0.41668701171875,430,-8399,-615,14,28,59
307545028,0.55963134765625,-0.4168701171875,0.58349609375,-0.4154052734375,894,-8549,-508,14,30,79
307555009,0.56170654296875,-0.4091796875,0.58843994140625,-0.41326904296875,1293,-8714,-392,15,31,93
307564996,0.56402587890625,-0.40106201171875,0.59356689453125,-0.41070556640625,1520,-8818,-231,14,30,96
307574984,0.56610107421875,-0.39385986328125,0.597900390625,-0.40850830078125,1489,-8783,-16,11,26,80
307584964,0.567138671875,-0.38916015625,0.60064697265625,-0.40753173828125,1135,-8634,218,5,19,44
307594946,0.56622314453125,-0.38873291015625,0.6011962890625,-0.40850830078125,454,-8564,395,-5,10,-9
307604922,0.56268310546875,-0.3934326171875,0.5989990234375,-0.41204833984375,-449,-8790,492,-15,1,-70
307614906,0.55682373046875,-0.40283203125,0.5941162109375,-0.41790771484375,-1472,-9352,466,-23,-8,-120
307624886,0.549560546875,-0.415283203125,0.58746337890625,-0.42474365234375,-2544,-10050,286,-28,-17,-149
307634870,0.542236328125,-0.42852783203125,0.58013916015625,-0.4310302734375,-3535,-10642,-19,-30,-25,-151
307644852,0.535888671875,-0.4410400390625,0.5731201171875,-0.4356689453125,-4341,-11042,-415,-28,-31,-135
307654839,0.53131103515625,-0.4515380859375,0.5672607421875,-0.43817138671875,-4933,-11268,-759,-26,-34,-105
307664821,0.52899169921875,-0.4591064453125,0.5631103515625,-0.43853759765625,-5322,-11367,-936,-20,-33,-67
307674803,0.5289306640625,-0.4635009765625,0.5606689453125,-0.4371337890625,-5508,-11283,-981,-13,-31,-31
307684784,0.53057861328125,-0.465087890625,0.5595703125,-0.43475341796875,-5576,-10906,-953,-5,-26,-4
307694771,0.53326416015625,-0.4647216796875,0.5594482421875,-0.43206787109375,-5605,-10184,-902,2,-21,10
307704758,0.5362548828125,-0.46331787109375,0.5596923828125,-0.42950439453125,-5628,-9287,-789,6,-16,13
307714740,0.53912353515625,-0.46160888671875,0.559814453125,-0.4276123046875,-5617,-8398,-624,9,-12,9
307724718,0.5416259765625,-0.4599609375,0.55975341796875,-0.4263916015625,-5573,-7592,-444,10,-9,2
307734700,0.54364013671875,-0.45855712890625,0.55938720703125,-0.42584228515625,-5469,-6873,-288,11,-7,-3
307744681,0.545166015625,-0.4573974609375,0.558837890625,-0.42578125,-5322,-6223,-183,11,-5,-8
307754665,0.54632568359375,-0.45648193359375,0.55816650390625,-0.4261474609375,-5135,-5647,-111,11,-3,-12
307764647,0.54718017578125,-0.45562744140625,0.55755615234375,-0.42669677734375,-4923,-5207,-53,10,-1,-12
307774635,0.54791259765625,-0.4547119140625,0.55731201171875,-0.4271240234375,-4713,-4931,-35,8,1,-8
307784613,0.54852294921875,-0.45355224609375,0.55755615234375,-0.42724609375,-4510,-4812,-35,6,3,-3
307794601,0.5491943359375,-0.45208740234375,0.558349609375,-0.4268798828125,-4326,-4821,-57,3,5,3
307804582,0.54986572265625,-0.450439453125,0.5595703125,-0.4261474609375,-4142,-4951,-77,1,6,10
307814566,0.550537109375,-0.4486083984375,0.561279296875,-0.42498779296875,-3956,-5168,-113,-1,7,14
307824547,0.551025390625,-0.44683837890625,0.56317138671875,-0.42364501953125,-3755,-5461,-161,-4,7,16
307834528,0.55133056640625,-0.4453125,0.565185546875,-0.4222412109375,-3535,-5822,-222,-6,8,16
307844511,0.55133056640625,-0.4439697265625,0.56719970703125,-0.42095947265625,-3276,-6195,-305,-7,8,15
307854494,0.55108642578125,-0.44305419921875,0.5689697265625,-0.41986083984375,-2990,-6608,-374,-8,8,12
307864477,0.55047607421875,-0.4423828125,0.57061767578125,-0.41912841796875,-2706,-6988,-455,-8,9,9
307874459,0.54962158203125,-0.44189453125,0.5721435546875,-0.4185791015625,-2447,-7314,-533,-8,10,8
307884449,0.54864501953125,-0.4415283203125,0.5736083984375,-0.4183349609375,-2230,-7599,-605,-7,11,6
307894431,0.54754638671875,-0.441162109375,0.574951171875,-0.41827392578125,-2054,-7828,-680,-6,11,5
307904415,0.54644775390625,-0.4407958984375,0.5762939453125,-0.418212890625,-1946,-8013,-736,-5,11,5
307914398,0.54547119140625,-0.4403076171875,0.57757568359375,-0.41827392578125,-1902,-8150,-756,-4,11,5
307924374,0.54461669921875,-0.43975830078125,0.57879638671875,-0.4183349609375,-1887,-8237,-772,-4,11,5
307934358,0.5438232421875,-0.43914794921875,0.5799560546875,-0.4183349609375,-1880,-8270,-757,-3,10,6
307944343,0.543212890625,-0.43841552734375,0.58111572265625,-0.41827392578125,-1885,-8281,-713,-3,9,7
307954325,0.54278564453125,-0.437744140625,0.5821533203125,-0.418212890625,-1877,-8245,-676,-2,8,7
307964306,0.54241943359375,-0.43707275390625,0.58306884765625,-0.4180908203125,-1860,-8207,-609,-2,7,7
307974293,0.54217529296875,-0.43634033203125,0.58392333984375,-0.41796875,-1848,-8165,-556,-2,6,7
307984272,0.5419921875,-0.43572998046875,0.5845947265625,-0.4178466796875,-1836,-8119,-509,-2,5,6
307994256,0.5418701171875,-0.4351806640625,0.58514404296875,-0.4178466796875,-1820,-8087,-494,-1,4,5
308004238,0.5416259765625,-0.4349365234375,0.58544921875,-0.41796875,-1803,-8040,-479,-1,3,2
308014237,0.54144287109375,-0.434814453125,0.5855712890625,-0.418212890625,-1812,-8009,-469,0,2,-1
308024214,0.5411376953125,-0.434814453125,0.58551025390625,-0.4185791015625,-1833,-7988,-463,1,1,-2
308034193,0.541015625,-0.4349365234375,0.5853271484375,-0.4189453125,-1864,-7947,-465,1,0,-3
308044186,0.541015625,-0.43499755859375,0.5850830078125,-0.41925048828125,-1892,-7882,-472,2,-1,-2
308054173,0.5411376953125,-0.43505859375,0.58477783203125,-0.41943359375,-1887,-7835,-468,2,-2,-2
308064144,0.541259765625,-0.4351806640625,0.5843505859375,-0.419677734375,-1847,-7801,-477,2,-3,-2
308074120,0.54132080078125,-0.4354248046875,0.58392333984375,-0.41998291015625,-1813,-7762,-497,2,-3,-3
308084102,0.5413818359375,-0.43572998046875,0.5833740234375,-0.42034912109375,-1779,-7721,-472,3,-3,-4
308094085,0.54144287109375,-0.43603515625,0.582763671875,-0.4207763671875,-1791,-7690,-441,2,-3,-5
308104066,0.54150390625,-0.4364013671875,0.58221435546875,-0.421142578125,-1821,-7627,-436,2,-3,-5
308114051,0.54150390625,-0.43682861328125,0.58160400390625,-0.4215087890625,-1835,-7603,-423,1,-4,-6
308124031,0.54150390625,-0.43743896484375,0.5809326171875,-0.42181396484375,-1822,-7604,-424,0,-4,-7
308134013,0.54119873046875,-0.438232421875,0.58026123046875,-0.4222412109375,-1753,-7637,-470,0,-4,-8
308143997,0.540771484375,-0.439208984375,0.57952880859375,-0.42279052734375,-1647,-7720,-527,-1,-3,-10
308153989,0.5400390625,-0.44024658203125,0.578857421875,-0.423583984375,-1525,-7845,-624,0,-1,-11
308163967,0.53900146484375,-0.4412841796875,0.57830810546875,-0.42462158203125,-1399,-7994,-727,0,2,-12
308173948,0.53765869140625,-0.4422607421875,0.57781982421875,-0.42596435546875,-1290,-8149,-811,0,5,-14
308183929,0.535888671875,-0.44317626953125,0.57745361328125,-0.427734375,-1211,-8280,-892,1,9,-16
308193913,0.5338134765625,-0.44403076171875,0.57720947265625,-0.4298095703125,-1177,-8407,-951,1,13,-18
308203896,0.5313720703125,-0.44464111328125,0.57720947265625,-0.43212890625,-1203,-8514,-988,1,18,-18
308213880,0.5289306640625,-0.44464111328125,0.57769775390625,-0.4344482421875,-1309,-8615,-959,1,22,-14
308223861,0.52685546875,-0.44384765625,0.57867431640625,-0.43646240234375,-1514,-8716,-801,2,24,-6
308233851,0.52557373046875,-0.44195556640625,0.58013916015625,-0.43798828125,-1797,-8806,-504,4,25,4
308243831,0.525146484375,-0.43902587890625,0.581787109375,-0.43927001953125,-2093,-8883,-64,6,25,12
308256995,0.52545166015625,-0.43548583984375,0.583251953125,-0.4405517578125,-2353,-8863,441,10,23,14
308263798,0.52630615234375,-0.43157958984375,0.58416748046875,-0.44207763671875,-2582,-8672,1010,14,21,12
308273784,0.5274658203125,-0.427734375,0.58441162109375,-0.44415283203125,-2754,-8291,1619,17,19,8
308283771,0.52874755859375,-0.42413330078125,0.58392333984375,-0.44677734375,-2862,-7770,2246,19,17,1
308293756,0.52996826171875,-0.4210205078125,0.5826416015625,-0.44989013671875,-2934,-7195,2914,20,14,-8
308303734,0.53118896484375,-0.4183349609375,0.5806884765625,-0.45343017578125,-2977,-6660,3541,20,12,-14
308313712,0.532470703125,-0.41595458984375,0.578369140625,-0.45703125,-2993,-6215,4054,18,9,-14
308323693,0.53411865234375,-0.41357421875,0.5762939453125,-0.4599609375,-3045,-5880,4364,16,6,-8
308333685,0.5361328125,-0.4111328125,0.57470703125,-0.4617919921875,-3134,-5707,4461,12,2,0
308343660,0.53857421875,-0.40863037109375,0.57379150390625,-0.4622802734375,-3254,-5657,4309,7,-2,9
308353639,0.54119873046875,-0.406494140625,0.573486328125,-0.46148681640625,-3357,-5707,3945,1,-7,15
308363628,0.543701171875,-0.40509033203125,0.57366943359375,-0.45947265625,-3409,-5840,3371,-7,-12,17
308373607,0.54571533203125,-0.40484619140625,0.57415771484375,-0.4566650390625,-3393,-6012,2612,-14,-16,14
308383590,0.54681396484375,-0.4061279296875,0.5748291015625,-0.4534912109375,-3247,-6135,1673,-21,-19,7
308393576,0.546630859375,-0.4090576171875,0.57568359375,-0.449951171875,-3008,-6240,503,-29,-21,-2
308403553,0.54522705078125,-0.41339111328125,0.57696533203125,-0.446044921875,-2777,-6385,-862,-36,-21,-7
308413534,0.54278564453125,-0.41888427734375,0.57879638671875,-0.44146728515625,-2639,-6676,-2405,-42,-22,-10
308423517,0.5396728515625,-0.42498779296875,0.58123779296875,-0.436279296875,-2599,-7211,-3968,-44,-22,-10
308433501,0.536376953125,-0.43121337890625,0.5838623046875,-0.43060302734375,-2630,-7987,-5317,-43,-23,-9
308443483,0.53289794921875,-0.4375,0.58599853515625,-0.4256591796875,-2610,-9013,-6477,-38,-23,-14
308453465,0.52947998046875,-0.44354248046875,0.5875244140625,-0.42156982421875,-2587,-10081,-7446,-27,-22,-16
308463449,0.5267333984375,-0.44879150390625,0.58837890625,-0.41827392578125,-2591,-10904,-8242,-14,-22,-14
308473434,0.52496337890625,-0.4527587890625,0.5887451171875,-0.41571044921875,-2694,-11357,-8840,1,-23,-10
308483423,0.5245361328125,-0.45538330078125,0.58868408203125,-0.41351318359375,-2918,-11478,-9200,14,-25,-4
308493413,0.52557373046875,-0.45654296875,0.5882568359375,-0.411376953125,-3233,-11287,-9316,25,-28,3
308503391,0.52813720703125,-0.45654296875,0.587646484375,-0.4090576171875,-3550,-10810,-9130,32,-33,12
308513370,0.53216552734375,-0.45562744140625,0.58660888671875,-0.40631103515625,-3786,-10136,-8653,36,-39,19
308523352,0.537353515625,-0.454345703125,0.58502197265625,-0.4031982421875,-3850,-9361,-7917,38,-46,23
308533336,0.54339599609375,-0.4530029296875,0.58258056640625,-0.40008544921875,-3701,-8532,-6913,37,-53,23
308543318,0.54986572265625,-0.45220947265625,0.5791015625,-0.397216796875,-3312,-7682,-5669,34,-59,19
308553302,0.55615234375,-0.4522705078125,0.5745849609375,-0.39495849609375,-2696,-6751,-4142,28,-60,10
308563293,0.5618896484375,-0.4532470703125,0.56915283203125,-0.39349365234375,-1938,-5848,-2426,20,-59,0
308573270,0.56689453125,-0.455078125,0.5631103515625,-0.39300537109375,-1170,-5182,-631,11,-55,-10
308583256,0.5709228515625,-0.45745849609375,0.55694580078125,-0.3931884765625,-553,-4881,1060,3,-48,-15
308593239,0.57440185546875,-0.459716796875,0.55145263671875,-0.3931884765625,-95,-4818,2547,-6,-41,-9
308603226,0.57769775390625,-0.46136474609375,0.54730224609375,-0.39227294921875,316,-4920,3770,-16,-35,6
308613205,0.580810546875,-0.46234130859375,0.54461669921875,-0.39019775390625,739,-5148,4713,-24,-29,20
308623192,0.58331298828125,-0.4630126953125,0.54315185546875,-0.38763427734375,1187,-5529,5325,-30,-21,27
308633175,0.5848388671875,-0.46368408203125,0.542724609375,-0.38519287109375,1603,-6074,5612,-34,-11,29
308643154,0.58526611328125,-0.46441650390625,0.54290771484375,-0.3834228515625,1947,-6725,5677,-35,-2,26
308653129,0.584716796875,-0.46502685546875,0.5435791015625,-0.382568359375,2138,-7435,5610,-32,8,20
308663109,0.58343505859375,-0.4654541015625,0.54437255859375,-0.3829345703125,2132,-8050,5465,-28,17,13
308673094,0.58154296875,-0.4654541015625,0.54522705078125,-0.38446044921875,1981,-8473,5217,-21,25,5
308683079,0.57916259765625,-0.46514892578125,0.54620361328125,-0.3870849609375,1725,-8699,4862,-15,32,-2
308693058,0.576416015625,-0.46441650390625,0.54736328125,-0.3905029296875,1418,-8761,4396,-8,38,-5
308703041,0.5733642578125,-0.463134765625,0.548828125,-0.39434814453125,1089,-8742,3797,-3,43,-7
308713028,0.57012939453125,-0.4613037109375,0.55084228515625,-0.39837646484375,743,-8723,3030,2,47,-5
308723010,0.56671142578125,-0.458984375,0.55340576171875,-0.40240478515625,372,-8726,2131,6,51,-3
308732998,0.56304931640625,-0.4561767578125,0.5565185546875,-0.4063720703125,-2,-8739,1137,10,54,0
308742984,0.55938720703125,-0.4530029296875,0.55999755859375,-0.41021728515625,-422,-8718,71,14,56,2
308752959,0.5556640625,-0.44940185546875,0.56396484375,-0.413818359375,-921,-8682,-1013,18,57,3
308762942,0.55194091796875,-0.44549560546875,0.56817626953125,-0.41717529296875,-1468,-8666,-2070,21,57,4
308772924,0.54833984375,-0.44146728515625,0.57257080078125,-0.42022705078125,-2020,-8668,-3049,24,56,5
308782909,0.54498291015625,-0.43731689453125,0.576904296875,-0.42291259765625,-2501,-8703,-3959,26,52,6
308792895,0.5419921875,-0.43328857421875,0.58111572265625,-0.42523193359375,-2904,-8724,-4720,27,48,7
308802877,0.53936767578125,-0.42926025390625,0.58502197265625,-0.42724609375,-3215,-8633,-5271,29,43,8
308812860,0.5372314453125,-0.4254150390625,0.58856201171875,-0.428955078125,-3453,-8410,-5618,28,38,8
308822843,0.53533935546875,-0.42193603515625,0.591796875,-0.4302978515625,-3660,-8091,-5755,25,32,7
308832825,0.53387451171875,-0.41900634765625,0.59454345703125,-0.43121337890625,-3830,-7754,-5659,21,26,5
308842808,0.53271484375,-0.416748046875,0.5968017578125,-0.431640625,-3970,-7436,-5336,15,19,3
308852791,0.531982421875,-0.41497802734375,0.5987548828125,-0.4315185546875,-4061,-7192,-4848,9,12,4
308862771,0.5318603515625,-0.4136962890625,0.60052490234375,-0.4305419921875,-4114,-7086,-4226,2,5,7
308872763,0.53228759765625,-0.41265869140625,0.60198974609375,-0.42889404296875,-4133,-7069,-3534,-3,-1,11
308882739,0.5333251953125,-0.41192626953125,0.60321044921875,-0.42657470703125,-4087,-7090,-2812,-8,-7,15
308892718,0.53497314453125,-0.4112548828125,0.60430908203125,-0.42364501953125,-3999,-7108,-2077,-11,-12,19
308902699,0.5369873046875,-0.410888671875,0.60504150390625,-0.42041015625,-3876,-7108,-1324,-15,-16,21
308912682,0.53924560546875,-0.4107666015625,0.60546875,-0.41693115234375,-3741,-7117,-577,-18,-20,20
308922665,0.54156494140625,-0.4111328125,0.60546875,-0.41357421875,-3599,-7160,129,-20,-22,15
308932648,0.54376220703125,-0.4122314453125,0.60479736328125,-0.41058349609375,-3428,-7219,814,-22,-25,8
308942635,0.545654296875,-0.41400146484375,0.6033935546875,-0.4083251953125,-3196,-7338,1443,-22,-26,-1
308952612,0.547119140625,-0.41656494140625,0.60125732421875,-0.40692138671875,-2894,-7500,1987,-21,-26,-10
308962595,0.54803466796875,-0.4197998046875,0.59857177734375,-0.4063720703125,-2502,-7598,2433,-21,-24,-19
308972577,0.54827880859375,-0.42340087890625,0.59564208984375,-0.406494140625,-2086,-7620,2788,-22,-21,-24
308982558,0.5479736328125,-0.42718505859375,0.59295654296875,-0.40692138671875,-1718,-7600,3008,-24,-16,-25
308992542,0.5472412109375,-0.4307861328125,0.5906982421875,-0.40740966796875,-1437,-7712,3123,-25,-12,-24
309002525,0.546142578125,-0.43408203125,0.5889892578125,-0.40789794921875,-1248,-7879,3097,-25,-7,-20
309012507,0.54510498046875,-0.43658447265625,0.58782958984375,-0.408203125,-1167,-8127,2956,-22,-4,-13
309022492,0.54443359375,-0.43817138671875,0.5872802734375,-0.40826416015625,-1157,-8344,2711,-18,-1,-5
309032486,0.5439453125,-0.43902587890625,0.58709716796875,-0.40826416015625,-1174,-8495,2409,-14,1,0
309042465,0.54345703125,-0.43939208984375,0.5870361328125,-0.4085693359375,-1178,-8551,2135,-9,4,-1
309052449,0.5428466796875,-0.43951416015625,0.5869140625,-0.40948486328125,-1177,-8509,1873,-4,7,-4
309062436,0.54205322265625,-0.43951416015625,0.58660888671875,-0.4110107421875,-1152,-8374,1620,0,10,-8
309072419,0.5408935546875,-0.43951416015625,0.5860595703125,-0.4132080078125,-1147,-8177,1385,3,12,-13
309082402,0.53955078125,-0.43951416015625,0.5853271484375,-0.416015625,-1174,-7922,1149,7,14,-19
309092375,0.53778076171875,-0.43975830078125,0.5843505859375,-0.41943359375,-1228,-7703,918,9,16,-25
309102359,0.53570556640625,-0.44012451171875,0.58306884765625,-0.4234619140625,-1305,-7591,698,12,18,-31
309112342,0.5333251953125,-0.44061279296875,0.58154296875,-0.427978515625,-1408,-7540,460,15,20,-37
309122324,0.53076171875,-0.44110107421875,0.579833984375,-0.4329833984375,-1504,-7544,247,18,21,-40
309132308,0.5281982421875,-0.44140625,0.5780029296875,-0.438232421875,-1575,-7609,62,21,22,-40
309142293,0.52581787109375,-0.44134521484375,0.576171875,-0.44354248046875,-1643,-7720,-104,24,23,-38
309152273,0.52374267578125,-0.44073486328125,0.57440185546875,-0.4488525390625,-1843,-7886,-234,27,23,-34
309162257,0.52203369140625,-0.43963623046875,0.57269287109375,-0.4541015625,-2001,-8107,-366,31,23,-33
309172245,0.52056884765625,-0.4383544921875,0.57073974609375,-0.45947265625,-2198,-8365,-477,35,22,-34
309182235,0.519287109375,-0.4368896484375,0.56842041015625,-0.465087890625,-2368,-8594,-559,39,21,-35
309192217,0.518310546875,-0.435302734375,0.56591796875,-0.47076416015625,-2497,-8767,-617,42,19,-34
309202205,0.5177001953125,-0.433349609375,0.56317138671875,-0.4764404296875,-2607,-8880,-644,46,18,-32
309212192,0.517578125,-0.43109130859375,0.56036376953125,-0.48193359375,-2676,-8928,-648,48,16,-28
309222173,0.51800537109375,-0.428466796875,0.5576171875,-0.487060546875,-2705,-8938,-601,49,14,-22
309232158,0.51904296875,-0.42529296875,0.55499267578125,-0.49163818359375,-2695,-8875,-510,50,12,-14
309242138,0.52081298828125,-0.42156982421875,0.55267333984375,-0.49560546875,-2605,-8781,-358,50,9,-3
309252116,0.52325439453125,-0.41729736328125,0.55084228515625,-0.4986572265625,-2394,-8623,-214,48,8,10
309262094,0.52618408203125,-0.41259765625,0.5494384765625,-0.5009765625,-2265,-8416,-82,46,7,17
309272077,0.52923583984375,-0.40789794921875,0.54840087890625,-0.5028076171875,-2185,-8213,37,42,6,19
309282061,0.53204345703125,-0.403564453125,0.54736328125,-0.50439453125,-2114,-8054,165,39,5,17
309292043,0.5345458984375,-0.3997802734375,0.5462646484375,-0.5059814453125,-2051,-7884,279,34,4,13
309302026,0.536376953125,-0.39678955078125,0.545166015625,-0.507568359375,-1980,-7704,373,30,4,7
309312010,0.5377197265625,-0.39447021484375,0.5440673828125,-0.5091552734375,-1912,-7548,423,24,3,2
309321995,0.5384521484375,-0.39288330078125,0.54302978515625,-0.5107421875,-1819,-7381,456,20,3,-3
309331979,0.5386962890625,-0.391845703125,0.5421142578125,-0.51220703125,-1775,-7257,473,15,3,-6
309341955,0.53863525390625,-0.391357421875,0.54132080078125,-0.5135498046875,-1727,-7210,499,10,2,-9
309351939,0.5382080078125,-0.39129638671875,0.5406494140625,-0.51470947265625,-1698,-7224,509,6,2,-10
309361920,0.53759765625,-0.3914794921875,0.540283203125,-0.51556396484375,-1656,-7277,515,3,2,-10
309371902,0.5369873046875,-0.391845703125,0.54010009765625,-0.51617431640625,-1625,-7373,521,0,2,-8
309381887,0.536376953125,-0.3922119140625,0.5401611328125,-0.51641845703125,-1586,-7495,501,-2,1,-5
309391869,0.535888671875,-0.3924560546875,0.54046630859375,-0.51641845703125,-1550,-7638,462,-3,1,-2
309401860,0.5355224609375,-0.39263916015625,0.54095458984375,-0.51611328125,-1504,-7786,407,-4,1,1
309411834,0.5352783203125,-0.39263916015625,0.5416259765625,-0.51568603515625,-1461,-7900,353,-4,1,3
309421816,0.53515625,-0.392578125,0.54229736328125,-0.51513671875,-1429,-7979,308,-3,1,5
309431798,0.53509521484375,-0.3924560546875,0.54296875,-0.51458740234375,-1399,-8015,254,-2,1,5
309441784,0.53497314453125,-0.39227294921875,0.54351806640625,-0.51422119140625,-1391,-8043,224,-1,1,3
309451766,0.53485107421875,-0.3922119140625,0.54400634765625,-0.51397705078125,-1387,-8069,194,-1,1,2
309461764,0.5345458984375,-0.3922119140625,0.54425048828125,-0.51397705078125,-1389,-8115,197,0,1,-1
309471739,0.53424072265625,-0.39227294921875,0.5443115234375,-0.51422119140625,-1372,-8145,196,2,1,-3
309481715,0.53387451171875,-0.3924560546875,0.544189453125,-0.51458740234375,-1355,-8163,188,3,1,-4
309491696,0.53350830078125,-0.392578125,0.54400634765625,-0.51507568359375,-1341,-8161,169,4,1,-5
309501676,0.533203125,-0.39263916015625,0.54376220703125,-0.515625,-1330,-8140,171,4,1,-4
309511659,0.532958984375,-0.392578125,0.54345703125,-0.5162353515625,-1315,-8128,171,6,1,-4
309521642,0.5328369140625,-0.3924560546875,0.54315185546875,-0.51678466796875,-1293,-8121,181,6,1,-3
309531626,0.53277587890625,-0.39215087890625,0.5428466796875,-0.517333984375,-1290,-8130,192,7,1,-2
309541609,0.5328369140625,-0.391845703125,0.54248046875,-0.51788330078125,-1270,-8135,205,7,1,-1
309551599,0.53302001953125,-0.39141845703125,0.542236328125,-0.51837158203125,-1280,-8134,212,8,1,0
309561579,0.533203125,-0.390869140625,0.54205322265625,-0.51873779296875,-1282,-8096,226,8,1,1
309571561,0.5335693359375,-0.39019775390625,0.5418701171875,-0.51904296875,-1277,-8018,246,7,0,3
309581544,0.53399658203125,-0.38958740234375,0.541748046875,-0.5191650390625,-1278,-7925,266,7,0,4
309591527,0.5345458984375,-0.38885498046875,0.541748046875,-0.51922607421875,-1283,-7833,306,6,0,5
309601510,0.5350341796875,-0.38818359375,0.54180908203125,-0.51910400390625,-1281,-7756,349,5,0,6
309611492,0.53546142578125,-0.38763427734375,0.54193115234375,-0.5189208984375,-1289,-7699,399,3,0,5
309621480,0.5357666015625,-0.38726806640625,0.54205322265625,-0.51873779296875,-1281,-7665,437,2,-1,4
309631456,0.53594970703125,-0.3870849609375,0.542236328125,-0.5185546875,-1290,-7642,478,0,-1,2
