subject,Two-hands and jerked
arm,neither
label,0
hz,100.16987140692758
time,5.750232

timestamp_us,q0,q1,q2,q3,ax,ay,az,gx,gy,gz
203452639,0.6993408203125,-0.30078125,-0.5374755859375,-0.36279296875,7939,162,1973,12,-4,1
203462621,0.69952392578125,-0.29974365234375,-0.53839111328125,-0.3619384765625,7887,262,1974,11,-5,1
203472605,0.69964599609375,-0.2987060546875,-0.53936767578125,-0.36114501953125,7837,363,1990,11,-5,0
203482586,0.69964599609375,-0.29779052734375,-0.540283203125,-0.36041259765625,7803,453,1988,10,-5,1
203492568,0.69970703125,-0.29705810546875,-0.5411376953125,-0.35968017578125,7786,536,1986,8,-5,3
203502552,0.69976806640625,-0.29656982421875,-0.5418701171875,-0.35882568359375,7779,619,1987,6,-5,5
203512542,0.6998291015625,-0.29644775390625,-0.54241943359375,-0.35797119140625,7776,680,1989,5,-6,7
203522520,0.69989013671875,-0.29656982421875,-0.5428466796875,-0.3570556640625,7769,731,2004,3,-6,8
203532501,0.69989013671875,-0.29681396484375,-0.543212890625,-0.3563232421875,7759,768,2026,1,-6,8
203542486,0.69976806640625,-0.2972412109375,-0.54351806640625,-0.3558349609375,7732,771,2044,-1,-6,7
203552466,0.6995849609375,-0.2977294921875,-0.5438232421875,-0.35540771484375,7713,732,2040,-2,-6,6
203562449,0.69921875,-0.29833984375,-0.5440673828125,-0.35516357421875,7715,681,2024,-4,-7,5
203572438,0.69873046875,-0.299072265625,-0.54437255859375,-0.35491943359375,7735,600,1994,-5,-8,4
203582422,0.69818115234375,-0.29986572265625,-0.54473876953125,-0.35479736328125,7776,521,1960,-5,-8,4
203592405,0.697509765625,-0.3006591796875,-0.54522705078125,-0.35467529296875,7822,446,1925,-6,-9,2
203602381,0.69677734375,-0.301513671875,-0.5457763671875,-0.3546142578125,7861,371,1872,-5,-10,2
203612363,0.69598388671875,-0.30230712890625,-0.54644775390625,-0.3544921875,7887,309,1818,-5,-10,1
203622350,0.6951904296875,-0.30303955078125,-0.547119140625,-0.3543701171875,7927,246,1757,-4,-10,1
203632330,0.69439697265625,-0.30377197265625,-0.5478515625,-0.35406494140625,7967,162,1697,-3,-11,2
203642312,0.69378662109375,-0.3045654296875,-0.548583984375,-0.353515625,8017,96,1659,-2,-10,3
203652302,0.69317626953125,-0.30523681640625,-0.54937744140625,-0.3529052734375,8058,47,1615,0,-10,4
203662282,0.69268798828125,-0.30584716796875,-0.5501708984375,-0.35211181640625,8094,19,1581,1,-10,4
203672264,0.6922607421875,-0.3062744140625,-0.55096435546875,-0.35125732421875,8120,29,1528,2,-9,4
203682245,0.69189453125,-0.30657958984375,-0.5518798828125,-0.35040283203125,8097,72,1503,3,-10,4
203692237,0.69146728515625,-0.30670166015625,-0.5528564453125,-0.34954833984375,8064,97,1467,4,-9,3
203702219,0.6910400390625,-0.3067626953125,-0.5538330078125,-0.34869384765625,8042,89,1415,5,-9,2
203712205,0.69061279296875,-0.3067626953125,-0.554931640625,-0.34783935546875,8055,71,1333,5,-9,2
203722192,0.690185546875,-0.30682373046875,-0.5560302734375,-0.34698486328125,8062,44,1270,5,-9,2
203732174,0.68975830078125,-0.306884765625,-0.55712890625,-0.345947265625,8061,21,1220,6,-9,3
203742158,0.6893310546875,-0.30682373046875,-0.55828857421875,-0.344970703125,8043,-2,1168,6,-10,1
203752129,0.6888427734375,-0.306640625,-0.55950927734375,-0.3441162109375,7999,-29,1135,7,-9,0
203762112,0.68829345703125,-0.30633544921875,-0.560791015625,-0.3433837890625,7951,-77,1113,7,-10,-3
203772093,0.6876220703125,-0.30584716796875,-0.56219482421875,-0.34283447265625,7900,-133,1053,7,-10,-6
203782075,0.68682861328125,-0.30523681640625,-0.5638427734375,-0.3424072265625,7794,-189,1024,8,-11,-8
203792060,0.68603515625,-0.30474853515625,-0.56536865234375,-0.34185791015625,7708,-303,1016,8,-12,-6
203802044,0.68536376953125,-0.304443359375,-0.56695556640625,-0.3409423828125,7674,-462,1011,9,-13,-5
203812026,0.684814453125,-0.30419921875,-0.5684814453125,-0.33966064453125,7670,-633,1052,11,-13,-2
203822016,0.68450927734375,-0.303955078125,-0.56988525390625,-0.338134765625,7660,-746,1147,12,-13,0
203831995,0.684326171875,-0.30377197265625,-0.57122802734375,-0.33636474609375,7652,-815,1271,13,-14,3
203841982,0.68438720703125,-0.30364990234375,-0.572509765625,-0.334228515625,7677,-883,1377,15,-14,6
203851961,0.6846923828125,-0.3037109375,-0.57366943359375,-0.33154296875,7743,-989,1450,17,-14,10
203861943,0.68524169921875,-0.30389404296875,-0.57476806640625,-0.32830810546875,7860,-1067,1498,19,-14,15
203871925,0.68603515625,-0.3040771484375,-0.5758056640625,-0.3245849609375,8020,-1160,1533,22,-13,17
203881910,0.68695068359375,-0.3040771484375,-0.576904296875,-0.32061767578125,8184,-1237,1539,25,-13,17
203891894,0.6878662109375,-0.3035888671875,-0.5782470703125,-0.316650390625,8336,-1306,1518,28,-13,13
203901877,0.68853759765625,-0.3023681640625,-0.580078125,-0.31317138671875,8481,-1320,1436,31,-13,4
203911863,0.688720703125,-0.30023193359375,-0.5823974609375,-0.31036376953125,8599,-1239,1301,32,-13,-6
203921844,0.68853759765625,-0.29718017578125,-0.58526611328125,-0.308349609375,8665,-1082,1116,33,-12,-15
203931827,0.68804931640625,-0.29364013671875,-0.58831787109375,-0.3070068359375,8700,-901,943,33,-12,-20
203941811,0.6875,-0.28985595703125,-0.59136962890625,-0.30596923828125,8694,-706,774,32,-10,-22
203951795,0.6868896484375,-0.28619384765625,-0.59429931640625,-0.30511474609375,8672,-505,621,30,-9,-20
203961784,0.68634033203125,-0.2828369140625,-0.59698486328125,-0.30419921875,8662,-314,499,27,-8,-17
203971765,0.68585205078125,-0.27984619140625,-0.59942626953125,-0.3033447265625,8627,-99,387,24,-7,-15
203981749,0.6851806640625,-0.27716064453125,-0.6016845703125,-0.3028564453125,8546,155,304,20,-6,-15
203991731,0.68438720703125,-0.27459716796875,-0.60369873046875,-0.302978515625,8427,396,258,14,-6,-17
204001707,0.68316650390625,-0.272216796875,-0.60565185546875,-0.30389404296875,8262,617,228,9,-6,-21
204011692,0.681640625,-0.27001953125,-0.60748291015625,-0.30560302734375,8116,759,195,2,-6,-25
204021673,0.67987060546875,-0.26837158203125,-0.609130859375,-0.307861328125,7998,795,172,-4,-7,-25
204031653,0.677978515625,-0.267578125,-0.6104736328125,-0.3099365234375,7904,744,147,-9,-8,-19
204041638,0.67626953125,-0.26812744140625,-0.61138916015625,-0.3114013671875,7859,626,124,-13,-9,-8
204051628,0.6749267578125,-0.27008056640625,-0.61175537109375,-0.3118896484375,7833,484,120,-17,-11,6
204061605,0.67401123046875,-0.27337646484375,-0.61163330078125,-0.3114013671875,7804,349,152,-19,-12,19
204071588,0.67327880859375,-0.277587890625,-0.61114501953125,-0.31024169921875,7748,229,153,-21,-13,27
204081571,0.6724853515625,-0.2821044921875,-0.610595703125,-0.30889892578125,7662,125,149,-22,-14,28
204091553,0.67138671875,-0.286376953125,-0.6102294921875,-0.3079833984375,7566,47,126,-23,-15,22
204101542,0.6697998046875,-0.2901611328125,-0.61029052734375,-0.30780029296875,7491,-54,86,-24,-17,12
204111520,0.6678466796875,-0.29345703125,-0.6107177734375,-0.30816650390625,7488,-199,15,-24,-18,5
204121504,0.66571044921875,-0.296630859375,-0.611328125,-0.30853271484375,7510,-333,-39,-23,-19,4
204131485,0.66363525390625,-0.29986572265625,-0.6119384765625,-0.30859375,7519,-413,-60,-21,-20,8
204141468,0.6617431640625,-0.30328369140625,-0.61248779296875,-0.30816650390625,7518,-454,-73,-20,-20,12
204151452,0.65997314453125,-0.3067626953125,-0.613037109375,-0.3074951171875,7495,-448,-89,-19,-21,14
204161433,0.65814208984375,-0.3101806640625,-0.61370849609375,-0.306640625,7477,-417,-103,-17,-22,14
204173995,0.65625,-0.3134765625,-0.61444091796875,-0.3057861328125,7492,-357,-106,-16,-22,14
204181409,0.65447998046875,-0.316650390625,-0.615234375,-0.3048095703125,7503,-266,-79,-16,-23,15
204191392,0.65283203125,-0.31988525390625,-0.61590576171875,-0.3035888671875,7507,-125,-35,-14,-22,19
204201369,0.65142822265625,-0.32305908203125,-0.616455078125,-0.3021240234375,7491,45,33,-13,-22,23
204211351,0.65020751953125,-0.32623291015625,-0.61688232421875,-0.300537109375,7477,234,131,-11,-21,23
204221332,0.64892578125,-0.32904052734375,-0.61737060546875,-0.2991943359375,7469,463,216,-11,-21,21
204231317,0.64752197265625,-0.331298828125,-0.61810302734375,-0.29827880859375,7446,706,294,-10,-21,15
204241300,0.6458740234375,-0.3330078125,-0.619140625,-0.2978515625,7429,959,353,-9,-21,10
204251284,0.64410400390625,-0.33428955078125,-0.62030029296875,-0.2977294921875,7408,1224,442,-9,-22,8
204261267,0.64239501953125,-0.33551025390625,-0.6214599609375,-0.29766845703125,7400,1468,530,-9,-21,9
204271244,0.6407470703125,-0.3367919921875,-0.62249755859375,-0.297607421875,7418,1706,632,-9,-21,10
204281237,0.63909912109375,-0.33807373046875,-0.62347412109375,-0.29766845703125,7419,1952,716,-10,-21,10
204291220,0.63714599609375,-0.339111328125,-0.62457275390625,-0.29827880859375,7411,2241,793,-12,-21,5
204301207,0.634765625,-0.33966064453125,-0.62603759765625,-0.2996826171875,7454,2534,793,-15,-22,-2
204311190,0.63177490234375,-0.3399658203125,-0.62786865234375,-0.30181884765625,7692,2804,693,-17,-24,-9
204321173,0.6282958984375,-0.34027099609375,-0.6300048828125,-0.3043212890625,8030,3045,532,-20,-25,-10
204331155,0.62445068359375,-0.3409423828125,-0.63214111328125,-0.30694580078125,8399,3222,370,-23,-27,-10
204341127,0.62042236328125,-0.34197998046875,-0.63427734375,-0.3096923828125,8736,3322,245,-26,-28,-10
204351110,0.61602783203125,-0.3431396484375,-0.6363525390625,-0.31280517578125,9012,3367,166,-30,-29,-13
204361094,0.611328125,-0.3441162109375,-0.6385498046875,-0.31646728515625,9222,3377,147,-32,-31,-20
204371078,0.60614013671875,-0.3447265625,-0.6409912109375,-0.32086181640625,9341,3387,201,-35,-33,-28
204381065,0.6004638671875,-0.3448486328125,-0.6436767578125,-0.3260498046875,9491,3394,355,-37,-34,-36
204391051,0.5943603515625,-0.34478759765625,-0.6463623046875,-0.331787109375,9689,3391,550,-40,-36,-41
204401031,0.58807373046875,-0.3448486328125,-0.64898681640625,-0.33782958984375,9898,3322,799,-43,-38,-42
204411014,0.581787109375,-0.34539794921875,-0.65118408203125,-0.3438720703125,10103,3121,1062,-47,-39,-40
204420998,0.5755615234375,-0.3466796875,-0.65289306640625,-0.3497314453125,10267,2767,1313,-51,-40,-36
204430986,0.56976318359375,-0.348876953125,-0.65386962890625,-0.355224609375,10396,2212,1554,-54,-39,-30
204440964,0.5645751953125,-0.35205078125,-0.6539306640625,-0.3602294921875,10553,1432,1808,-56,-36,-23
204450946,0.5601806640625,-0.35601806640625,-0.653076171875,-0.36468505859375,10691,444,2122,-58,-33,-19
204460929,0.556396484375,-0.36016845703125,-0.65155029296875,-0.369140625,10796,-711,2513,-59,-30,-22
204470912,0.55303955078125,-0.36395263671875,-0.649658203125,-0.373779296875,10956,-1946,2931,-59,-26,-30
204480895,0.5501708984375,-0.3671875,-0.64739990234375,-0.378662109375,11199,-3231,3342,-58,-21,-36
204490877,0.54803466796875,-0.37030029296875,-0.64459228515625,-0.383544921875,11514,-4627,3646,-57,-15,-38
204500862,0.54681396484375,-0.37335205078125,-0.64105224609375,-0.38824462890625,11918,-6086,3757,-56,-6,-39
204510848,0.5465087890625,-0.37640380859375,-0.63677978515625,-0.39276123046875,12451,-7613,3581,-55,4,-40
204520828,0.54742431640625,-0.37969970703125,-0.63165283203125,-0.396484375,12963,-9093,3273,-51,16,-32
204530811,0.550048828125,-0.3831787109375,-0.62542724609375,-0.39935302734375,13300,-10331,2915,-46,28,-22
204540795,0.553955078125,-0.38641357421875,-0.6185302734375,-0.4017333984375,13386,-11270,2504,-39,40,-18
204550774,0.55853271484375,-0.38861083984375,-0.6114501953125,-0.4039306640625,13321,-11850,1882,-31,50,-19
204560767,0.563720703125,-0.39013671875,-0.60455322265625,-0.40570068359375,13255,-12056,944,-24,61,-13
204570753,0.57000732421875,-0.39202880859375,-0.59716796875,-0.40606689453125,13229,-12085,-223,-15,71,7
204580732,0.5777587890625,-0.39453125,-0.58905029296875,-0.404541015625,13190,-11963,-1531,-6,80,27
204590712,0.58636474609375,-0.39697265625,-0.58074951171875,-0.40167236328125,13070,-11650,-2914,4,88,37
204600691,0.5950927734375,-0.39849853515625,-0.57293701171875,-0.3985595703125,12829,-11074,-4264,13,94,35
204610677,0.6033935546875,-0.39862060546875,-0.56610107421875,-0.395751953125,12462,-10293,-5516,20,98,28
204620660,0.611328125,-0.39788818359375,-0.5599365234375,-0.39300537109375,11877,-9392,-6570,26,99,28
204630644,0.6195068359375,-0.3968505859375,-0.55389404296875,-0.38983154296875,11030,-8290,-7238,31,99,37
204640627,0.62799072265625,-0.3956298828125,-0.54779052734375,-0.3861083984375,9930,-6985,-7484,35,97,48
204650610,0.63653564453125,-0.39404296875,-0.5418701171875,-0.38214111328125,8682,-5509,-7437,38,91,51
204660593,0.644287109375,-0.39141845703125,-0.536865234375,-0.37884521484375,7409,-3893,-7204,41,84,43
204670576,0.65069580078125,-0.3873291015625,-0.5335693359375,-0.376708984375,6257,-2191,-6916,43,74,26
204680559,0.65545654296875,-0.38189697265625,-0.5323486328125,-0.3758544921875,5302,-419,-6630,45,63,10
204690542,0.658935546875,-0.37579345703125,-0.53271484375,-0.37530517578125,4544,1439,-6293,46,50,8
204700525,0.6617431640625,-0.37030029296875,-0.533935546875,-0.37408447265625,3991,3220,-5887,45,36,20
204710508,0.66424560546875,-0.36614990234375,-0.5355224609375,-0.37139892578125,3676,4738,-5543,41,22,37
204720491,0.666259765625,-0.36395263671875,-0.53741455078125,-0.3673095703125,3622,5918,-5274,36,9,52
204730473,0.66754150390625,-0.3634033203125,-0.53948974609375,-0.36236572265625,3716,6754,-4953,28,-3,61
204740456,0.6683349609375,-0.36431884765625,-0.54144287109375,-0.3570556640625,3845,7226,-4496,20,-12,66
204750435,0.66864013671875,-0.36639404296875,-0.54315185546875,-0.3516845703125,3964,7420,-3872,12,-19,68
204760426,0.6685791015625,-0.36895751953125,-0.54449462890625,-0.34698486328125,4040,7433,-3074,5,-23,62
204770411,0.66796875,-0.3712158203125,-0.5458984375,-0.343505859375,4108,7332,-2131,-1,-25,49
204780391,0.6666259765625,-0.37261962890625,-0.547607421875,-0.34197998046875,4194,7117,-1106,-5,-27,28
204790367,0.66448974609375,-0.37274169921875,-0.54974365234375,-0.342529296875,4313,6755,-10,-9,-28,5
204800350,0.66162109375,-0.37188720703125,-0.55224609375,-0.34490966796875,4472,6234,1040,-13,-29,-15
204810329,0.65814208984375,-0.37042236328125,-0.55511474609375,-0.34869384765625,4678,5551,1993,-17,-31,-32
204820314,0.65411376953125,-0.36871337890625,-0.55804443359375,-0.35321044921875,4962,4748,2742,-19,-32,-40
204830296,0.6502685546875,-0.36785888671875,-0.560546875,-0.3572998046875,5347,3779,3325,-22,-34,-33
204840278,0.64703369140625,-0.36846923828125,-0.5621337890625,-0.36004638671875,5796,2672,3738,-23,-34,-19
204850262,0.64459228515625,-0.37054443359375,-0.562744140625,-0.361328125,6304,1502,4002,-24,-33,-6
204860246,0.64288330078125,-0.3736572265625,-0.5626220703125,-0.36138916015625,6856,344,4139,-23,-32,4
204870234,0.64166259765625,-0.3773193359375,-0.56195068359375,-0.3607177734375,7435,-757,4196,-22,-30,8
204880218,0.64068603515625,-0.38104248046875,-0.5611572265625,-0.35980224609375,8005,-1790,4147,-20,-27,7
204890205,0.6400146484375,-0.3843994140625,-0.560302734375,-0.3587646484375,8529,-2751,4003,-17,-23,4
204900193,0.63958740234375,-0.3870849609375,-0.5596923828125,-0.35760498046875,8980,-3574,3753,-10,-20,-1
204910173,0.639404296875,-0.38885498046875,-0.5595703125,-0.3563232421875,9357,-4193,3425,-2,-18,-6
204920160,0.6392822265625,-0.38946533203125,-0.56011962890625,-0.3548583984375,9635,-4508,3026,7,-16,-12
204930128,0.63934326171875,-0.38897705078125,-0.5614013671875,-0.35321044921875,9856,-4523,2643,16,-14,-13
204940110,0.6396484375,-0.3876953125,-0.56317138671875,-0.35125732421875,9974,-4212,2309,24,-14,-12
204950092,0.64013671875,-0.3857421875,-0.5653076171875,-0.34918212890625,9987,-3631,2065,28,-13,-10
204960076,0.64056396484375,-0.3831787109375,-0.56768798828125,-0.34722900390625,9953,-2896,1873,30,-13,-10
204970059,0.64093017578125,-0.3802490234375,-0.57025146484375,-0.34564208984375,9878,-2114,1668,30,-12,-11
204980043,0.6409912109375,-0.37738037109375,-0.57293701171875,-0.34417724609375,9792,-1367,1450,29,-12,-9
204990025,0.64105224609375,-0.3746337890625,-0.57550048828125,-0.3428955078125,9684,-697,1235,26,-11,-7
205000007,0.64093017578125,-0.3721923828125,-0.57794189453125,-0.3416748046875,9551,-106,1024,23,-10,-5
205009994,0.64068603515625,-0.37005615234375,-0.58013916015625,-0.34063720703125,9399,408,834,20,-10,-3
205019980,0.6402587890625,-0.36822509765625,-0.58221435546875,-0.33984375,9250,851,648,16,-10,-2
205029957,0.6396484375,-0.36676025390625,-0.5841064453125,-0.33935546875,9096,1236,482,12,-9,-1
205039945,0.63897705078125,-0.36553955078125,-0.58575439453125,-0.339111328125,8933,1532,344,8,-8,0
205049926,0.6380615234375,-0.36456298828125,-0.5872802734375,-0.3392333984375,8786,1749,208,4,-8,-2
205059909,0.636962890625,-0.36376953125,-0.58868408203125,-0.33984375,8650,1859,104,1,-7,-5
205069891,0.6356201171875,-0.36285400390625,-0.59002685546875,-0.34088134765625,8530,1887,-17,-2,-6,-9
205079877,0.63409423828125,-0.36187744140625,-0.5914306640625,-0.34228515625,8433,1842,-137,-4,-5,-13
205089855,0.63238525390625,-0.3609619140625,-0.5928955078125,-0.343994140625,8338,1778,-250,-6,-5,-15
205099838,0.63055419921875,-0.36004638671875,-0.59429931640625,-0.3458251953125,8231,1718,-362,-7,-5,-16
205109822,0.628662109375,-0.359375,-0.59564208984375,-0.34771728515625,8118,1655,-444,-8,-6,-16
205119805,0.62677001953125,-0.35894775390625,-0.596923828125,-0.34942626953125,8012,1545,-529,-9,-6,-14
205129789,0.62481689453125,-0.35882568359375,-0.59808349609375,-0.35089111328125,7920,1401,-622,-10,-8,-12
205139770,0.6229248046875,-0.35894775390625,-0.59930419921875,-0.3521728515625,7846,1225,-690,-10,-9,-11
205149760,0.62103271484375,-0.3592529296875,-0.6004638671875,-0.353271484375,7779,1036,-717,-9,-10,-10
205159744,0.619140625,-0.35968017578125,-0.60162353515625,-0.3541259765625,7729,843,-723,-9,-11,-9
205169721,0.61737060546875,-0.360107421875,-0.602783203125,-0.354736328125,7723,682,-725,-8,-12,-8
205179704,0.61572265625,-0.360595703125,-0.60394287109375,-0.355224609375,7722,570,-717,-6,-12,-7
205189686,0.6141357421875,-0.36090087890625,-0.60516357421875,-0.3555908203125,7705,505,-686,-5,-11,-8
205199670,0.61248779296875,-0.36090087890625,-0.60650634765625,-0.35614013671875,7692,457,-638,-4,-12,-11
205209651,0.61077880859375,-0.36053466796875,-0.6080322265625,-0.35675048828125,7671,409,-594,-2,-12,-14
205219639,0.60894775390625,-0.35986328125,-0.60986328125,-0.357421875,7618,361,-561,0,-13,-17
205229620,0.6070556640625,-0.3590087890625,-0.61187744140625,-0.35809326171875,7573,300,-533,1,-14,-20
205239604,0.60516357421875,-0.3580322265625,-0.614013671875,-0.358642578125,7544,258,-520,3,-15,-19
205249586,0.60333251953125,-0.35699462890625,-0.6162109375,-0.35894775390625,7515,265,-513,4,-15,-18
205259571,0.6014404296875,-0.35589599609375,-0.61859130859375,-0.3592529296875,7485,319,-486,5,-17,-19
205269555,0.5994873046875,-0.3546142578125,-0.62103271484375,-0.3594970703125,7464,430,-429,6,-17,-20
205279542,0.59747314453125,-0.3531494140625,-0.62353515625,-0.35992431640625,7457,570,-343,6,-18,-21
205289520,0.59539794921875,-0.35174560546875,-0.6260986328125,-0.3603515625,7450,680,-222,6,-19,-20
205299502,0.5933837890625,-0.35052490234375,-0.62847900390625,-0.36065673828125,7474,740,-136,5,-20,-18
205309486,0.5914306640625,-0.34967041015625,-0.63079833984375,-0.36065673828125,7528,753,-110,5,-21,-14
205319469,0.58953857421875,-0.34912109375,-0.63299560546875,-0.36041259765625,7605,749,-116,5,-21,-12
205329453,0.587646484375,-0.34869384765625,-0.63519287109375,-0.36004638671875,7713,750,-169,5,-22,-11
205339431,0.58563232421875,-0.3482666015625,-0.637451171875,-0.35980224609375,7808,773,-234,4,-21,-13
205349423,0.58355712890625,-0.34771728515625,-0.6396484375,-0.35968017578125,7898,791,-297,3,-21,-14
205359409,0.58154296875,-0.34722900390625,-0.641845703125,-0.359619140625,7985,781,-376,3,-20,-13
205369392,0.57965087890625,-0.3468017578125,-0.64385986328125,-0.3594970703125,8059,718,-445,3,-19,-12
205379369,0.57794189453125,-0.34661865234375,-0.64569091796875,-0.359130859375,8127,612,-481,3,-18,-11
205389352,0.576416015625,-0.346435546875,-0.6473388671875,-0.3587646484375,8184,522,-501,3,-17,-9
205399337,0.57501220703125,-0.3463134765625,-0.64886474609375,-0.35833740234375,8265,432,-514,3,-16,-9
205409318,0.57366943359375,-0.34619140625,-0.65032958984375,-0.35809326171875,8360,374,-549,2,-15,-10
205419301,0.572265625,-0.345947265625,-0.65167236328125,-0.3580322265625,8433,345,-585,0,-13,-11
205429285,0.5709228515625,-0.34576416015625,-0.65289306640625,-0.35821533203125,8482,289,-596,-1,-13,-12
205439266,0.56964111328125,-0.34564208984375,-0.65386962890625,-0.3585205078125,8497,229,-560,-3,-11,-11
205449246,0.56854248046875,-0.3458251953125,-0.654541015625,-0.35888671875,8468,111,-503,-5,-10,-9
205459239,0.56756591796875,-0.34619140625,-0.65496826171875,-0.35919189453125,8447,-67,-418,-6,-10,-8
205469220,0.566650390625,-0.3466796875,-0.65533447265625,-0.35955810546875,8437,-296,-289,-7,-10,-10
205479205,0.56561279296875,-0.34710693359375,-0.6556396484375,-0.36029052734375,8455,-542,-166,-9,-11,-13
205489194,0.56439208984375,-0.34759521484375,-0.6558837890625,-0.36126708984375,8505,-797,-27,-12,-11,-15
205499177,0.56317138671875,-0.34844970703125,-0.6558837890625,-0.3623046875,8553,-1061,113,-15,-12,-12
205509158,0.5621337890625,-0.3502197265625,-0.6553955078125,-0.3631591796875,8608,-1370,277,-19,-13,-5
205519138,0.5615234375,-0.35302734375,-0.6541748046875,-0.363525390625,8664,-1770,488,-22,-12,4
205529113,0.56146240234375,-0.35687255859375,-0.6522216796875,-0.36346435546875,8779,-2284,764,-26,-12,12
205539095,0.56182861328125,-0.361328125,-0.64959716796875,-0.3631591796875,8932,-2854,1074,-28,-11,16
205549078,0.5625,-0.36614990234375,-0.646484375,-0.36285400390625,9129,-3427,1333,-30,-9,17
205559061,0.5634765625,-0.37103271484375,-0.64300537109375,-0.36248779296875,9341,-3907,1506,-30,-7,19
205569044,0.5648193359375,-0.37615966796875,-0.63922119140625,-0.36187744140625,9493,-4224,1643,-29,-4,25
205579026,0.56671142578125,-0.38140869140625,-0.635009765625,-0.36083984375,9575,-4358,1790,-27,-1,32
205589012,0.569091796875,-0.38641357421875,-0.63043212890625,-0.359619140625,9586,-4340,2020,-24,2,35
205598996,0.57183837890625,-0.3909912109375,-0.625732421875,-0.35858154296875,9528,-4199,2328,-22,5,34
205608981,0.57464599609375,-0.39459228515625,-0.6212158203125,-0.35809326171875,9433,-3894,2619,-20,7,27
205618962,0.57696533203125,-0.39691162109375,-0.61737060546875,-0.35845947265625,9325,-3357,2857,-18,8,17
205628942,0.57879638671875,-0.3980712890625,-0.61419677734375,-0.35968017578125,9185,-2596,3054,-15,8,10
205638924,0.58038330078125,-0.39849853515625,-0.6114501953125,-0.3612060546875,9092,-1682,3238,-13,7,10
205648908,0.5821533203125,-0.3990478515625,-0.6087646484375,-0.3624267578125,9010,-692,3350,-11,6,20
205658889,0.584228515625,-0.40045166015625,-0.605712890625,-0.36260986328125,8942,293,3374,-10,5,36
205668877,0.58648681640625,-0.4027099609375,-0.60247802734375,-0.36187744140625,8913,1225,3267,-10,2,48
205678859,0.58837890625,-0.4052734375,-0.59954833984375,-0.36077880859375,8884,2148,3013,-9,-1,51
205688836,0.58953857421875,-0.40740966796875,-0.597412109375,-0.35992431640625,8826,3057,2695,-8,-4,44
205698821,0.58990478515625,-0.40869140625,-0.59637451171875,-0.359619140625,8840,4023,2344,-6,-7,35
205708804,0.58978271484375,-0.409423828125,-0.59600830078125,-0.35968017578125,9021,4997,1982,-4,-8,34
205718787,0.5894775390625,-0.41015625,-0.59576416015625,-0.35968017578125,9384,5890,1564,-5,-7,38
205728766,0.5892333984375,-0.41131591796875,-0.59521484375,-0.3597412109375,9894,6645,1059,-8,-4,43
205738767,0.58880615234375,-0.412841796875,-0.5943603515625,-0.360107421875,10466,7177,480,-13,0,44
205748746,0.58819580078125,-0.4144287109375,-0.59332275390625,-0.361083984375,11023,7454,-196,-17,5,38
205758722,0.587158203125,-0.4156494140625,-0.5924072265625,-0.36279296875,11416,7516,-924,-20,10,28
205768704,0.585693359375,-0.4161376953125,-0.59185791015625,-0.36541748046875,11593,7444,-1619,-20,14,15
205778687,0.58404541015625,-0.41571044921875,-0.59161376953125,-0.368896484375,11630,7258,-2237,-19,19,4
205788671,0.58245849609375,-0.41473388671875,-0.591552734375,-0.3726806640625,11667,7005,-2869,-17,24,-1
205798653,0.5810546875,-0.41351318359375,-0.591552734375,-0.376220703125,11672,6727,-3553,-15,27,-2
205808637,0.57958984375,-0.4122314453125,-0.5916748046875,-0.379638671875,11594,6462,-4263,-14,29,-5
205818617,0.5777587890625,-0.41058349609375,-0.59210205078125,-0.38348388671875,11375,6253,-4872,-15,31,-13
205828601,0.57562255859375,-0.40850830078125,-0.59271240234375,-0.3880615234375,11078,5985,-5350,-18,33,-20
205838584,0.5732421875,-0.406494140625,-0.5931396484375,-0.39288330078125,10779,5601,-5825,-21,34,-22
205848568,0.57098388671875,-0.40509033203125,-0.59320068359375,-0.39752197265625,10459,5046,-6294,-24,36,-21
205858552,0.56903076171875,-0.40435791015625,-0.5926513671875,-0.4019775390625,10073,4337,-6712,-27,39,-18
205868536,0.56719970703125,-0.40399169921875,-0.59173583984375,-0.4061279296875,9613,3574,-7099,-29,41,-18
205878518,0.5654296875,-0.40386962890625,-0.590576171875,-0.41046142578125,9101,2835,-7409,-31,43,-21
205888502,0.5634765625,-0.4036865234375,-0.58941650390625,-0.41497802734375,8560,2140,-7615,-33,43,-25
205898485,0.56134033203125,-0.40350341796875,-0.588134765625,-0.41973876953125,8032,1478,-7717,-37,42,-29
205908469,0.5592041015625,-0.4036865234375,-0.58660888671875,-0.42462158203125,7534,821,-7688,-39,42,-27
205918453,0.5572509765625,-0.404541015625,-0.58447265625,-0.4293212890625,7075,137,-7457,-43,40,-23
205928436,0.5555419921875,-0.40606689453125,-0.5816650390625,-0.433837890625,6583,-570,-7086,-47,38,-19
205938427,0.55364990234375,-0.407958984375,-0.57861328125,-0.4385986328125,6190,-1265,-6659,-52,35,-23
205948412,0.55096435546875,-0.40997314453125,-0.57568359375,-0.44384765625,5877,-1979,-6256,-56,30,-32
205958394,0.54742431640625,-0.41192626953125,-0.5731201171875,-0.44970703125,5631,-2708,-5839,-61,25,-42
205968371,0.54315185546875,-0.41400146484375,-0.57061767578125,-0.4560546875,5502,-3469,-5336,-65,21,-50
205978354,0.53863525390625,-0.4163818359375,-0.56787109375,-0.462646484375,5496,-4299,-4738,-70,18,-52
205988338,0.5343017578125,-0.41937255859375,-0.5643310546875,-0.46929931640625,5546,-5211,-4002,-74,16,-49
205998320,0.53057861328125,-0.4232177734375,-0.5596923828125,-0.47564697265625,5607,-6263,-3159,-79,15,-41
206008304,0.52783203125,-0.42803955078125,-0.55364990234375,-0.48138427734375,5627,-7450,-2307,-81,16,-30
206018286,0.5262451171875,-0.43402099609375,-0.54632568359375,-0.48602294921875,5658,-8649,-1579,-80,16,-17
206028270,0.52587890625,-0.44097900390625,-0.5380859375,-0.48944091796875,5726,-9642,-1095,-78,17,-1
206038257,0.52679443359375,-0.44854736328125,-0.52899169921875,-0.491455078125,5800,-10471,-696,-72,20,13
206048243,0.52874755859375,-0.4560546875,-0.51959228515625,-0.49249267578125,5898,-11205,-323,-64,22,20
206058227,0.53173828125,-0.46295166015625,-0.51025390625,-0.49261474609375,5935,-11841,43,-52,24,23
206068209,0.53570556640625,-0.46905517578125,-0.501220703125,-0.49176025390625,5907,-12276,395,-38,25,27
206078188,0.540771484375,-0.47406005859375,-0.4927978515625,-0.489990234375,5803,-12369,826,-23,25,30
206088180,0.5465087890625,-0.4776611328125,-0.4853515625,-0.48748779296875,5673,-11958,1313,-7,23,32
206098164,0.55267333984375,-0.47967529296875,-0.47930908203125,-0.4844970703125,5487,-11041,1850,8,20,32
206108138,0.55877685546875,-0.48004150390625,-0.47503662109375,-0.48138427734375,5236,-9636,2415,21,15,28
206118116,0.56439208984375,-0.47882080078125,-0.47271728515625,-0.47833251953125,4954,-7913,2976,33,7,23
206128098,0.56939697265625,-0.4764404296875,-0.472412109375,-0.47503662109375,4659,-6023,3485,43,-2,19
206138078,0.5736083984375,-0.4732666015625,-0.4739990234375,-0.4715576171875,4431,-3935,3962,50,-14,17
206148062,0.57696533203125,-0.46978759765625,-0.47723388671875,-0.4676513671875,4344,-1766,4371,54,-28,19
206158051,0.57952880859375,-0.4669189453125,-0.481689453125,-0.4627685546875,4445,311,4622,55,-42,28
206168028,0.58123779296875,-0.46514892578125,-0.48699951171875,-0.45684814453125,4704,2246,4752,53,-57,38
206178011,0.58203125,-0.46453857421875,-0.492919921875,-0.449951171875,5151,3948,4731,49,-70,45
206187995,0.58154296875,-0.46502685546875,-0.49969482421875,-0.442626953125,5743,5409,4602,43,-83,47
206197983,0.5794677734375,-0.46636962890625,-0.5072021484375,-0.43536376953125,6489,6586,4378,36,-94,43
206207959,0.57586669921875,-0.46832275390625,-0.5152587890625,-0.42852783203125,7328,7383,4061,29,-100,37
206217942,0.57110595703125,-0.4708251953125,-0.5234375,-0.42218017578125,8215,7750,3632,21,-103,30
206227926,0.5654296875,-0.473876953125,-0.5313720703125,-0.41644287109375,9078,7718,3026,13,-102,24
206237913,0.55926513671875,-0.4775390625,-0.53875732421875,-0.41107177734375,9832,7316,2322,5,-98,21
206247896,0.55303955078125,-0.4815673828125,-0.54522705078125,-0.40625,10469,6624,1592,-1,-91,18
206257877,0.54705810546875,-0.48590087890625,-0.55059814453125,-0.40191650390625,11008,5737,886,-6,-81,17
206267860,0.5416259765625,-0.49029541015625,-0.55487060546875,-0.39801025390625,11473,4705,191,-10,-70,16
206277841,0.536865234375,-0.494384765625,-0.55810546875,-0.3948974609375,11832,3664,-389,-13,-57,12
206287824,0.5328369140625,-0.49786376953125,-0.5604248046875,-0.39263916015625,12014,2670,-856,-13,-44,6
206297807,0.52947998046875,-0.50018310546875,-0.56231689453125,-0.3916015625,12016,1782,-1225,-13,-30,-3
206307786,0.52667236328125,-0.50128173828125,-0.56390380859375,-0.3917236328125,11872,984,-1491,-12,-18,-13
206317766,0.5244140625,-0.501220703125,-0.565185546875,-0.39288330078125,11641,254,-1705,-10,-6,-23
206327760,0.522705078125,-0.50018310546875,-0.5662841796875,-0.3948974609375,11345,-409,-1852,-9,3,-30
206337740,0.521484375,-0.49835205078125,-0.5672607421875,-0.3974609375,10996,-969,-1969,-6,11,-36
206347717,0.52069091796875,-0.49578857421875,-0.56817626953125,-0.400390625,10631,-1393,-2065,-4,17,-39
206357700,0.520263671875,-0.49298095703125,-0.56884765625,-0.4034423828125,10267,-1693,-2132,-2,21,-38
206367684,0.52044677734375,-0.490234375,-0.569091796875,-0.40625,9927,-1890,-2189,-1,25,-32
206377671,0.52117919921875,-0.48797607421875,-0.5687255859375,-0.408447265625,9633,-2004,-2221,0,26,-21
206387653,0.5225830078125,-0.4864501953125,-0.5677490234375,-0.409912109375,9373,-2053,-2233,1,26,-10
206397635,0.52459716796875,-0.4853515625,-0.5662841796875,-0.41064453125,9163,-2041,-2230,4,26,-1
206407621,0.52679443359375,-0.48455810546875,-0.564697265625,-0.41094970703125,9007,-1976,-2250,5,25,3
206417603,0.52899169921875,-0.4837646484375,-0.56317138671875,-0.41119384765625,8891,-1902,-2255,6,25,3
206427585,0.531005859375,-0.4827880859375,-0.56182861328125,-0.4114990234375,8792,-1813,-2231,6,24,0
206437569,0.53289794921875,-0.481689453125,-0.56072998046875,-0.411865234375,8649,-1711,-2135,6,22,-1
206447551,0.5345458984375,-0.48052978515625,-0.55975341796875,-0.41241455078125,8465,-1579,-1966,6,21,-2
206457534,0.53607177734375,-0.47943115234375,-0.55889892578125,-0.41290283203125,8279,-1479,-1701,5,18,-2
206467522,0.53765869140625,-0.47845458984375,-0.557861328125,-0.413330078125,8230,-1402,-1412,4,16,1
206477501,0.53948974609375,-0.4781494140625,-0.556396484375,-0.41326904296875,8341,-1336,-1182,3,14,11
206487486,0.5421142578125,-0.47900390625,-0.55401611328125,-0.412109375,8621,-1267,-977,3,14,30
206497469,0.5460205078125,-0.48126220703125,-0.5501708984375,-0.409423828125,8994,-1173,-761,3,15,55
206507451,0.55133056640625,-0.4852294921875,-0.5445556640625,-0.4051513671875,9382,-1048,-580,3,17,84
206517434,0.5579833984375,-0.490478515625,-0.5372314453125,-0.3994140625,9667,-900,-401,3,20,107
206527426,0.5654296875,-0.496337890625,-0.5286865234375,-0.39300537109375,9822,-784,-233,3,25,119
206537408,0.57305908203125,-0.501953125,-0.5196533203125,-0.3868408203125,9857,-727,-94,2,30,117
206547392,0.58050537109375,-0.506591796875,-0.5107421875,-0.381591796875,9825,-756,0,2,35,105
206557370,0.58746337890625,-0.51025390625,-0.50213623046875,-0.37744140625,9849,-809,36,1,40,94
206567352,0.594482421875,-0.513427734375,-0.4932861328125,-0.37371826171875,9920,-844,60,1,45,96
206577337,0.6021728515625,-0.51702880859375,-0.4832763671875,-0.3695068359375,9979,-870,113,1,51,112
206587321,0.61102294921875,-0.52166748046875,-0.4713134765625,-0.36383056640625,9955,-934,212,0,56,137
206597305,0.62091064453125,-0.52734375,-0.45733642578125,-0.35675048828125,9831,-1009,317,-2,60,158
206607285,0.63128662109375,-0.533447265625,-0.44183349609375,-0.34881591796875,9595,-1089,402,-4,65,170
206617268,0.64154052734375,-0.53948974609375,-0.4256591796875,-0.3409423828125,9334,-1214,462,-6,69,170
206627256,0.65130615234375,-0.5452880859375,-0.40899658203125,-0.33355712890625,8929,-1411,470,-10,73,166
206637239,0.66070556640625,-0.5509033203125,-0.39190673828125,-0.326171875,8399,-1635,390,-11,75,165
206647224,0.6697998046875,-0.5565185546875,-0.3746337890625,-0.31842041015625,7874,-1867,271,-10,75,167
206657207,0.67864990234375,-0.56207275390625,-0.35699462890625,-0.31005859375,7291,-2009,162,-10,73,172
206667187,0.6871337890625,-0.5677490234375,-0.33905029296875,-0.3009033203125,6700,-2054,107,-10,70,176
206677179,0.6951904296875,-0.573486328125,-0.32098388671875,-0.291259765625,6092,-2088,127,-13,66,179
206687163,0.70257568359375,-0.579345703125,-0.30279541015625,-0.2811279296875,5455,-2073,245,-17,61,180
206697140,0.709228515625,-0.58544921875,-0.28466796875,-0.27056884765625,4820,-2049,421,-21,55,180
206707117,0.71502685546875,-0.591796875,-0.2667236328125,-0.2596435546875,4237,-2009,567,-27,48,180
206717099,0.71966552734375,-0.5986328125,-0.24908447265625,-0.24835205078125,3680,-1966,646,-34,41,178
206727081,0.72308349609375,-0.60614013671875,-0.23175048828125,-0.23681640625,3172,-2003,700,-43,34,175
206737065,0.7252197265625,-0.61431884765625,-0.21478271484375,-0.22491455078125,2677,-2175,754,-52,26,173
206747051,0.72607421875,-0.6231689453125,-0.1981201171875,-0.21258544921875,2154,-2450,771,-61,19,170
206757029,0.7257080078125,-0.63275146484375,-0.181884765625,-0.1998291015625,1647,-2780,702,-70,10,167
206767014,0.72393798828125,-0.64300537109375,-0.16619873046875,-0.1865234375,1192,-3183,571,-78,1,165
206776996,0.720947265625,-0.65399169921875,-0.1510009765625,-0.17236328125,765,-3668,377,-85,-8,165
206786984,0.716796875,-0.66558837890625,-0.1361083984375,-0.15728759765625,384,-4248,163,-92,-17,166
206796960,0.7115478515625,-0.6773681640625,-0.12176513671875,-0.14154052734375,63,-4872,-23,-97,-25,164
206806944,0.7054443359375,-0.689208984375,-0.1080322265625,-0.1253662109375,-228,-5473,-157,-101,-31,161
206816927,0.698486328125,-0.7008056640625,-0.09503173828125,-0.109130859375,-471,-5986,-272,-104,-36,155
206826908,0.69085693359375,-0.71209716796875,-0.08319091796875,-0.09332275390625,-680,-6467,-420,-105,-40,145
206836892,0.68255615234375,-0.7230224609375,-0.0726318359375,-0.07806396484375,-873,-6935,-620,-106,-43,133
206846877,0.6737060546875,-0.7335205078125,-0.063232421875,-0.0634765625,-938,-7360,-872,-106,-46,124
206856859,0.66455078125,-0.74359130859375,-0.05487060546875,-0.04925537109375,-908,-7760,-1164,-105,-49,118
206866841,0.6551513671875,-0.753173828125,-0.0472412109375,-0.0352783203125,-830,-8148,-1475,-102,-51,115
206876824,0.64581298828125,-0.76214599609375,-0.04010009765625,-0.0213623046875,-764,-8557,-1751,-98,-53,112
206886807,0.63671875,-0.77032470703125,-0.033447265625,-0.00775146484375,-749,-9000,-1974,-93,-54,107
206896792,0.628173828125,-0.777587890625,-0.02777099609375,0.00518798828125,-767,-9456,-2169,-85,-55,96
206906772,0.6204833984375,-0.78369140625,-0.02386474609375,0.016845703125,-784,-9918,-2277,-75,-55,77
206916763,0.6138916015625,-0.78863525390625,-0.02227783203125,0.0263671875,-790,-10358,-2355,-63,-54,49
206926747,0.608642578125,-0.7923583984375,-0.0238037109375,0.0333251953125,-767,-10695,-2388,-51,-53,16
206936723,0.6048583984375,-0.794921875,-0.02874755859375,0.03753662109375,-734,-10907,-2400,-38,-51,-21
206946703,0.6024169921875,-0.79638671875,-0.03704833984375,0.03887939453125,-665,-10985,-2420,-25,-50,-57
206956687,0.60125732421875,-0.79669189453125,-0.0484619140625,0.03765869140625,-535,-10951,-2464,-13,-48,-89
206966667,0.60125732421875,-0.7958984375,-0.06243896484375,0.0340576171875,-353,-10844,-2516,-1,-46,-117
206976656,0.60211181640625,-0.79400634765625,-0.07879638671875,0.0283203125,-102,-10670,-2519,9,-43,-143
206986637,0.6038818359375,-0.7908935546875,-0.09722900390625,0.02056884765625,219,-10448,-2513,18,-40,-166
206996622,0.6060791015625,-0.78662109375,-0.11737060546875,0.0108642578125,589,-10167,-2547,25,-36,-188
207006604,0.60845947265625,-0.78125,-0.13916015625,-0.00079345703125,1046,-9788,-2634,30,-31,-207
207016588,0.6107177734375,-0.77484130859375,-0.16253662109375,-0.01458740234375,1564,-9326,-2768,34,-25,-228
207026572,0.6126708984375,-0.7672119140625,-0.1873779296875,-0.0306396484375,2087,-8859,-2854,36,-18,-250
207036554,0.61419677734375,-0.75799560546875,-0.214111328125,-0.04925537109375,2584,-8406,-2817,38,-12,-278
207046542,0.61529541015625,-0.7467041015625,-0.24267578125,-0.070556640625,3038,-8021,-2682,40,-4,-308
207056520,0.61566162109375,-0.733154296875,-0.27294921875,-0.0946044921875,3441,-7675,-2492,42,4,-339
207066502,0.61505126953125,-0.71697998046875,-0.304931640625,-0.12139892578125,3730,-7337,-2324,44,12,-372
207076485,0.6129150390625,-0.6976318359375,-0.33880615234375,-0.15118408203125,3968,-6862,-2209,45,20,-410
207086469,0.608642578125,-0.674560546875,-0.37493896484375,-0.18438720703125,4230,-6288,-2158,45,27,-455
207096452,0.60150146484375,-0.647216796875,-0.41302490234375,-0.22076416015625,4544,-5646,-2119,44,34,-499
207106431,0.59124755859375,-0.61541748046875,-0.45208740234375,-0.25958251953125,4909,-4979,-2049,43,39,-532
207116422,0.577880859375,-0.57977294921875,-0.4903564453125,-0.29931640625,5293,-4284,-1979,40,44,-550
207126406,0.56182861328125,-0.54150390625,-0.52606201171875,-0.33831787109375,5641,-3507,-1918,35,49,-546
207136390,0.54364013671875,-0.501953125,-0.55816650390625,-0.37554931640625,5965,-2637,-1867,30,52,-529
207146368,0.524169921875,-0.4622802734375,-0.5860595703125,-0.41009521484375,6240,-1722,-1818,23,54,-501
207156354,0.50439453125,-0.42401123046875,-0.60919189453125,-0.44122314453125,6474,-786,-1767,16,55,-457
207166336,0.4857177734375,-0.38885498046875,-0.62738037109375,-0.46826171875,6651,102,-1729,9,56,-400
207176319,0.469482421875,-0.35833740234375,-0.64068603515625,-0.49066162109375,6762,902,-1714,3,55,-330
207186298,0.456787109375,-0.33349609375,-0.64959716796875,-0.5081787109375,6758,1570,-1669,0,54,-253
207196283,0.44775390625,-0.3140869140625,-0.65509033203125,-0.52130126953125,6683,2158,-1662,-1,51,-187
207206271,0.44195556640625,-0.29937744140625,-0.6583251953125,-0.53076171875,6553,2716,-1599,0,47,-130
207216256,0.43853759765625,-0.2880859375,-0.66021728515625,-0.5374755859375,6383,3197,-1480,3,43,-92
207226243,0.43646240234375,-0.2789306640625,-0.6614990234375,-0.5423583984375,6237,3529,-1319,7,37,-71
207236226,0.4349365234375,-0.27099609375,-0.66278076171875,-0.54608154296875,6154,3737,-1108,10,31,-61
207246209,0.4337158203125,-0.263916015625,-0.66424560546875,-0.5487060546875,6180,3853,-935,15,25,-52
207256190,0.4327392578125,-0.2578125,-0.6658935546875,-0.55035400390625,6256,3889,-767,18,18,-44
207266180,0.43194580078125,-0.25262451171875,-0.66778564453125,-0.55108642578125,6321,3891,-604,21,12,-38
207276163,0.43109130859375,-0.24810791015625,-0.66998291015625,-0.5511474609375,6322,3900,-430,25,6,-33
207286130,0.43011474609375,-0.24407958984375,-0.6724853515625,-0.5506591796875,6269,3936,-239,27,0,-29
207296115,0.4288330078125,-0.24053955078125,-0.67523193359375,-0.54986572265625,6187,3974,-64,28,-6,-27
207306096,0.42724609375,-0.23736572265625,-0.67828369140625,-0.5487060546875,6080,4025,96,29,-11,-26
207316078,0.42547607421875,-0.23455810546875,-0.68145751953125,-0.54742431640625,5985,4095,272,29,-16,-24
207326063,0.42352294921875,-0.2322998046875,-0.6846923828125,-0.54583740234375,5924,4182,419,29,-20,-19
207336051,0.42181396484375,-0.23095703125,-0.6878662109375,-0.54376220703125,5921,4317,530,29,-24,-9
207346030,0.42108154296875,-0.2314453125,-0.69061279296875,-0.54058837890625,6074,4484,586,29,-27,14
207356011,0.42236328125,-0.235107421875,-0.69244384765625,-0.53564453125,6356,4627,578,28,-30,51
207365995,0.42645263671875,-0.24298095703125,-0.6929931640625,-0.52813720703125,6689,4714,512,27,-32,101
207375983,0.43402099609375,-0.25604248046875,-0.69158935546875,-0.51751708984375,7039,4721,430,25,-34,163
207385959,0.44549560546875,-0.27496337890625,-0.68768310546875,-0.5030517578125,7389,4612,340,23,-36,234
207395946,0.4609375,-0.3001708984375,-0.68060302734375,-0.48406982421875,7762,4372,307,22,-39,310
207405928,0.47991943359375,-0.3311767578125,-0.6695556640625,-0.46014404296875,8134,4027,286,20,-40,384
207415912,0.50140380859375,-0.36700439453125,-0.65423583984375,-0.43121337890625,8518,3598,165,19,-41,449
207425894,0.5240478515625,-0.4063720703125,-0.63433837890625,-0.39739990234375,8956,3059,-63,17,-42,505
207435877,0.54644775390625,-0.44732666015625,-0.61004638671875,-0.35943603515625,9412,2387,-412,17,-41,541
207445860,0.56744384765625,-0.4881591796875,-0.5819091796875,-0.31805419921875,9845,1515,-860,19,-41,563
207455841,0.5860595703125,-0.52703857421875,-0.55084228515625,-0.27447509765625,10099,400,-1350,22,-40,564
207465823,0.6019287109375,-0.56268310546875,-0.51788330078125,-0.22998046875,10011,-911,-1745,27,-40,551
207475808,0.614990234375,-0.59417724609375,-0.48406982421875,-0.1854248046875,9579,-2372,-2036,33,-40,527
207485792,0.62542724609375,-0.62152099609375,-0.4500732421875,-0.14141845703125,8838,-3841,-2248,38,-40,501
207495784,0.63336181640625,-0.6446533203125,-0.4166259765625,-0.0987548828125,7925,-5092,-2371,43,-40,468
207505767,0.63909912109375,-0.66351318359375,-0.38458251953125,-0.0584716796875,6913,-6054,-2323,45,-40,431
207515751,0.64312744140625,-0.67828369140625,-0.35479736328125,-0.0216064453125,5942,-6728,-2120,47,-38,385
207525733,0.64599609375,-0.68896484375,-0.32843017578125,0.01080322265625,5047,-7179,-1819,47,-34,329
207535711,0.648193359375,-0.6961669921875,-0.30621337890625,0.0380859375,4252,-7491,-1497,47,-30,269
207545693,0.6502685546875,-0.7001953125,-0.2886962890625,0.0596923828125,3630,-7637,-1204,46,-23,204
207555676,0.65252685546875,-0.70159912109375,-0.2762451171875,0.07513427734375,3199,-7617,-1000,45,-16,137
207565659,0.65533447265625,-0.7008056640625,-0.26885986328125,0.08447265625,2951,-7513,-873,43,-7,74
207575644,0.65869140625,-0.6983642578125,-0.26580810546875,0.08819580078125,2833,-7373,-825,40,2,19
207585621,0.6624755859375,-0.69476318359375,-0.26617431640625,0.08709716796875,2789,-7235,-809,38,11,-25
207595602,0.66668701171875,-0.6903076171875,-0.2686767578125,0.0826416015625,2732,-7152,-798,36,19,-55
207605584,0.67108154296875,-0.68536376953125,-0.2723388671875,0.07574462890625,2698,-7173,-762,33,26,-74
207615568,0.675537109375,-0.68023681640625,-0.2763671875,0.0675048828125,2652,-7259,-696,31,31,-82
207625550,0.6800537109375,-0.67498779296875,-0.2801513671875,0.0587158203125,2645,-7345,-638,31,36,-84
207635535,0.68438720703125,-0.669921875,-0.28338623046875,0.04986572265625,2673,-7415,-558,30,38,-80
207645518,0.68865966796875,-0.6650390625,-0.285888671875,0.04132080078125,2709,-7430,-476,29,41,-73
207655501,0.69287109375,-0.66033935546875,-0.2877197265625,0.033203125,2736,-7398,-405,29,42,-67
207665483,0.6968994140625,-0.6558837890625,-0.2889404296875,0.0255126953125,2769,-7347,-334,28,42,-61
207675468,0.7008056640625,-0.65155029296875,-0.2899169921875,0.01812744140625,2777,-7242,-252,27,42,-59
207685452,0.70452880859375,-0.647216796875,-0.29095458984375,0.01068115234375,2768,-7120,-183,26,41,-61
207695434,0.7080078125,-0.642822265625,-0.29241943359375,0.0028076171875,2688,-6969,-89,23,40,-68
207705424,0.71112060546875,-0.63818359375,-0.2950439453125,-0.00634765625,2603,-6805,33,19,39,-86
207715408,0.71368408203125,-0.6328125,-0.29986572265625,-0.01806640625,2500,-6681,188,13,38,-119
207725392,0.71551513671875,-0.62603759765625,-0.30816650390625,-0.03369140625,2389,-6618,316,8,36,-170
207735368,0.7161865234375,-0.6170654296875,-0.3214111328125,-0.0550537109375,2339,-6561,428,2,34,-241
207745350,0.71502685546875,-0.60479736328125,-0.340576171875,-0.08355712890625,2339,-6545,480,-3,31,-327
207755333,0.711181640625,-0.58795166015625,-0.3663330078125,-0.11993408203125,2424,-6525,468,-7,28,-425
207765316,0.70330810546875,-0.56524658203125,-0.3985595703125,-0.16448974609375,2601,-6383,438,-8,23,-527
207775300,0.690185546875,-0.535400390625,-0.4361572265625,-0.21636962890625,2856,-6152,409,-7,19,-623
207785282,0.67071533203125,-0.497802734375,-0.47711181640625,-0.27337646484375,3242,-5815,411,-3,14,-702
207795270,0.64434814453125,-0.45263671875,-0.51873779296875,-0.3330078125,3781,-5228,433,3,10,-758
207805256,0.611083984375,-0.4005126953125,-0.558837890625,-0.39239501953125,4397,-4297,374,11,8,-792
207815241,0.5711669921875,-0.342529296875,-0.59552001953125,-0.44921875,4970,-3039,222,19,7,-809
207825226,0.52545166015625,-0.27972412109375,-0.6275634765625,-0.50189208984375,5370,-1472,60,28,9,-815
207835208,0.475341796875,-0.2137451171875,-0.65374755859375,-0.5487060546875,5593,206,-126,36,12,-801
207845189,0.42401123046875,-0.14825439453125,-0.673095703125,-0.58758544921875,5713,1689,-298,42,17,-751
207855181,0.3763427734375,-0.0880126953125,-0.6854248046875,-0.61712646484375,5690,2974,-428,45,25,-654
207865164,0.33697509765625,-0.0374755859375,-0.6920166015625,-0.6373291015625,5444,4098,-507,43,33,-516
207875141,0.3095703125,6.103515625e-05,-0.6949462890625,-0.6490478515625,5065,5015,-511,39,39,-349
207885120,0.29522705078125,0.02374267578125,-0.69635009765625,-0.65380859375,4642,5686,-448,37,42,-186
207895102,0.2919921875,0.03564453125,-0.6976318359375,-0.65338134765625,4157,6153,-373,37,42,-54
207905088,0.29656982421875,0.0389404296875,-0.69940185546875,-0.649169921875,3676,6471,-294,39,40,37
207915066,0.3055419921875,0.037109375,-0.7015380859375,-0.64276123046875,3284,6771,-236,40,37,88
207925051,0.31640625,0.03240966796875,-0.7039794921875,-0.63507080078125,3010,7025,-224,41,33,113
207935033,0.32769775390625,0.0264892578125,-0.7064208984375,-0.6268310546875,2843,7251,-269,40,29,121
207945015,0.33831787109375,0.02044677734375,-0.70892333984375,-0.61859130859375,2778,7419,-386,39,25,115
207954997,0.34747314453125,0.0152587890625,-0.7113037109375,-0.61083984375,2764,7563,-489,38,22,98
207964988,0.35455322265625,0.01171875,-0.713623046875,-0.6041259765625,2777,7652,-528,37,17,74
207974965,0.35919189453125,0.01025390625,-0.7158203125,-0.59881591796875,2795,7694,-498,35,14,45
207984947,0.361328125,0.01116943359375,-0.7178955078125,-0.594970703125,2815,7705,-421,34,10,14
207994931,0.36114501953125,0.01409912109375,-0.7198486328125,-0.5926513671875,2852,7722,-291,32,6,-12
208004911,0.35919189453125,0.0185546875,-0.72174072265625,-0.5914306640625,2905,7736,-167,30,2,-32
208014893,0.35601806640625,0.02362060546875,-0.72357177734375,-0.5909423828125,2940,7761,-79,28,-2,-41
208024871,0.352294921875,0.02880859375,-0.72540283203125,-0.59075927734375,2970,7806,-31,27,-5,-44
208034855,0.3482666015625,0.03350830078125,-0.72723388671875,-0.590576171875,2991,7886,-10,26,-8,-42
208044837,0.34429931640625,0.03759765625,-0.7291259765625,-0.59033203125,3010,7978,-42,25,-11,-37
208054821,0.34051513671875,0.04071044921875,-0.7310791015625,-0.58990478515625,3053,8071,-132,23,-15,-30
208064805,0.33697509765625,0.04290771484375,-0.733154296875,-0.5892333984375,3120,8184,-283,21,-17,-23
208074786,0.33367919921875,0.044189453125,-0.73529052734375,-0.58831787109375,3191,8295,-418,20,-20,-16
208084766,0.3306884765625,0.04449462890625,-0.73736572265625,-0.58734130859375,3263,8392,-526,17,-23,-9
208094759,0.32806396484375,0.0439453125,-0.739501953125,-0.58624267578125,3313,8457,-585,15,-25,-2
208104746,0.32568359375,0.04266357421875,-0.741455078125,-0.58514404296875,3348,8507,-625,13,-27,4
208114720,0.3236083984375,0.04052734375,-0.7432861328125,-0.58416748046875,3417,8559,-634,10,-28,9
208124704,0.32177734375,0.037841796875,-0.7449951171875,-0.58319091796875,3551,8610,-683,7,-29,13
208134685,0.3201904296875,0.03466796875,-0.74652099609375,-0.58233642578125,3727,8632,-764,4,-30,15
208144670,0.31842041015625,0.031494140625,-0.74786376953125,-0.58172607421875,3865,8632,-822,2,-30,11
208154649,0.31640625,0.0286865234375,-0.7489013671875,-0.5816650390625,3948,8605,-839,-1,-30,6
208164635,0.3138427734375,0.0264892578125,-0.74969482421875,-0.58209228515625,4031,8562,-831,-4,-29,-2
208177995,0.310791015625,0.02508544921875,-0.750244140625,-0.58306884765625,4112,8520,-792,-6,-28,-11
208184597,0.307373046875,0.02423095703125,-0.75054931640625,-0.58453369140625,4200,8515,-706,-9,-27,-17
208194579,0.30389404296875,0.02374267578125,-0.75054931640625,-0.58636474609375,4331,8543,-637,-10,-25,-21
208204563,0.30059814453125,0.02349853515625,-0.75030517578125,-0.58837890625,4494,8600,-639,-11,-23,-22
208214544,0.29754638671875,0.02337646484375,-0.75,-0.59033203125,4660,8643,-703,-12,-20,-23
208224528,0.294677734375,0.02362060546875,-0.74951171875,-0.5924072265625,4781,8689,-757,-14,-17,-26
208234510,0.291748046875,0.0245361328125,-0.748779296875,-0.5947265625,4833,8757,-790,-15,-13,-31
208244494,0.28875732421875,0.02593994140625,-0.747802734375,-0.5972900390625,4814,8809,-778,-16,-10,-34
208254477,0.2860107421875,0.02752685546875,-0.74658203125,-0.60009765625,4750,8814,-742,-18,-8,-34
208264459,0.28363037109375,0.029052734375,-0.7451171875,-0.60296630859375,4600,8752,-705,-20,-5,-29
208274440,0.28179931640625,0.0301513671875,-0.74346923828125,-0.60577392578125,4382,8664,-630,-22,-4,-23
208284430,0.28033447265625,0.0308837890625,-0.74163818359375,-0.608642578125,4130,8602,-562,-23,-3,-19
208294413,0.27911376953125,0.031494140625,-0.73974609375,-0.61151123046875,3892,8529,-528,-24,-2,-17
208304397,0.27777099609375,0.03216552734375,-0.73773193359375,-0.614501953125,3647,8470,-518,-25,-2,-18
208314375,0.276123046875,0.03314208984375,-0.7357177734375,-0.61761474609375,3420,8414,-468,-26,-2,-22
208324357,0.2742919921875,0.0343017578125,-0.7335205078125,-0.6209716796875,3228,8343,-393,-27,-3,-23
208334340,0.27252197265625,0.0352783203125,-0.7313232421875,-0.624267578125,3042,8251,-321,-27,-3,-20
208344324,0.27130126953125,0.03533935546875,-0.7291259765625,-0.62738037109375,2893,8117,-271,-28,-4,-10
208354313,0.27099609375,0.0341796875,-0.72705078125,-0.6300048828125,2772,7993,-224,-28,-5,4
208364293,0.27191162109375,0.03143310546875,-0.7249755859375,-0.632080078125,2688,7859,-168,-28,-6,21
208374275,0.2740478515625,0.02703857421875,-0.7230224609375,-0.63360595703125,2601,7727,-129,-29,-7,39
208384257,0.27764892578125,0.0208740234375,-0.72113037109375,-0.63446044921875,2530,7597,-94,-29,-8,60
208394238,0.282958984375,0.01251220703125,-0.71923828125,-0.63446044921875,2472,7443,-55,-29,-9,85
208404230,0.29034423828125,0.001708984375,-0.7174072265625,-0.63330078125,2466,7261,-22,-28,-9,114
208414214,0.30035400390625,-0.01220703125,-0.7154541015625,-0.6307373046875,2524,7055,46,-27,-10,152
208424205,0.31378173828125,-0.03021240234375,-0.7132568359375,-0.6260986328125,2693,6763,94,-26,-11,200
208434188,0.3314208984375,-0.05328369140625,-0.71044921875,-0.61859130859375,3015,6336,30,-25,-11,260
208444174,0.3536376953125,-0.08233642578125,-0.70660400390625,-0.607421875,3431,5914,-55,-25,-12,328
208454158,0.38067626953125,-0.11767578125,-0.70068359375,-0.59185791015625,3904,5570,-58,-24,-13,404
208464129,0.41217041015625,-0.1593017578125,-0.69183349609375,-0.57110595703125,4476,5238,-124,-24,-14,481
208474113,0.44659423828125,-0.20587158203125,-0.67919921875,-0.54486083984375,5120,4924,-297,-24,-13,541
208484098,0.481689453125,-0.2547607421875,-0.66253662109375,-0.51397705078125,5783,4602,-563,-25,-11,577
208494080,0.515380859375,-0.30328369140625,-0.64202880859375,-0.47979736328125,6429,4297,-912,-25,-5,585
208504067,0.54595947265625,-0.34893798828125,-0.61865234375,-0.4444580078125,7052,4028,-1265,-26,0,566
208514051,0.57159423828125,-0.3890380859375,-0.59429931640625,-0.41082763671875,7658,3703,-1522,-27,7,509
208524028,0.591796875,-0.42193603515625,-0.57098388671875,-0.3818359375,8210,3134,-1605,-28,14,425
208534009,0.60699462890625,-0.447265625,-0.550048828125,-0.359130859375,8536,2312,-1472,-30,22,333
208543996,0.6182861328125,-0.4658203125,-0.53216552734375,-0.34283447265625,8561,1352,-1295,-30,31,246
208553983,0.62646484375,-0.478759765625,-0.5174560546875,-0.3326416015625,8449,384,-1171,-31,40,169
208563960,0.632080078125,-0.48675537109375,-0.5059814453125,-0.3280029296875,8315,-506,-1077,-30,48,99
208573944,0.63568115234375,-0.49072265625,-0.4974365234375,-0.3282470703125,8127,-1279,-956,-29,54,41
208583926,0.6376953125,-0.49139404296875,-0.49139404296875,-0.3323974609375,7879,-1879,-802,-28,57,-4
208593904,0.6385498046875,-0.4898681640625,-0.4871826171875,-0.339111328125,7596,-2355,-636,-26,59,-35
208603890,0.638671875,-0.48687744140625,-0.48419189453125,-0.34735107421875,7363,-2727,-492,-25,58,-53
208613871,0.63818359375,-0.48321533203125,-0.4820556640625,-0.356201171875,7181,-2998,-395,-23,56,-63
208623855,0.63726806640625,-0.47918701171875,-0.48065185546875,-0.3651123046875,7064,-3210,-298,-21,52,-69
208633838,0.63592529296875,-0.474853515625,-0.4798583984375,-0.3740234375,6945,-3319,-182,-19,47,-73
208643821,0.6341552734375,-0.47021484375,-0.4798583984375,-0.38275146484375,6861,-3294,3,-17,40,-78
208653807,0.6319580078125,-0.46527099609375,-0.480712890625,-0.391357421875,6748,-3143,252,-13,33,-81
208663791,0.62939453125,-0.4600830078125,-0.4822998046875,-0.39959716796875,6614,-2890,559,-10,26,-82
208673769,0.62664794921875,-0.45489501953125,-0.48443603515625,-0.40716552734375,6483,-2566,832,-6,18,-79
208683763,0.623779296875,-0.45001220703125,-0.487060546875,-0.4136962890625,6367,-2284,1017,-3,11,-73
208693749,0.62139892578125,-0.446044921875,-0.4896240234375,-0.41864013671875,6321,-2074,1157,1,4,-57
208703722,0.6197509765625,-0.4434814453125,-0.49163818359375,-0.42138671875,6324,-1883,1255,3,-3,-34
208713702,0.61907958984375,-0.4423828125,-0.4930419921875,-0.421875,6326,-1715,1321,6,-9,-11
208723687,0.619140625,-0.442626953125,-0.49395751953125,-0.42047119140625,6341,-1548,1385,7,-15,8
208733669,0.61956787109375,-0.44384765625,-0.49456787109375,-0.417724609375,6407,-1364,1404,8,-20,20
208743651,0.6201171875,-0.4456787109375,-0.49530029296875,-0.41424560546875,6506,-1206,1397,8,-25,26
208753635,0.620361328125,-0.44769287109375,-0.49627685546875,-0.41046142578125,6668,-1075,1365,8,-28,25
208763616,0.6201171875,-0.4495849609375,-0.49774169921875,-0.40692138671875,6879,-984,1312,8,-31,19
208773599,0.61920166015625,-0.451171875,-0.4998779296875,-0.40399169921875,7090,-908,1250,7,-33,10
208783585,0.61761474609375,-0.4521484375,-0.502685546875,-0.40185546875,7247,-818,1195,6,-34,-2
208793561,0.615234375,-0.4525146484375,-0.5062255859375,-0.400634765625,7365,-700,1144,5,-36,-14
208803545,0.61224365234375,-0.4521484375,-0.510498046875,-0.4002685546875,7461,-584,1074,5,-36,-25
208813530,0.6087646484375,-0.45123291015625,-0.5152587890625,-0.40045166015625,7585,-510,979,6,-36,-33
208823512,0.60498046875,-0.44989013671875,-0.52032470703125,-0.40106201171875,7711,-446,900,7,-36,-39
208833498,0.60113525390625,-0.44818115234375,-0.52569580078125,-0.40191650390625,7847,-402,815,8,-35,-42
208843480,0.59722900390625,-0.44622802734375,-0.53106689453125,-0.40277099609375,7992,-402,741,9,-35,-44
208853464,0.593505859375,-0.44415283203125,-0.53643798828125,-0.40350341796875,8173,-433,667,11,-34,-43
208863449,0.590087890625,-0.4420166015625,-0.5416259765625,-0.40386962890625,8353,-464,577,14,-33,-40
208873436,0.5870361328125,-0.43994140625,-0.546630859375,-0.40380859375,8512,-517,479,16,-31,-36
208883418,0.58447265625,-0.4378662109375,-0.5513916015625,-0.4033203125,8651,-574,393,19,-30,-32
208893400,0.58233642578125,-0.43572998046875,-0.555908203125,-0.4024658203125,8736,-625,331,22,-28,-29
208903377,0.58074951171875,-0.43359375,-0.5601806640625,-0.4012451171875,8795,-690,276,24,-26,-25
208913361,0.57965087890625,-0.43145751953125,-0.56414794921875,-0.39959716796875,8841,-778,185,27,-23,-21
208923350,0.57904052734375,-0.4293212890625,-0.56787109375,-0.3974609375,8888,-857,84,30,-21,-17
208933330,0.5789794921875,-0.42730712890625,-0.57122802734375,-0.3948974609375,8925,-930,-28,33,-18,-11
208943312,0.5794677734375,-0.42535400390625,-0.57427978515625,-0.39190673828125,8943,-989,-138,35,-15,-6
208953293,0.58038330078125,-0.4234619140625,-0.57696533203125,-0.3885498046875,8954,-1016,-253,37,-12,-2
208963279,0.58172607421875,-0.4215087890625,-0.57940673828125,-0.385009765625,8954,-1007,-336,38,-10,1
208973259,0.5833740234375,-0.41949462890625,-0.58160400390625,-0.38140869140625,8929,-984,-394,39,-7,4
208983241,0.5853271484375,-0.41741943359375,-0.58355712890625,-0.37774658203125,8884,-949,-430,40,-5,5
208993232,0.58746337890625,-0.415283203125,-0.58526611328125,-0.3741455078125,8843,-896,-449,40,-3,6
209003212,0.5897216796875,-0.41302490234375,-0.5867919921875,-0.37060546875,8799,-842,-442,40,-1,7
209013205,0.5921630859375,-0.41070556640625,-0.588134765625,-0.36712646484375,8725,-775,-403,39,0,8
209023190,0.59466552734375,-0.40838623046875,-0.58929443359375,-0.36376953125,8597,-690,-347,39,2,8
209033173,0.59722900390625,-0.40594482421875,-0.59033203125,-0.360595703125,8476,-588,-250,38,3,7
209043157,0.5997314453125,-0.4033203125,-0.59136962890625,-0.35772705078125,8327,-478,-147,37,4,6
209053126,0.60223388671875,-0.40069580078125,-0.59228515625,-0.35504150390625,8210,-397,-80,36,5,6
209063111,0.60467529296875,-0.39813232421875,-0.59307861328125,-0.352294921875,8132,-356,-43,35,5,6
209073093,0.607177734375,-0.39581298828125,-0.59381103515625,-0.3494873046875,8093,-347,-37,34,5,9
209083075,0.60968017578125,-0.393798828125,-0.59429931640625,-0.34649658203125,8066,-360,-40,34,5,12
209093059,0.61224365234375,-0.3922119140625,-0.59466552734375,-0.34320068359375,8043,-412,-64,33,4,15
209103042,0.61480712890625,-0.39080810546875,-0.594970703125,-0.33966064453125,8043,-459,-111,33,3,17
209113024,0.61737060546875,-0.38958740234375,-0.59521484375,-0.3359375,8041,-517,-161,33,2,19
209123007,0.61981201171875,-0.3885498046875,-0.59552001953125,-0.33203125,8063,-579,-230,33,2,20
209132996,0.622314453125,-0.38751220703125,-0.5958251953125,-0.3280029296875,8091,-630,-287,33,1,21
209142979,0.6246337890625,-0.38653564453125,-0.59625244140625,-0.323974609375,8107,-671,-325,33,0,21
209152956,0.626953125,-0.38555908203125,-0.59674072265625,-0.31976318359375,8128,-736,-366,34,-1,20
209162937,0.62908935546875,-0.384521484375,-0.597412109375,-0.31549072265625,8165,-796,-429,34,-3,19
209172920,0.631103515625,-0.3834228515625,-0.5982666015625,-0.31121826171875,8236,-863,-523,35,-3,18
209182904,0.6329345703125,-0.3822021484375,-0.59930419921875,-0.30694580078125,8306,-937,-588,36,-5,16
209192885,0.6346435546875,-0.38067626953125,-0.60052490234375,-0.3028564453125,8354,-979,-639,36,-6,13
209202871,0.63616943359375,-0.37890625,-0.60205078125,-0.29888916015625,8389,-996,-688,37,-6,10
