subject,Two-hands and jerked
arm,neither
label,0
hz,100.17137179108244
time,5.460642

timestamp_us,q0,q1,q2,q3,ax,ay,az,gx,gy,gz
317987165,-0.00372314453125,-0.88824462890625,0.45892333984375,0.01995849609375,-371,251,-8321,3,-5,-15
317997143,-0.00311279296875,-0.88909912109375,0.45733642578125,0.02032470703125,-387,260,-8300,3,-5,-16
318007121,-0.00244140625,-0.88995361328125,0.45562744140625,0.02069091796875,-416,273,-8277,3,-5,-16
318017103,-0.0018310546875,-0.8907470703125,0.45404052734375,0.0211181640625,-440,288,-8250,3,-5,-15
318027086,-0.001220703125,-0.89154052734375,0.4525146484375,0.02154541015625,-452,305,-8223,3,-5,-14
318037067,-0.0006103515625,-0.8922119140625,0.45111083984375,0.02191162109375,-453,312,-8228,3,-5,-13
318047051,0.0,-0.89288330078125,0.44976806640625,0.0223388671875,-472,309,-8234,3,-5,-13
318057032,0.00048828125,-0.8935546875,0.44842529296875,0.022705078125,-460,315,-8263,2,-4,-13
318067018,0.0009765625,-0.8941650390625,0.4471435546875,0.02301025390625,-454,326,-8292,2,-4,-13
318077000,0.00140380859375,-0.89483642578125,0.44586181640625,0.0233154296875,-450,343,-8343,2,-4,-12
318086988,0.001708984375,-0.89544677734375,0.444580078125,0.0235595703125,-428,356,-8385,2,-3,-12
318096966,0.001953125,-0.89599609375,0.44342041015625,0.023681640625,-407,371,-8436,1,-2,-11
318106948,0.0020751953125,-0.8966064453125,0.44219970703125,0.0238037109375,-395,382,-8473,1,-2,-11
318116932,0.002197265625,-0.897216796875,0.44097900390625,0.02392578125,-388,372,-8521,1,-1,-12
318126913,0.002197265625,-0.89788818359375,0.43963623046875,0.02392578125,-352,368,-8562,0,-1,-13
318136899,0.00213623046875,-0.89862060546875,0.4381103515625,0.02386474609375,-331,372,-8615,0,0,-15
318146881,0.00201416015625,-0.89947509765625,0.4364013671875,0.02374267578125,-317,387,-8635,-1,0,-16
318156863,0.0018310546875,-0.90032958984375,0.43463134765625,0.02362060546875,-320,387,-8658,-1,1,-17
318166844,0.00164794921875,-0.90118408203125,0.43280029296875,0.0235595703125,-361,395,-8637,-1,1,-17
318176829,0.00140380859375,-0.9019775390625,0.43115234375,0.02349853515625,-405,382,-8587,-1,1,-15
318186812,0.00115966796875,-0.9027099609375,0.42962646484375,0.02349853515625,-452,365,-8537,-2,1,-14
318196793,0.00091552734375,-0.90338134765625,0.42828369140625,0.0235595703125,-486,354,-8501,-2,1,-12
318206773,0.00067138671875,-0.9039306640625,0.427001953125,0.02362060546875,-510,351,-8490,-2,1,-12
318216767,0.00042724609375,-0.90447998046875,0.42584228515625,0.02374267578125,-506,344,-8492,-2,0,-11
318226749,0.0001220703125,-0.905029296875,0.42474365234375,0.02386474609375,-526,344,-8479,-3,0,-10
318236731,-0.0001220703125,-0.905517578125,0.4237060546875,0.0240478515625,-544,336,-8453,-2,0,-10
318246709,-0.0003662109375,-0.90594482421875,0.4227294921875,0.0242919921875,-568,324,-8418,-3,0,-9
318256693,-0.0006103515625,-0.9063720703125,0.4217529296875,0.02459716796875,-602,317,-8405,-3,-1,-9
318266673,-0.000732421875,-0.90673828125,0.4208984375,0.02490234375,-608,309,-8417,-3,-1,-8
318276655,-0.0009765625,-0.9071044921875,0.420166015625,0.02532958984375,-601,318,-8426,-3,-2,-7
318286639,-0.0010986328125,-0.90740966796875,0.41949462890625,0.02569580078125,-602,303,-8441,-3,-2,-7
318296623,-0.001220703125,-0.90771484375,0.41876220703125,0.026123046875,-592,296,-8431,-3,-3,-7
318306604,-0.0013427734375,-0.9080810546875,0.41790771484375,0.02655029296875,-570,296,-8389,-3,-2,-8
318316586,-0.00140380859375,-0.9085693359375,0.41693115234375,0.02691650390625,-549,279,-8364,-2,-3,-10
318326570,-0.00140380859375,-0.9090576171875,0.415771484375,0.02728271484375,-538,266,-8359,-2,-2,-11
318336554,-0.00140380859375,-0.90960693359375,0.41461181640625,0.02752685546875,-505,254,-8374,-1,-2,-11
318346535,-0.00146484375,-0.91015625,0.41339111328125,0.0277099609375,-477,261,-8395,-1,-2,-11
318356519,-0.00140380859375,-0.91064453125,0.4122314453125,0.02777099609375,-435,253,-8405,-1,-1,-11
318366506,-0.0013427734375,-0.9111328125,0.41119384765625,0.02777099609375,-439,250,-8390,0,-1,-10
318376490,-0.0013427734375,-0.91162109375,0.41009521484375,0.0277099609375,-442,249,-8343,0,0,-10
318386472,-0.001220703125,-0.91217041015625,0.40899658203125,0.0274658203125,-428,216,-8312,1,1,-11
318396455,-0.00103759765625,-0.9127197265625,0.40771484375,0.027099609375,-404,182,-8284,2,2,-12
318406434,-0.00091552734375,-0.91339111328125,0.40625,0.0263671875,-333,157,-8284,3,4,-14
318416426,-0.000732421875,-0.91412353515625,0.4046630859375,0.02520751953125,-224,118,-8287,4,7,-15
318426410,-0.00054931640625,-0.9149169921875,0.40301513671875,0.023681640625,-135,71,-8306,6,10,-16
318436391,-0.00030517578125,-0.91571044921875,0.4013671875,0.02166748046875,-43,54,-8324,7,13,-15
318446368,-0.0001220703125,-0.91644287109375,0.3997802734375,0.01922607421875,1,32,-8305,9,16,-14
318456352,0.00018310546875,-0.9171142578125,0.39837646484375,0.01641845703125,10,8,-8280,10,19,-14
318466335,0.00042724609375,-0.91778564453125,0.3968505859375,0.0133056640625,1,4,-8255,11,22,-14
318476319,0.000732421875,-0.91851806640625,0.39520263671875,0.00994873046875,-12,-23,-8232,12,24,-16
318486300,0.00103759765625,-0.91937255859375,0.393310546875,0.00616455078125,6,-70,-8214,14,27,-18
318496282,0.00140380859375,-0.92034912109375,0.39117431640625,0.0020751953125,41,-143,-8210,15,29,-20
318506265,0.00189208984375,-0.9212646484375,0.38897705078125,-0.00250244140625,134,-220,-8229,17,32,-20
318516256,0.00244140625,-0.922119140625,0.38690185546875,-0.00762939453125,272,-275,-8273,19,35,-18
318526239,0.00299072265625,-0.9227294921875,0.38525390625,-0.0133056640625,417,-314,-8329,21,39,-14
318536223,0.00360107421875,-0.92315673828125,0.3839111328125,-0.0194091796875,483,-358,-8367,23,42,-11
318546209,0.0042724609375,-0.9234619140625,0.38287353515625,-0.0257568359375,498,-383,-8382,24,45,-9
318556188,0.00506591796875,-0.92364501953125,0.3818359375,-0.03240966796875,483,-413,-8374,26,48,-9
318566180,0.00592041015625,-0.92376708984375,0.380859375,-0.0394287109375,523,-446,-8377,28,50,-9
318576162,0.00677490234375,-0.92388916015625,0.3797607421875,-0.046875,611,-490,-8398,30,54,-9
318586142,0.0076904296875,-0.9239501953125,0.37860107421875,-0.054931640625,775,-535,-8426,31,57,-10
318596119,0.0086669921875,-0.92388916015625,0.37738037109375,-0.0634765625,944,-589,-8470,34,61,-9
318606101,0.009521484375,-0.92364501953125,0.376220703125,-0.07269287109375,1155,-619,-8506,35,65,-8
318616085,0.01043701171875,-0.92315673828125,0.37530517578125,-0.08251953125,1374,-659,-8543,38,70,-5
318626067,0.01129150390625,-0.92242431640625,0.37469482421875,-0.09307861328125,1607,-713,-8601,39,75,-2
318636051,0.01226806640625,-0.92138671875,0.374267578125,-0.104248046875,1778,-787,-8657,42,80,-1
318646029,0.01318359375,-0.920166015625,0.37371826171875,-0.11590576171875,1881,-851,-8696,43,85,-2
318656016,0.01422119140625,-0.91900634765625,0.3726806640625,-0.12811279296875,1937,-941,-8702,46,90,-6
318666000,0.0152587890625,-0.91778564453125,0.3709716796875,-0.14068603515625,2027,-1041,-8715,48,93,-12
318675988,0.01617431640625,-0.91668701171875,0.36846923828125,-0.15380859375,2239,-1135,-8731,50,97,-18
318685964,0.01690673828125,-0.91558837890625,0.3651123046875,-0.16790771484375,2652,-1278,-8824,52,103,-25
318695948,0.01739501953125,-0.914306640625,0.3609619140625,-0.18304443359375,3145,-1446,-8968,54,110,-30
318705931,0.01776123046875,-0.9127197265625,0.35638427734375,-0.19921875,3577,-1593,-9106,57,119,-32
318715913,0.01806640625,-0.91058349609375,0.351806640625,-0.21630859375,3894,-1708,-9144,60,128,-29
318725897,0.01849365234375,-0.90771484375,0.34765625,-0.23419189453125,4081,-1805,-9121,62,136,-24
318735880,0.01904296875,-0.90411376953125,0.34393310546875,-0.2528076171875,4227,-1882,-9075,65,144,-18
318745863,0.01971435546875,-0.8997802734375,0.34063720703125,-0.27203369140625,4389,-1980,-9042,67,150,-14
318755845,0.02044677734375,-0.894775390625,0.33734130859375,-0.2919921875,4581,-2099,-9051,70,158,-12
318765826,0.02142333984375,-0.8890380859375,0.33404541015625,-0.3123779296875,4773,-2247,-9099,73,163,-10
318775810,0.02252197265625,-0.8826904296875,0.330810546875,-0.33306884765625,4873,-2370,-9088,75,168,-7
318785796,0.0240478515625,-0.87567138671875,0.3277587890625,-0.3538818359375,4875,-2471,-9006,78,170,-3
318795784,0.02606201171875,-0.8680419921875,0.32501220703125,-0.37451171875,4805,-2550,-8862,81,172,3
318805766,0.0286865234375,-0.859619140625,0.32275390625,-0.39508056640625,4764,-2615,-8647,84,172,10
318815748,0.031982421875,-0.85052490234375,0.32098388671875,-0.41546630859375,4819,-2719,-8482,87,172,17
318825724,0.0361328125,-0.84063720703125,0.31988525390625,-0.43560791015625,4921,-2836,-8363,91,171,27
318835709,0.04119873046875,-0.830078125,0.319580078125,-0.4552001953125,5002,-2930,-8199,95,169,39
318845692,0.04742431640625,-0.8187255859375,0.3201904296875,-0.47430419921875,5059,-3006,-7983,98,165,51
318855674,0.05474853515625,-0.80682373046875,0.321533203125,-0.49267578125,5065,-3066,-7728,101,160,63
318865658,0.063232421875,-0.7943115234375,0.3236083984375,-0.51031494140625,5041,-3135,-7443,105,155,74
318875640,0.07275390625,-0.7813720703125,0.326171875,-0.527099609375,5007,-3197,-7102,108,148,83
318885623,0.0831298828125,-0.76812744140625,0.32891845703125,-0.5430908203125,5018,-3269,-6745,111,141,87
318895607,0.09417724609375,-0.7548828125,0.33148193359375,-0.55810546875,5038,-3369,-6361,113,133,90
318905592,0.10552978515625,-0.74176025390625,0.33355712890625,-0.57220458984375,5056,-3468,-5954,115,124,87
318915575,0.11688232421875,-0.72900390625,0.33477783203125,-0.58551025390625,5099,-3541,-5544,116,116,82
318925558,0.12799072265625,-0.716796875,0.33502197265625,-0.59808349609375,5155,-3603,-5127,116,108,74
318935542,0.138427734375,-0.70513916015625,0.33404541015625,-0.6099853515625,5242,-3705,-4776,116,102,62
318945524,0.148193359375,-0.69415283203125,0.331787109375,-0.62139892578125,5311,-3843,-4423,116,96,50
318955506,0.1571044921875,-0.68389892578125,0.32830810546875,-0.63238525390625,5350,-3972,-4081,115,91,37
318965487,0.16510009765625,-0.67431640625,0.3236083984375,-0.6429443359375,5345,-4053,-3702,114,86,24
318975472,0.17193603515625,-0.66546630859375,0.31768798828125,-0.65325927734375,5317,-4059,-3270,112,81,10
318985455,0.177734375,-0.65716552734375,0.31060791015625,-0.66339111328125,5284,-4055,-2820,110,77,-3
318995431,0.18267822265625,-0.64947509765625,0.3028564453125,-0.6732177734375,5242,-4003,-2362,107,73,-11
319005423,0.1868896484375,-0.64215087890625,0.2945556640625,-0.68267822265625,5250,-3976,-1990,104,69,-17
319015405,0.19073486328125,-0.63519287109375,0.2861328125,-0.69158935546875,5294,-4023,-1691,101,65,-20
319025389,0.1942138671875,-0.62860107421875,0.27764892578125,-0.7000732421875,5340,-4075,-1406,98,62,-23
319035366,0.19732666015625,-0.62225341796875,0.26904296875,-0.70819091796875,5398,-4165,-1174,95,59,-25
319045350,0.20025634765625,-0.61614990234375,0.260498046875,-0.71588134765625,5415,-4239,-962,93,57,-26
319055330,0.20318603515625,-0.610107421875,0.252197265625,-0.72314453125,5367,-4238,-754,91,54,-24
319065313,0.206298828125,-0.6041259765625,0.24420166015625,-0.72998046875,5288,-4197,-538,88,52,-20
319075297,0.20977783203125,-0.59814453125,0.23675537109375,-0.73638916015625,5228,-4132,-283,86,50,-14
319085281,0.2138671875,-0.59197998046875,0.2298583984375,-0.7423095703125,5178,-4038,39,84,47,-5
319095270,0.2186279296875,-0.585693359375,0.22357177734375,-0.747802734375,5203,-3879,469,81,44,3
319105245,0.223876953125,-0.579345703125,0.2176513671875,-0.7529296875,5316,-3777,905,80,41,10
319115238,0.22955322265625,-0.572998046875,0.212158203125,-0.75762939453125,5464,-3663,1329,78,39,15
319125219,0.23529052734375,-0.5665283203125,0.20684814453125,-0.76220703125,5538,-3617,1731,77,39,16
319135205,0.2408447265625,-0.56011962890625,0.20159912109375,-0.7666015625,5497,-3694,2059,75,38,12
319145191,0.245849609375,-0.55377197265625,0.1962890625,-0.77093505859375,5443,-3780,2333,73,37,8
319155175,0.25030517578125,-0.54766845703125,0.19085693359375,-0.7752685546875,5566,-3873,2524,71,37,4
319165158,0.2542724609375,-0.54180908203125,0.18548583984375,-0.7794189453125,5864,-3974,2641,69,38,3
319175129,0.258056640625,-0.535888671875,0.18035888671875,-0.783447265625,6222,-4038,2745,66,40,5
319185110,0.26190185546875,-0.52972412109375,0.17559814453125,-0.78741455078125,6491,-4060,2803,65,43,8
319195095,0.26531982421875,-0.52349853515625,0.1707763671875,-0.79150390625,6681,-4011,2901,65,45,3
319205077,0.26788330078125,-0.5169677734375,0.16546630859375,-0.7960205078125,6673,-3886,3035,64,48,-5
319215056,0.26934814453125,-0.51031494140625,0.15972900390625,-0.80096435546875,6516,-3748,3129,63,51,-17
319225040,0.26971435546875,-0.5035400390625,0.15350341796875,-0.80633544921875,6253,-3718,3219,62,53,-27
319235025,0.26971435546875,-0.4967041015625,0.1473388671875,-0.81170654296875,5953,-3711,3400,61,53,-30
319245009,0.26959228515625,-0.48974609375,0.1412353515625,-0.8170166015625,5686,-3624,3644,59,51,-29
319254995,0.26983642578125,-0.4830322265625,0.13543701171875,-0.8218994140625,5518,-3494,3908,57,47,-23
319264979,0.2706298828125,-0.47674560546875,0.130126953125,-0.826171875,5460,-3316,4127,54,42,-15
319274956,0.272216796875,-0.47088623046875,0.12542724609375,-0.82977294921875,5408,-3179,4297,50,37,-6
319284945,0.27447509765625,-0.46539306640625,0.121337890625,-0.83270263671875,5360,-3052,4464,47,33,2
319294923,0.27728271484375,-0.4603271484375,0.1177978515625,-0.8350830078125,5329,-2920,4647,44,29,8
319304904,0.280517578125,-0.45556640625,0.11474609375,-0.8370361328125,5322,-2824,4814,41,25,14
319314887,0.28387451171875,-0.4512939453125,0.11199951171875,-0.83856201171875,5323,-2751,4947,38,21,16
319324870,0.287109375,-0.447509765625,0.109375,-0.83990478515625,5301,-2713,5044,36,18,14
319334854,0.289794921875,-0.44427490234375,0.106689453125,-0.84100341796875,5250,-2704,5141,33,14,9
319344836,0.2918701171875,-0.44140625,0.1036376953125,-0.8421630859375,5198,-2698,5286,32,10,2
319354820,0.29327392578125,-0.43902587890625,0.100341796875,-0.84332275390625,5191,-2698,5482,30,7,-3
319364799,0.29443359375,-0.43695068359375,0.09698486328125,-0.84442138671875,5223,-2723,5660,28,3,-4
319374784,0.29559326171875,-0.43536376953125,0.0938720703125,-0.84521484375,5250,-2767,5752,26,1,-2
319384773,0.29705810546875,-0.43408203125,0.0911865234375,-0.84564208984375,5246,-2825,5767,24,-2,1
319394752,0.29876708984375,-0.4332275390625,0.0887451171875,-0.845703125,5218,-2861,5711,22,-5,4
319404735,0.30059814453125,-0.4327392578125,0.0865478515625,-0.84552001953125,5157,-2866,5616,21,-8,6
319414713,0.3026123046875,-0.43267822265625,0.08453369140625,-0.8450927734375,5098,-2831,5563,18,-11,8
319424695,0.3046875,-0.4329833984375,0.0826416015625,-0.8443603515625,5004,-2765,5529,16,-15,10
319434677,0.3067626953125,-0.43365478515625,0.0809326171875,-0.8433837890625,4947,-2652,5552,13,-19,11
319444660,0.308837890625,-0.43475341796875,0.0792236328125,-0.84222412109375,4888,-2535,5606,11,-22,11
319454644,0.31085205078125,-0.43609619140625,0.07763671875,-0.8409423828125,4838,-2432,5658,9,-25,12
319464626,0.312744140625,-0.4376220703125,0.076171875,-0.839599609375,4799,-2389,5682,7,-26,12
319474608,0.31494140625,-0.4393310546875,0.0750732421875,-0.83795166015625,4814,-2391,5662,6,-26,16
319484592,0.31756591796875,-0.44110107421875,0.0743408203125,-0.83612060546875,4816,-2391,5608,5,-26,21
319494576,0.3204345703125,-0.44287109375,0.07391357421875,-0.83416748046875,4630,-2493,5425,5,-26,21
319504559,0.32281494140625,-0.4447021484375,0.0733642578125,-0.832275390625,4476,-2526,5255,5,-27,14
319514542,0.32415771484375,-0.4466552734375,0.0721435546875,-0.830810546875,4309,-2560,5029,5,-27,4
319524523,0.32440185546875,-0.44891357421875,0.07037353515625,-0.82965087890625,4138,-2610,4779,5,-28,-7
319534504,0.32391357421875,-0.451416015625,0.06817626953125,-0.82867431640625,3992,-2697,4473,6,-30,-15
319544488,0.3228759765625,-0.454345703125,0.06561279296875,-0.82769775390625,3902,-2800,4182,6,-33,-20
319554472,0.32122802734375,-0.4576416015625,0.06256103515625,-0.82672119140625,3864,-2865,3940,7,-35,-26
319564457,0.31878662109375,-0.46124267578125,0.05877685546875,-0.82598876953125,3870,-2867,3760,8,-38,-36
319574436,0.3153076171875,-0.465087890625,0.05419921875,-0.825439453125,3913,-2807,3729,8,-41,-46
319584427,0.31097412109375,-0.4691162109375,0.04888916015625,-0.82513427734375,4026,-2716,3825,8,-44,-54
319594410,0.30584716796875,-0.47344970703125,0.0430908203125,-0.824951171875,4181,-2573,3995,7,-47,-61
319604395,0.2999267578125,-0.47808837890625,0.036865234375,-0.82470703125,4366,-2415,4186,4,-51,-67
319614371,0.29339599609375,-0.48297119140625,0.03033447265625,-0.82452392578125,4551,-2264,4351,3,-53,-72
319624354,0.2862548828125,-0.48809814453125,0.0235595703125,-0.82421875,4721,-2143,4452,2,-56,-76
319634337,0.27880859375,-0.49346923828125,0.01678466796875,-0.82373046875,4836,-2067,4488,1,-58,-77
319644322,0.27166748046875,-0.49908447265625,0.01019287109375,-0.82281494140625,4998,-1998,4494,0,-61,-73
319654304,0.2650146484375,-0.505126953125,0.00390625,-0.82135009765625,5344,-1940,4490,0,-64,-65
319664286,0.25946044921875,-0.51141357421875,-0.0018310546875,-0.81927490234375,5861,-1926,4505,0,-66,-53
319674268,0.25543212890625,-0.5179443359375,-0.00665283203125,-0.81640625,6487,-1994,4417,1,-67,-36
319684256,0.25274658203125,-0.524658203125,-0.0107421875,-0.8128662109375,7118,-2162,4218,3,-66,-25
319694244,0.25067138671875,-0.5311279296875,-0.01458740234375,-0.80926513671875,7693,-2313,4026,5,-62,-24
319704229,0.24847412109375,-0.5369873046875,-0.0186767578125,-0.8060302734375,8201,-2431,3906,8,-57,-27
319714212,0.24652099609375,-0.54193115234375,-0.0228271484375,-0.80316162109375,8643,-2478,3867,10,-50,-24
319724189,0.2454833984375,-0.54620361328125,-0.0264892578125,-0.80047607421875,9055,-2511,3871,12,-43,-15
319734181,0.2457275390625,-0.5496826171875,-0.0294189453125,-0.79791259765625,9463,-2539,3907,14,-37,-2
319744165,0.2474365234375,-0.55255126953125,-0.0313720703125,-0.79534912109375,9863,-2590,3927,16,-30,11
319754138,0.250732421875,-0.5546875,-0.03240966796875,-0.79278564453125,10207,-2675,3923,19,-22,25
319764116,0.255126953125,-0.55596923828125,-0.0328369140625,-0.7904052734375,10462,-2771,3876,22,-14,33
319774101,0.26019287109375,-0.55633544921875,-0.03302001953125,-0.78851318359375,10589,-2879,3832,26,-4,35
319784083,0.2655029296875,-0.55548095703125,-0.033447265625,-0.787353515625,10598,-2956,3819,31,5,32
319794065,0.27069091796875,-0.55352783203125,-0.03436279296875,-0.78692626953125,10551,-2971,3832,36,14,28
319804051,0.2757568359375,-0.5504150390625,-0.03582763671875,-0.7872314453125,10423,-2918,3899,40,23,22
319814034,0.28045654296875,-0.546142578125,-0.03802490234375,-0.7884521484375,10164,-2798,4034,45,31,14
319824016,0.2845458984375,-0.54071044921875,-0.041015625,-0.79058837890625,9832,-2690,4196,49,39,4
319833999,0.28765869140625,-0.534423828125,-0.04486083984375,-0.7935791015625,9473,-2683,4263,52,46,-11
319843988,0.2894287109375,-0.52740478515625,-0.04974365234375,-0.79730224609375,9138,-2702,4222,56,51,-29
319853965,0.2891845703125,-0.51971435546875,-0.05615234375,-0.80194091796875,8899,-2651,4202,58,56,-52
319863948,0.28643798828125,-0.51129150390625,-0.06439208984375,-0.8077392578125,8789,-2477,4236,61,61,-80
319873933,0.280517578125,-0.5018310546875,-0.07476806640625,-0.8148193359375,8802,-2175,4335,62,66,-112
319883916,0.27142333984375,-0.49151611328125,-0.0870361328125,-0.82293701171875,8912,-1898,4381,63,72,-143
319893898,0.2598876953125,-0.48016357421875,-0.1004638671875,-0.831787109375,9045,-1666,4455,63,78,-165
319903885,0.246826171875,-0.46783447265625,-0.11444091796875,-0.8409423828125,9174,-1463,4524,63,85,-178
319913869,0.2330322265625,-0.45452880859375,-0.12847900390625,-0.85009765625,9337,-1234,4575,63,91,-184
319923850,0.2191162109375,-0.44049072265625,-0.142333984375,-0.85894775390625,9565,-982,4600,63,98,-182
319933834,0.205810546875,-0.42578125,-0.1556396484375,-0.8673095703125,9747,-719,4632,64,104,-176
319943816,0.19354248046875,-0.41033935546875,-0.1683349609375,-0.87518310546875,9797,-480,4685,65,110,-168
319953800,0.182373046875,-0.39410400390625,-0.180419921875,-0.882568359375,9736,-243,4803,67,117,-158
319963784,0.172607421875,-0.37689208984375,-0.19195556640625,-0.88958740234375,9549,14,4928,69,125,-147
319973770,0.16412353515625,-0.3587646484375,-0.20306396484375,-0.896240234375,9249,339,4993,72,133,-137
319983754,0.1572265625,-0.3397216796875,-0.2137451171875,-0.90234375,8845,705,4989,75,141,-123
319993737,0.15203857421875,-0.3199462890625,-0.22393798828125,-0.90802001953125,8362,1073,4886,77,149,-109
320003713,0.14874267578125,-0.29949951171875,-0.233642578125,-0.9130859375,7788,1449,4714,79,156,-93
320013696,0.147216796875,-0.27850341796875,-0.2427978515625,-0.91754150390625,7138,1785,4453,80,162,-78
320023679,0.1473388671875,-0.257080078125,-0.25146484375,-0.92144775390625,6403,2081,4117,80,167,-64
320033661,0.14874267578125,-0.23529052734375,-0.2596435546875,-0.92474365234375,5626,2322,3739,80,171,-53
320043645,0.151123046875,-0.21307373046875,-0.26739501953125,-0.92755126953125,4828,2510,3346,79,174,-45
320053627,0.1541748046875,-0.19061279296875,-0.27484130859375,-0.92974853515625,4041,2636,2927,78,176,-39
320063610,0.15771484375,-0.1678466796875,-0.2818603515625,-0.93145751953125,3327,2705,2544,77,177,-35
320073596,0.16156005859375,-0.14495849609375,-0.28851318359375,-0.9326171875,2721,2807,2256,76,178,-31
320083578,0.16583251953125,-0.12213134765625,-0.29486083984375,-0.93310546875,2257,2945,2117,75,177,-26
320093561,0.170654296875,-0.0994873046875,-0.30084228515625,-0.93304443359375,1906,3145,2183,74,177,-20
320103544,0.17626953125,-0.0772705078125,-0.30633544921875,-0.93231201171875,1577,3371,2292,72,174,-11
320113530,0.18304443359375,-0.0557861328125,-0.3115234375,-0.9307861328125,1211,3580,2475,71,171,3
320123507,0.1912841796875,-0.0352783203125,-0.31634521484375,-0.92852783203125,742,3714,2772,71,164,19
320133489,0.2010498046875,-0.01605224609375,-0.321044921875,-0.92535400390625,175,3762,3139,73,155,38
320143473,0.21246337890625,0.0015869140625,-0.325927734375,-0.9212646484375,-408,3780,3537,77,145,57
320153457,0.225341796875,0.017333984375,-0.331298828125,-0.91607666015625,-915,3818,3885,82,131,76
320163436,0.23956298828125,0.031005859375,-0.33746337890625,-0.90985107421875,-1292,3970,4194,87,118,94
320173430,0.25482177734375,0.04254150390625,-0.3447265625,-0.9024658203125,-1561,4213,4463,93,103,109
320183412,0.270263671875,0.05218505859375,-0.3529052734375,-0.894287109375,-1647,4542,4733,97,89,115
320193394,0.28497314453125,0.0601806640625,-0.36181640625,-0.8856201171875,-1503,4937,4948,100,75,113
320203374,0.2982177734375,0.06695556640625,-0.37139892578125,-0.87677001953125,-1190,5322,5063,102,63,102
320213357,0.30926513671875,0.0731201171875,-0.3812255859375,-0.8681640625,-823,5669,5110,102,54,85
320223340,0.3177490234375,0.07916259765625,-0.39111328125,-0.86016845703125,-394,6064,5406,100,46,64
320233324,0.32427978515625,0.0848388671875,-0.40020751953125,-0.8529052734375,64,6519,5651,96,41,49
320243306,0.330078125,0.0902099609375,-0.40850830078125,-0.84619140625,480,7179,6186,86,39,45
320253293,0.3359375,0.09503173828125,-0.4154052734375,-0.8399658203125,766,7620,6233,71,39,45
320265995,0.341552734375,0.0994873046875,-0.42095947265625,-0.83447265625,993,7870,6119,58,40,40
320273256,0.34588623046875,0.10430908203125,-0.42498779296875,-0.83001708984375,1120,8097,6032,46,41,23
320283245,0.34808349609375,0.10992431640625,-0.427734375,-0.82696533203125,1213,8342,5957,36,41,-1
320293220,0.3477783203125,0.11627197265625,-0.4293212890625,-0.82537841796875,1205,8531,5864,28,39,-25
320303205,0.34490966796875,0.12353515625,-0.42962646484375,-0.82537841796875,1045,8614,5759,20,37,-50
320313192,0.33953857421875,0.13153076171875,-0.428955078125,-0.82672119140625,772,8615,5642,13,33,-73
320323175,0.3321533203125,0.139892578125,-0.42742919921875,-0.82916259765625,452,8552,5506,7,29,-89
320333158,0.3233642578125,0.148193359375,-0.42529296875,-0.832275390625,131,8410,5338,3,24,-99
320343125,0.3138427734375,0.1561279296875,-0.42279052734375,-0.83575439453125,-210,8209,5168,-1,19,-102
320353104,0.30413818359375,0.16326904296875,-0.41998291015625,-0.83935546875,-519,7993,5155,-5,13,-99
320363088,0.29541015625,0.16900634765625,-0.41680908203125,-0.8428955078125,-738,7742,5299,-9,7,-86
320373072,0.2884521484375,0.1728515625,-0.41351318359375,-0.84613037109375,-789,7387,5479,-14,3,-67
320383056,0.2835693359375,0.17510986328125,-0.4102783203125,-0.848876953125,-625,6911,5568,-16,2,-48
320393037,0.2803955078125,0.17657470703125,-0.40716552734375,-0.8511962890625,-269,6361,5625,-16,6,-38
320403019,0.27783203125,0.1783447265625,-0.4039306640625,-0.8531494140625,51,5796,5632,-14,14,-39
320413004,0.27459716796875,0.1815185546875,-0.4005126953125,-0.85516357421875,102,5259,5575,-10,20,-49
320422992,0.26971435546875,0.18634033203125,-0.39697265625,-0.8572998046875,-47,4740,5465,-5,24,-66
320432980,0.262451171875,0.19268798828125,-0.393310546875,-0.85986328125,-279,4253,5308,0,26,-88
320442956,0.2529296875,0.20025634765625,-0.3897705078125,-0.86260986328125,-472,3845,5102,6,25,-106
320452938,0.24163818359375,0.20867919921875,-0.3863525390625,-0.8653564453125,-648,3343,4878,12,26,-120
320462921,0.22906494140625,0.21759033203125,-0.38299560546875,-0.8680419921875,-609,2788,4684,16,27,-130
320472903,0.21551513671875,0.2271728515625,-0.37982177734375,-0.8704833984375,-492,2232,4503,23,30,-140
320482887,0.20086669921875,0.23773193359375,-0.37677001953125,-0.8724365234375,-339,1722,4339,30,36,-150
320492877,0.18499755859375,0.24957275390625,-0.37396240234375,-0.8739013671875,-190,1306,4183,38,43,-163
320502857,0.167236328125,0.2630615234375,-0.3712158203125,-0.87469482421875,-101,1043,4007,46,52,-182
320512841,0.1475830078125,0.2783203125,-0.36846923828125,-0.8746337890625,-145,944,3947,55,60,-198
320522824,0.126953125,0.29486083984375,-0.36590576171875,-0.87359619140625,-216,1137,3911,61,68,-205
320532808,0.10675048828125,0.3118896484375,-0.36395263671875,-0.87115478515625,-211,1619,3855,66,76,-200
320542795,0.08807373046875,0.328857421875,-0.36285400390625,-0.867431640625,-219,2174,3764,69,84,-186
320552784,0.07177734375,0.3455810546875,-0.362548828125,-0.862548828125,-346,2844,3701,69,91,-166
320562766,0.05780029296875,0.36212158203125,-0.36279296875,-0.856689453125,-711,3536,3632,67,98,-149
320572749,0.0455322265625,0.37872314453125,-0.36322021484375,-0.85009765625,-1294,4155,3503,64,104,-136
320582733,0.03436279296875,0.39544677734375,-0.36334228515625,-0.8428955078125,-1952,4625,3312,59,108,-130
320592708,0.02349853515625,0.41253662109375,-0.36279296875,-0.83526611328125,-2658,4978,3057,54,110,-132
320602693,0.01226806640625,0.42999267578125,-0.361328125,-0.8272705078125,-3432,5260,2747,49,112,-138
320612676,0.000732421875,0.4478759765625,-0.35888671875,-0.8189697265625,-4128,5487,2424,44,113,-144
320622657,-0.01055908203125,0.46563720703125,-0.35565185546875,-0.81036376953125,-4698,5777,2097,38,114,-145
320632641,-0.02099609375,0.4830322265625,-0.35186767578125,-0.801513671875,-5229,6214,1831,31,114,-142
320642624,-0.0301513671875,0.4998779296875,-0.34771728515625,-0.79266357421875,-5827,6761,1696,22,114,-135
320652606,-0.03778076171875,0.51593017578125,-0.34295654296875,-0.78411865234375,-6441,7173,1621,13,113,-126
320662590,-0.0440673828125,0.53125,-0.3375244140625,-0.77581787109375,-6984,7294,1500,3,110,-118
320672567,-0.04925537109375,0.5460205078125,-0.3314208984375,-0.76788330078125,-7402,7138,1313,-6,107,-111
320682549,-0.0537109375,0.56024169921875,-0.3245849609375,-0.76019287109375,-7709,6740,1087,-13,104,-106
320692530,-0.05780029296875,0.573974609375,-0.3170166015625,-0.7528076171875,-7971,6194,898,-19,101,-104
320702514,-0.06158447265625,0.58721923828125,-0.308837890625,-0.74566650390625,-8328,5626,721,-23,97,-101
320712498,-0.065185546875,0.59979248046875,-0.30029296875,-0.73883056640625,-8818,5110,579,-27,91,-97
320722479,-0.06842041015625,0.6114501953125,-0.2916259765625,-0.732421875,-9438,4760,458,-29,84,-92
320732461,-0.071044921875,0.6219482421875,-0.283203125,-0.72662353515625,-10025,4444,346,-32,75,-84
320742449,-0.072998046875,0.63116455078125,-0.2750244140625,-0.7215576171875,-10458,4125,302,-34,66,-74
320752434,-0.074462890625,0.63916015625,-0.2672119140625,-0.71734619140625,-10737,3710,297,-35,57,-65
320762417,-0.0753173828125,0.64581298828125,-0.25982666015625,-0.7139892578125,-10984,3312,339,-36,48,-54
320772400,-0.0755615234375,0.65118408203125,-0.253173828125,-0.71142578125,-11210,2975,398,-36,38,-43
320782378,-0.07513427734375,0.65521240234375,-0.24749755859375,-0.70977783203125,-11365,2626,458,-34,28,-30
320792360,-0.07427978515625,0.65802001953125,-0.24261474609375,-0.708984375,-11412,2166,510,-33,19,-19
320802341,-0.0733642578125,0.65997314453125,-0.23834228515625,-0.708740234375,-11321,1593,483,-30,11,-12
320812325,-0.07293701171875,0.6612548828125,-0.23419189453125,-0.70892333984375,-11089,948,441,-27,3,-11
320822304,-0.07318115234375,0.6619873046875,-0.230224609375,-0.70953369140625,-10723,347,398,-22,-3,-11
320832284,-0.07403564453125,0.6622314453125,-0.2265625,-0.71038818359375,-10310,-96,381,-17,-9,-11
320842267,-0.07537841796875,0.66192626953125,-0.22332763671875,-0.7115478515625,-9934,-385,398,-12,-13,-13
320852256,-0.07720947265625,0.66119384765625,-0.22039794921875,-0.71295166015625,-9593,-566,415,-8,-18,-13
320862239,-0.0794677734375,0.6600341796875,-0.21795654296875,-0.7144775390625,-9269,-654,441,-3,-21,-13
320872227,-0.0821533203125,0.6585693359375,-0.21588134765625,-0.71624755859375,-8962,-702,471,1,-25,-14
320882207,-0.08526611328125,0.65673828125,-0.214111328125,-0.71807861328125,-8711,-696,506,5,-28,-15
320892188,-0.08868408203125,0.6546630859375,-0.21270751953125,-0.719970703125,-8528,-668,492,10,-30,-14
320902179,-0.09210205078125,0.65228271484375,-0.21197509765625,-0.72186279296875,-8378,-588,478,13,-32,-11
320912163,-0.095458984375,0.649658203125,-0.21173095703125,-0.723876953125,-8209,-491,487,16,-34,-8
320922139,-0.09906005859375,0.64678955078125,-0.21185302734375,-0.72589111328125,-8066,-325,495,19,-35,-9
320932114,-0.1029052734375,0.64385986328125,-0.21221923828125,-0.7279052734375,-7999,-74,534,22,-35,-11
320942098,-0.10687255859375,0.64080810546875,-0.212890625,-0.72979736328125,-8009,186,534,25,-35,-12
320952081,-0.11090087890625,0.63775634765625,-0.21380615234375,-0.73162841796875,-8030,427,511,26,-36,-10
320962065,-0.11474609375,0.6346435546875,-0.2149658203125,-0.7333984375,-8054,665,495,27,-35,-9
320972051,-0.1185302734375,0.63153076171875,-0.2164306640625,-0.73504638671875,-8066,878,480,28,-35,-8
320982029,-0.122314453125,0.62841796875,-0.2178955078125,-0.7366943359375,-8069,1032,488,28,-34,-10
320992011,-0.12640380859375,0.62548828125,-0.2191162109375,-0.73809814453125,-8085,1184,495,28,-33,-14
321001997,-0.13079833984375,0.62274169921875,-0.2200927734375,-0.7393798828125,-8130,1357,500,28,-33,-19
321011983,-0.13555908203125,0.62017822265625,-0.220703125,-0.740478515625,-8187,1520,532,28,-32,-23
321021960,-0.14044189453125,0.61773681640625,-0.2210693359375,-0.74151611328125,-8233,1662,555,27,-30,-26
321031944,-0.14544677734375,0.615478515625,-0.22119140625,-0.74237060546875,-8266,1772,552,26,-30,-29
321041929,-0.1505126953125,0.6134033203125,-0.22113037109375,-0.74310302734375,-8271,1860,569,24,-29,-31
321051911,-0.15533447265625,0.611328125,-0.2208251953125,-0.743896484375,-8298,1928,598,22,-28,-30
321061894,-0.159912109375,0.60931396484375,-0.22052001953125,-0.74468994140625,-8356,1986,650,20,-28,-28
321071878,-0.16400146484375,0.6072998046875,-0.2203369140625,-0.74554443359375,-8396,2016,702,19,-27,-24
321081862,-0.16748046875,0.60516357421875,-0.2203369140625,-0.7464599609375,-8408,2016,745,16,-27,-19
321091845,-0.1702880859375,0.60308837890625,-0.220458984375,-0.7474365234375,-8333,2005,791,14,-25,-15
321101830,-0.17254638671875,0.60107421875,-0.2205810546875,-0.74853515625,-8200,1971,846,11,-24,-11
321111812,-0.17449951171875,0.59918212890625,-0.22064208984375,-0.74957275390625,-8053,1951,896,9,-22,-11
321121795,-0.1761474609375,0.59759521484375,-0.2205810546875,-0.75048828125,-7904,1887,953,7,-19,-10
321131784,-0.1776123046875,0.59613037109375,-0.2203369140625,-0.7513427734375,-7788,1835,1033,4,-17,-10
321141768,-0.17877197265625,0.594970703125,-0.22003173828125,-0.75213623046875,-7695,1796,1111,3,-14,-9
321151749,-0.17962646484375,0.5941162109375,-0.2197265625,-0.752685546875,-7596,1756,1175,1,-10,-7
321161731,-0.17999267578125,0.59344482421875,-0.21942138671875,-0.753173828125,-7494,1731,1235,-2,-8,-5
321171706,-0.18011474609375,0.5931396484375,-0.2191162109375,-0.75347900390625,-7370,1669,1299,-3,-4,-5
321181691,-0.18011474609375,0.59326171875,-0.21856689453125,-0.75360107421875,-7243,1595,1358,-5,0,-6
321191669,-0.1802978515625,0.59375,-0.21771240234375,-0.75335693359375,-7114,1526,1430,-6,4,-10
321201653,-0.18072509765625,0.5947265625,-0.2164306640625,-0.75286865234375,-7029,1488,1516,-7,7,-15
321211635,-0.1812744140625,0.59613037109375,-0.21490478515625,-0.7520751953125,-6967,1443,1567,-8,11,-18
321221618,-0.1817626953125,0.59783935546875,-0.2132568359375,-0.7510986328125,-6909,1393,1618,-10,14,-18
321231602,-0.1820068359375,0.5999755859375,-0.21160888671875,-0.74981689453125,-6850,1346,1635,-11,19,-17
321241585,-0.1820068359375,0.6024169921875,-0.2099609375,-0.748291015625,-6774,1279,1660,-12,22,-17
321251567,-0.1820068359375,0.605224609375,-0.20819091796875,-0.74652099609375,-6671,1194,1665,-13,26,-19
321261550,-0.18218994140625,0.60845947265625,-0.20623779296875,-0.744384765625,-6607,1101,1665,-13,29,-21
321271534,-0.18243408203125,0.61199951171875,-0.2041015625,-0.74200439453125,-6586,1035,1661,-14,32,-24
321281518,-0.18267822265625,0.61590576171875,-0.2020263671875,-0.7392578125,-6605,974,1627,-14,36,-24
321291501,-0.1826171875,0.6199951171875,-0.2000732421875,-0.73638916015625,-6627,916,1604,-14,39,-21
321301482,-0.18212890625,0.6241455078125,-0.19842529296875,-0.73345947265625,-6641,900,1572,-15,41,-18
321311466,-0.1810302734375,0.62841796875,-0.1971435546875,-0.7303466796875,-6666,913,1526,-15,43,-13
321321449,-0.179443359375,0.63275146484375,-0.19622802734375,-0.727294921875,-6710,957,1488,-16,45,-8
321331430,-0.17724609375,0.63714599609375,-0.19573974609375,-0.72412109375,-6788,1010,1437,-17,47,-4
321341423,-0.17449951171875,0.64154052734375,-0.19549560546875,-0.720947265625,-6884,1081,1379,-18,49,0
321351399,-0.17138671875,0.64599609375,-0.1954345703125,-0.71771240234375,-7009,1152,1299,-19,50,3
321361376,-0.16790771484375,0.6505126953125,-0.19549560546875,-0.71441650390625,-7164,1223,1219,-20,51,5
321371363,-0.16412353515625,0.655029296875,-0.19561767578125,-0.711181640625,-7344,1295,1148,-21,51,7
321381350,-0.1600341796875,0.65948486328125,-0.19580078125,-0.7078857421875,-7523,1368,1056,-23,51,10
321391328,-0.1556396484375,0.66387939453125,-0.196044921875,-0.7047119140625,-7726,1458,974,-24,51,11
321401312,-0.15106201171875,0.66815185546875,-0.19622802734375,-0.70166015625,-7935,1546,890,-25,50,12
321411294,-0.146240234375,0.67236328125,-0.19622802734375,-0.6986083984375,-8118,1623,795,-28,49,12
321421276,-0.1414794921875,0.67657470703125,-0.19580078125,-0.69561767578125,-8261,1687,687,-30,48,9
321431258,-0.13702392578125,0.68084716796875,-0.19476318359375,-0.69268798828125,-8381,1710,561,-32,47,3
321441242,-0.13299560546875,0.6851806640625,-0.19293212890625,-0.689697265625,-8497,1681,408,-34,45,-3
321451230,-0.12933349609375,0.68951416015625,-0.1904296875,-0.686767578125,-8640,1614,251,-35,43,-8
321461214,-0.12567138671875,0.6937255859375,-0.1876220703125,-0.6839599609375,-8813,1516,101,-37,41,-8
321471194,-0.12188720703125,0.69775390625,-0.184814453125,-0.6812744140625,-8969,1380,-56,-38,39,-4
321481193,-0.11767578125,0.7015380859375,-0.1822509765625,-0.6788330078125,-9088,1233,-225,-39,37,1
321491173,-0.11322021484375,0.70501708984375,-0.17999267578125,-0.67657470703125,-9182,1057,-380,-39,35,5
321501156,-0.108642578125,0.70831298828125,-0.177978515625,-0.67437744140625,-9265,938,-526,-38,34,8
321511127,-0.10400390625,0.71142578125,-0.1761474609375,-0.67230224609375,-9365,844,-698,-37,32,9
321521109,-0.09942626953125,0.71441650390625,-0.17449951171875,-0.6702880859375,-9459,783,-863,-36,31,10
321531092,-0.094970703125,0.71728515625,-0.1729736328125,-0.66827392578125,-9557,748,-1022,-34,30,10
321541074,-0.09088134765625,0.7200927734375,-0.17138671875,-0.666259765625,-9609,708,-1147,-32,29,8
321551059,-0.08740234375,0.72283935546875,-0.16949462890625,-0.6641845703125,-9620,630,-1260,-30,28,2
321561041,-0.08489990234375,0.7257080078125,-0.1671142578125,-0.6619873046875,-9616,528,-1354,-27,27,-6
321571022,-0.0833740234375,0.72857666015625,-0.16412353515625,-0.6597900390625,-9609,403,-1422,-24,26,-14
321581004,-0.082763671875,0.7314453125,-0.16082763671875,-0.657470703125,-9618,297,-1508,-21,25,-21
321590994,-0.0828857421875,0.7342529296875,-0.15728759765625,-0.65521240234375,-9611,180,-1594,-17,23,-24
321600977,-0.08355712890625,0.7369384765625,-0.15380859375,-0.6529541015625,-9559,70,-1667,-14,21,-27
321610954,-0.08477783203125,0.73944091796875,-0.1502685546875,-0.6507568359375,-9451,-13,-1738,-11,20,-30
321620937,-0.08636474609375,0.7418212890625,-0.1468505859375,-0.64862060546875,-9334,-69,-1775,-8,17,-31
321630925,-0.08837890625,0.74395751953125,-0.14349365234375,-0.64666748046875,-9232,-114,-1789,-5,16,-33
321640908,-0.09063720703125,0.745849609375,-0.14031982421875,-0.64483642578125,-9114,-191,-1793,-2,13,-32
321650894,-0.09307861328125,0.74749755859375,-0.13751220703125,-0.64312744140625,-9011,-264,-1773,1,12,-30
321660877,-0.09564208984375,0.7489013671875,-0.13519287109375,-0.64166259765625,-8917,-334,-1728,4,10,-27
321670856,-0.0980224609375,0.75006103515625,-0.133544921875,-0.64031982421875,-8846,-384,-1686,7,8,-21
321680839,-0.100341796875,0.7508544921875,-0.13262939453125,-0.63916015625,-8770,-402,-1626,10,7,-16
321690822,-0.10247802734375,0.75146484375,-0.13238525390625,-0.63818359375,-8700,-396,-1594,12,5,-12
321700806,-0.10467529296875,0.7518310546875,-0.132568359375,-0.6373291015625,-8603,-375,-1567,15,4,-10
321710789,-0.10711669921875,0.7520751953125,-0.1329345703125,-0.6365966796875,-8497,-352,-1548,18,2,-11
321720771,-0.10992431640625,0.75213623046875,-0.13330078125,-0.635986328125,-8382,-338,-1493,20,0,-12
321730756,-0.11297607421875,0.75201416015625,-0.13372802734375,-0.63543701171875,-8286,-325,-1433,22,-1,-14
321740734,-0.11627197265625,0.75177001953125,-0.13427734375,-0.63507080078125,-8222,-302,-1369,24,-3,-13
321750711,-0.11944580078125,0.751220703125,-0.13531494140625,-0.6348876953125,-8204,-259,-1321,26,-4,-9
321760689,-0.122314453125,0.75042724609375,-0.1370849609375,-0.63494873046875,-8205,-197,-1295,27,-7,-2
321770675,-0.124755859375,0.74932861328125,-0.13946533203125,-0.63525390625,-8208,-115,-1286,29,-8,4
321780654,-0.12701416015625,0.7479248046875,-0.142333984375,-0.63580322265625,-8209,-35,-1265,29,-11,7
321790638,-0.12933349609375,0.74639892578125,-0.145263671875,-0.63641357421875,-8217,8,-1254,31,-12,7
321800621,-0.13189697265625,0.7447509765625,-0.148193359375,-0.63720703125,-8236,32,-1246,31,-14,6
321810604,-0.134521484375,0.74298095703125,-0.151123046875,-0.63800048828125,-8272,66,-1249,32,-15,6
321820587,-0.13714599609375,0.74102783203125,-0.1541748046875,-0.63897705078125,-8335,89,-1246,33,-16,8
321830570,-0.1395263671875,0.7388916015625,-0.15753173828125,-0.64007568359375,-8403,131,-1256,33,-18,11
321840553,-0.1417236328125,0.7366943359375,-0.16107177734375,-0.64129638671875,-8449,157,-1271,33,-19,13
321850542,-0.1441650390625,0.734375,-0.16448974609375,-0.64251708984375,-8466,161,-1262,33,-20,10
321860520,-0.14703369140625,0.7320556640625,-0.16729736328125,-0.643798828125,-8504,186,-1241,33,-21,4
321870508,-0.15045166015625,0.7298583984375,-0.1695556640625,-0.6448974609375,-8552,206,-1244,33,-22,-4
321880483,-0.15435791015625,0.72772216796875,-0.1712646484375,-0.64599609375,-8577,216,-1232,33,-23,-9
321890466,-0.1585693359375,0.72552490234375,-0.172607421875,-0.64703369140625,-8558,224,-1221,33,-23,-12
321900453,-0.16290283203125,0.723388671875,-0.1737060546875,-0.6480712890625,-8513,217,-1190,33,-24,-14
321910433,-0.16717529296875,0.72113037109375,-0.17486572265625,-0.64923095703125,-8455,222,-1158,33,-25,-12
321920424,-0.17120361328125,0.71881103515625,-0.17626953125,-0.650390625,-8406,241,-1140,32,-25,-9
321930407,-0.1748046875,0.71636962890625,-0.17791748046875,-0.65167236328125,-8341,268,-1116,31,-25,-5
321940390,-0.17803955078125,0.71380615234375,-0.1798095703125,-0.65301513671875,-8262,312,-1075,30,-25,-3
321950367,-0.18109130859375,0.71124267578125,-0.1817626953125,-0.65447998046875,-8181,345,-1020,30,-25,-2
321960356,-0.18389892578125,0.7086181640625,-0.18377685546875,-0.656005859375,-8141,365,-967,28,-26,1
321970335,-0.186279296875,0.70587158203125,-0.18609619140625,-0.6575927734375,-8130,371,-904,28,-25,6
321980318,-0.18792724609375,0.70294189453125,-0.189208984375,-0.65936279296875,-8134,399,-835,27,-25,16
321990300,-0.18865966796875,0.69989013671875,-0.1932373046875,-0.6612548828125,-8177,490,-806,27,-24,27
322000286,-0.18829345703125,0.696533203125,-0.19830322265625,-0.66339111328125,-8300,637,-785,27,-23,38
322010268,-0.186767578125,0.69293212890625,-0.20458984375,-0.66571044921875,-8520,858,-779,27,-22,52
322020256,-0.183837890625,0.68902587890625,-0.2122802734375,-0.66815185546875,-8873,1163,-819,27,-21,68
322030239,-0.179443359375,0.6846923828125,-0.22137451171875,-0.6707763671875,-9284,1541,-885,27,-20,82
322040223,-0.17425537109375,0.6802978515625,-0.23126220703125,-0.67333984375,-9755,1994,-1003,27,-18,88
322050205,-0.16876220703125,0.67584228515625,-0.2413330078125,-0.6756591796875,-10314,2531,-1165,26,-17,86
322060195,-0.16339111328125,0.671630859375,-0.2509765625,-0.67767333984375,-10853,3013,-1362,25,-17,81
322070182,-0.15863037109375,0.6676025390625,-0.2598876953125,-0.67938232421875,-11191,3324,-1555,23,-17,73
322080173,-0.15478515625,0.66400146484375,-0.2677001953125,-0.6807861328125,-11252,3433,-1682,23,-17,61
322090145,-0.1524658203125,0.66094970703125,-0.27398681640625,-0.6817626953125,-11057,3395,-1791,23,-17,43
322100122,-0.1522216796875,0.65875244140625,-0.2783203125,-0.6822509765625,-10712,3302,-1872,23,-17,19
322110105,-0.1541748046875,0.65740966796875,-0.28057861328125,-0.68212890625,-10206,3126,-1881,24,-16,-7
322120083,-0.15826416015625,0.65692138671875,-0.281005859375,-0.6815185546875,-9643,2891,-1866,25,-15,-29
322130065,-0.16351318359375,0.65692138671875,-0.28033447265625,-0.6805419921875,-9070,2590,-1805,26,-14,-39
322140051,-0.16888427734375,0.65692138671875,-0.27978515625,-0.67950439453125,-8471,2230,-1721,27,-13,-34
322150031,-0.1732177734375,0.65643310546875,-0.2802734375,-0.67864990234375,-7811,1875,-1595,28,-12,-18
322160022,-0.17596435546875,0.6552734375,-0.2823486328125,-0.67816162109375,-7096,1563,-1439,28,-12,3
322169998,-0.17718505859375,0.65350341796875,-0.285888671875,-0.6781005859375,-6371,1322,-1259,28,-11,20
322179988,-0.17724609375,0.6512451171875,-0.2904052734375,-0.6783447265625,-5700,1110,-1060,27,-10,32
322189966,-0.1763916015625,0.648681640625,-0.2955322265625,-0.6788330078125,-5088,908,-845,26,-9,41
322199950,-0.1748046875,0.64581298828125,-0.301025390625,-0.6795654296875,-4475,669,-613,24,-9,49
322209934,-0.172607421875,0.64263916015625,-0.3067626953125,-0.6805419921875,-3838,317,-316,22,-8,56
322219918,-0.16973876953125,0.63922119140625,-0.3126220703125,-0.68182373046875,-3206,-107,66,19,-8,65
322229901,-0.166015625,0.6353759765625,-0.31878662109375,-0.68353271484375,-2568,-452,580,16,-6,73
322239884,-0.1614990234375,0.63128662109375,-0.32489013671875,-0.68548583984375,-1899,-856,1131,12,-4,78
322249868,-0.1566162109375,0.62744140625,-0.3304443359375,-0.68743896484375,-1216,-1247,1633,7,0,76
322259848,-0.151611328125,0.6243896484375,-0.33514404296875,-0.6890869140625,-651,-1596,1962,2,6,69
322269826,-0.14697265625,0.622314453125,-0.3388671875,-0.690185546875,-112,-2053,2155,-1,12,60
322279805,-0.1429443359375,0.6212158203125,-0.34173583984375,-0.6905517578125,313,-2583,2216,-2,17,51
322289787,-0.1392822265625,0.62103271484375,-0.34423828125,-0.69024658203125,555,-2912,2157,-1,23,45
322299773,-0.1356201171875,0.621337890625,-0.346923828125,-0.68939208984375,591,-3124,1993,0,27,46
322309763,-0.131591796875,0.62200927734375,-0.35015869140625,-0.6878662109375,464,-3213,1844,3,33,49
322319745,-0.127197265625,0.62286376953125,-0.354248046875,-0.68585205078125,22,-3024,1674,8,39,54
322329735,-0.12200927734375,0.623779296875,-0.359619140625,-0.68316650390625,-845,-2443,1316,12,43,62
322339710,-0.11572265625,0.62445068359375,-0.36669921875,-0.67987060546875,-2234,-1399,784,17,47,75
322349693,-0.10760498046875,0.624267578125,-0.376220703125,-0.67620849609375,-4246,171,86,22,48,97
322359676,-0.0965576171875,0.622314453125,-0.3890380859375,-0.67236328125,-6749,2189,-777,26,48,135
322369659,-0.08154296875,0.61785888671875,-0.40594482421875,-0.66851806640625,-9264,4400,-1789,29,46,185
322379642,-0.0625,0.61016845703125,-0.4266357421875,-0.6646728515625,-11152,6709,-2864,30,41,231
322389626,-0.04132080078125,0.6002197265625,-0.44903564453125,-0.66064453125,-12540,9111,-3939,28,35,246
322399607,-0.0211181640625,0.58990478515625,-0.47003173828125,-0.65625,-13559,11040,-4986,24,30,225
322409590,-0.0042724609375,0.58111572265625,-0.48724365234375,-0.65185546875,-14309,12457,-5864,17,23,184
322419573,0.00848388671875,0.57452392578125,-0.49981689453125,-0.64813232421875,-14859,13498,-6414,8,18,133
322429552,0.0167236328125,0.5709228515625,-0.50701904296875,-0.6455078125,-15053,14263,-6664,-2,13,72
322439532,0.02056884765625,0.57061767578125,-0.509033203125,-0.64410400390625,-14501,14731,-6520,-12,10,6
322449514,0.0198974609375,0.57373046875,-0.50579833984375,-0.6439208984375,-13818,14470,-6101,-19,7,-57
322459495,0.0147705078125,0.58013916015625,-0.49774169921875,-0.64459228515625,-12900,13475,-5366,-25,5,-110
322469478,0.0064697265625,0.58856201171875,-0.486083984375,-0.64599609375,-11850,12101,-4456,-28,3,-145
322479461,-0.00335693359375,0.59765625,-0.472412109375,-0.64776611328125,-10731,10488,-3446,-32,2,-158
322489449,-0.01300048828125,0.606201171875,-0.45831298828125,-0.64990234375,-9553,8660,-2378,-34,0,-149
322499437,-0.02117919921875,0.6131591796875,-0.44500732421875,-0.65234375,-8247,6676,-1272,-37,-1,-125
322509416,-0.0272216796875,0.6182861328125,-0.43328857421875,-0.65521240234375,-6840,4665,-208,-39,-2,-94
322519399,-0.0311279296875,0.62176513671875,-0.42333984375,-0.658203125,-5407,2769,741,-41,-2,-67
322529376,-0.0333251953125,0.6240234375,-0.41485595703125,-0.661376953125,-4017,1106,1550,-40,-2,-47
322539359,-0.03460693359375,0.6256103515625,-0.40740966796875,-0.6644287109375,-2771,-283,2187,-39,-1,-36
322549350,-0.035400390625,0.62689208984375,-0.4007568359375,-0.667236328125,-1783,-1387,2655,-36,1,-28
322559324,-0.03582763671875,0.62786865234375,-0.39508056640625,-0.669677734375,-1090,-2174,2897,-30,3,-19
322569307,-0.035888671875,0.628662109375,-0.39093017578125,-0.67132568359375,-882,-2486,2876,-21,5,-8
322579294,-0.03521728515625,0.62908935546875,-0.38897705078125,-0.672119140625,-1201,-2241,2611,-11,9,7
322589272,-0.03338623046875,0.62896728515625,-0.3895263671875,-0.6719970703125,-2043,-1568,2182,-2,13,26
322599263,-0.0302734375,0.628173828125,-0.39263916015625,-0.67108154296875,-3226,-582,1649,8,15,46
322609240,-0.0260009765625,0.62664794921875,-0.3980712890625,-0.66949462890625,-4569,645,1062,15,17,64
322619234,-0.02093505859375,0.62445068359375,-0.4051513671875,-0.66741943359375,-5930,2038,403,21,17,74
322629216,-0.015625,0.62188720703125,-0.4129638671875,-0.6651611328125,-7163,3498,-258,23,14,75
322639195,-0.0106201171875,0.6192626953125,-0.42059326171875,-0.6629638671875,-8185,4870,-907,22,11,68
322649188,-0.0064697265625,0.61688232421875,-0.42718505859375,-0.6610107421875,-8954,6038,-1455,18,6,54
322659173,-0.00384521484375,0.615234375,-0.43182373046875,-0.6595458984375,-9431,6888,-1849,13,2,31
322669153,-0.0030517578125,0.614501953125,-0.43402099609375,-0.6588134765625,-9661,7419,-2040,7,-2,6
322679120,-0.00408935546875,0.61468505859375,-0.433837890625,-0.65875244140625,-9702,7668,-2077,2,-6,-19
322689103,-0.006591796875,0.61553955078125,-0.43170166015625,-0.65936279296875,-9584,7705,-1977,-3,-10,-36
322699083,-0.00970458984375,0.616455078125,-0.42840576171875,-0.66058349609375,-9347,7566,-1816,-7,-14,-43
322709066,-0.01263427734375,0.61712646484375,-0.4248046875,-0.66229248046875,-9026,7289,-1603,-11,-17,-40
322719051,-0.01495361328125,0.61712646484375,-0.42138671875,-0.66436767578125,-8639,6884,-1374,-14,-19,-31
322729033,-0.01629638671875,0.616455078125,-0.41851806640625,-0.66680908203125,-8226,6420,-1116,-16,-20,-19
322739012,-0.0167236328125,0.61505126953125,-0.4163818359375,-0.66943359375,-7796,5954,-863,-17,-21,-8
322748996,-0.0164794921875,0.61328125,-0.41473388671875,-0.67205810546875,-7359,5523,-639,-18,-21,-1
322758991,-0.01611328125,0.61138916015625,-0.41314697265625,-0.67474365234375,-6920,5116,-428,-18,-20,-1
322768963,-0.0159912109375,0.6097412109375,-0.41143798828125,-0.67724609375,-6532,4751,-240,-17,-19,-5
322778944,-0.016357421875,0.6085205078125,-0.4093017578125,-0.67962646484375,-6185,4433,-88,-16,-18,-11
322788927,-0.01702880859375,0.60760498046875,-0.406982421875,-0.681884765625,-5902,4196,21,-15,-16,-14
322798910,-0.01788330078125,0.60693359375,-0.404541015625,-0.683837890625,-5725,4018,93,-15,-14,-15
322808892,-0.0184326171875,0.6063232421875,-0.40234375,-0.6856689453125,-5624,3866,121,-14,-13,-12
322818877,-0.01861572265625,0.605712890625,-0.40057373046875,-0.687255859375,-5579,3756,126,-13,-10,-7
322828865,-0.01824951171875,0.60498046875,-0.39935302734375,-0.6885986328125,-5597,3684,102,-12,-8,0
322838843,-0.017333984375,0.60418701171875,-0.398681640625,-0.68975830078125,-5656,3656,53,-11,-6,6
322848825,-0.01593017578125,0.603271484375,-0.3985595703125,-0.69061279296875,-5749,3692,-4,-10,-4,11
322858809,-0.01409912109375,0.60235595703125,-0.39892578125,-0.6912841796875,-5864,3773,-64,-9,-2,16
322868798,-0.011962890625,0.60137939453125,-0.3995361328125,-0.6917724609375,-5986,3881,-114,-8,0,18
322878773,-0.00970458984375,0.60052490234375,-0.400390625,-0.69207763671875,-6116,4009,-169,-8,1,19
322888765,-0.0074462890625,0.59991455078125,-0.4012451171875,-0.69219970703125,-6237,4128,-217,-7,3,18
322898747,-0.00543212890625,0.5994873046875,-0.4019775390625,-0.692138671875,-6367,4259,-258,-6,4,14
322908731,-0.00384521484375,0.59942626953125,-0.4024658203125,-0.69195556640625,-6512,4378,-296,-5,5,9
322918709,-0.002685546875,0.599609375,-0.40264892578125,-0.691650390625,-6659,4500,-337,-4,6,5
322928691,-0.001953125,0.60009765625,-0.40264892578125,-0.69122314453125,-6801,4619,-395,-3,6,1
322938674,-0.00152587890625,0.60076904296875,-0.4024658203125,-0.69073486328125,-6953,4724,-458,-2,6,-3
322948655,-0.0013427734375,0.60162353515625,-0.402099609375,-0.69024658203125,-7065,4819,-517,-2,7,-5
322958638,-0.0013427734375,0.60247802734375,-0.40167236328125,-0.689697265625,-7132,4875,-570,-2,6,-6
322968621,-0.00140380859375,0.60345458984375,-0.40106201171875,-0.689208984375,-7170,4911,-614,-2,6,-8
322978604,-0.00164794921875,0.60443115234375,-0.40032958984375,-0.68878173828125,-7178,4907,-622,-3,6,-10
322988586,-0.00201416015625,0.60546875,-0.3994140625,-0.68841552734375,-7154,4865,-613,-3,5,-11
322998570,-0.0025634765625,0.60650634765625,-0.39837646484375,-0.68804931640625,-7122,4818,-597,-3,5,-13
323008552,-0.00311279296875,0.6075439453125,-0.39715576171875,-0.6878662109375,-7097,4755,-577,-4,4,-13
323018535,-0.00372314453125,0.60858154296875,-0.39599609375,-0.6876220703125,-7073,4681,-552,-3,4,-13
323028519,-0.00421142578125,0.60943603515625,-0.3948974609375,-0.6875,-7051,4616,-535,-4,3,-11
323038502,-0.0045166015625,0.61016845703125,-0.39398193359375,-0.6873779296875,-7024,4553,-534,-4,3,-8
323048486,-0.00457763671875,0.6107177734375,-0.393310546875,-0.687255859375,-7008,4475,-514,-4,3,-5
323058471,-0.00433349609375,0.611083984375,-0.39276123046875,-0.687255859375,-6971,4405,-482,-4,2,-2
323068460,-0.00396728515625,0.611328125,-0.39239501953125,-0.687255859375,-6937,4330,-468,-4,2,0
323078435,-0.00360107421875,0.611572265625,-0.39208984375,-0.687255859375,-6894,4260,-459,-4,2,0
323088427,-0.003173828125,0.6116943359375,-0.3917236328125,-0.687255859375,-6873,4206,-449,-4,2,0
323098409,-0.00286865234375,0.61187744140625,-0.39141845703125,-0.68731689453125,-6873,4184,-429,-4,2,0
323108392,-0.0025634765625,0.612060546875,-0.39111328125,-0.68731689453125,-6890,4181,-431,-4,2,0
323118368,-0.002197265625,0.61224365234375,-0.390869140625,-0.68731689453125,-6918,4198,-433,-4,2,1
323128352,-0.00177001953125,0.61236572265625,-0.39068603515625,-0.68731689453125,-6940,4208,-423,-4,1,2
323138334,-0.00128173828125,0.61236572265625,-0.39056396484375,-0.6873779296875,-6962,4212,-422,-4,1,3
323148318,-0.000732421875,0.6124267578125,-0.39044189453125,-0.6873779296875,-6978,4228,-420,-4,1,3
323158300,-0.00018310546875,0.6124267578125,-0.39031982421875,-0.68743896484375,-6978,4253,-420,-4,1,2
323168285,0.000244140625,0.61248779296875,-0.39007568359375,-0.68756103515625,-6989,4267,-436,-4,1,0
323178270,0.00054931640625,0.6126708984375,-0.3896484375,-0.6876220703125,-7002,4275,-437,-4,1,-1
323188245,0.00067138671875,0.6129150390625,-0.38916015625,-0.68768310546875,-6990,4284,-441,-4,1,-3
323198236,0.00067138671875,0.6131591796875,-0.3885498046875,-0.68780517578125,-6969,4296,-434,-4,1,-4
323208221,0.00067138671875,0.61346435546875,-0.387939453125,-0.6878662109375,-6967,4293,-428,-4,1,-4
323218205,0.00067138671875,0.61370849609375,-0.3873291015625,-0.68804931640625,-6976,4302,-417,-4,0,-4
323228187,0.000732421875,0.6138916015625,-0.38677978515625,-0.68817138671875,-6984,4304,-428,-4,0,-3
323238177,0.00091552734375,0.614013671875,-0.38641357421875,-0.68829345703125,-7010,4307,-431,-4,0,-1
323248173,0.0010986328125,0.614013671875,-0.38604736328125,-0.6884765625,-7016,4304,-420,-4,-1,0
323258131,0.00128173828125,0.61395263671875,-0.38580322265625,-0.68865966796875,-7023,4300,-397,-3,-1,0
323268115,0.00146484375,0.61383056640625,-0.3856201171875,-0.6888427734375,-7039,4305,-383,-3,-2,1
323278094,0.0015869140625,0.61370849609375,-0.38555908203125,-0.68902587890625,-7041,4305,-380,-2,-2,1
323288077,0.00164794921875,0.61346435546875,-0.3856201171875,-0.689208984375,-7041,4293,-365,-1,-2,2
323298064,0.00164794921875,0.6131591796875,-0.3857421875,-0.68939208984375,-7044,4288,-349,0,-2,2
323308051,0.00164794921875,0.6129150390625,-0.38592529296875,-0.68951416015625,-7021,4289,-329,1,-3,2
323318027,0.00146484375,0.61260986328125,-0.3861083984375,-0.689697265625,-6998,4313,-296,2,-3,0
323328015,0.0010986328125,0.61236572265625,-0.38629150390625,-0.68975830078125,-6982,4318,-275,3,-3,-1
323337995,0.0006103515625,0.6121826171875,-0.38641357421875,-0.68988037109375,-6958,4346,-247,3,-3,-3
323347980,6.103515625e-05,0.61212158203125,-0.38653564453125,-0.68988037109375,-6943,4377,-243,4,-2,-3
323357958,-0.00048828125,0.61199951171875,-0.38665771484375,-0.68988037109375,-6946,4405,-230,3,-2,-3
323367942,-0.00103759765625,0.6119384765625,-0.3868408203125,-0.68988037109375,-6943,4422,-232,3,-2,-3
323377923,-0.00152587890625,0.61181640625,-0.38702392578125,-0.68988037109375,-6931,4429,-237,3,-2,-2
323387905,-0.00189208984375,0.6116943359375,-0.38726806640625,-0.68988037109375,-6914,4442,-244,3,-2,-1
323397894,-0.0020751953125,0.61151123046875,-0.3875732421875,-0.6898193359375,-6908,4453,-271,3,-2,0
323407877,-0.002197265625,0.61138916015625,-0.38787841796875,-0.68975830078125,-6910,4447,-305,2,-1,1
323417857,-0.00225830078125,0.61126708984375,-0.38824462890625,-0.689697265625,-6912,4453,-350,2,-1,1
323427839,-0.00225830078125,0.611083984375,-0.3885498046875,-0.68963623046875,-6915,4463,-366,2,-1,1
323437829,-0.002197265625,0.61102294921875,-0.38897705078125,-0.68951416015625,-6928,4458,-414,2,0,2
323447807,-0.00213623046875,0.6109619140625,-0.3892822265625,-0.6893310546875,-6932,4468,-451,2,0,2
