subject,Two-hands and jerked
arm,neither
label,0
hz,100.1702158475163
time,5.440739

timestamp_us,q0,q1,q2,q3,ax,ay,az,gx,gy,gz
213555479,0.53790283203125,0.08905029296875,-0.5850830078125,-0.60040283203125,2811,6253,2649,4,-2,0
213565455,0.53741455078125,0.0894775390625,-0.58538818359375,-0.6004638671875,2794,6208,2641,4,-5,-1
213575434,0.53662109375,0.0897216796875,-0.58587646484375,-0.60064697265625,2803,6173,2654,5,-8,-2
213585424,0.53558349609375,0.08978271484375,-0.58660888671875,-0.600830078125,2870,6197,2642,5,-12,-3
213595411,0.5343017578125,0.089599609375,-0.587646484375,-0.60101318359375,2991,6244,2627,4,-14,-3
213605393,0.5328369140625,0.08929443359375,-0.5887451171875,-0.60125732421875,3140,6308,2628,4,-16,-4
213615369,0.5311279296875,0.08880615234375,-0.5899658203125,-0.60162353515625,3287,6388,2636,4,-19,-6
213625352,0.5291748046875,0.08831787109375,-0.59130859375,-0.6021728515625,3424,6449,2647,4,-20,-8
213635334,0.5269775390625,0.0877685546875,-0.59259033203125,-0.60284423828125,3549,6485,2664,3,-21,-10
213645318,0.52459716796875,0.08740234375,-0.5938720703125,-0.603759765625,3643,6504,2677,3,-22,-13
213655302,0.52197265625,0.0870361328125,-0.5950927734375,-0.6048583984375,3728,6498,2679,2,-22,-15
213665283,0.519287109375,0.08673095703125,-0.59637451171875,-0.60595703125,3850,6501,2658,2,-23,-16
213675267,0.5166015625,0.08636474609375,-0.59765625,-0.6070556640625,3949,6530,2625,2,-22,-16
213685256,0.5140380859375,0.08587646484375,-0.59893798828125,-0.6080322265625,4018,6554,2597,2,-22,-14
213695238,0.5115966796875,0.0853271484375,-0.6002197265625,-0.60888671875,4080,6568,2588,3,-22,-13
213705222,0.50927734375,0.08465576171875,-0.6015625,-0.609619140625,4121,6575,2559,3,-22,-12
213715207,0.5069580078125,0.083984375,-0.6029052734375,-0.6103515625,4178,6598,2516,3,-22,-11
213725194,0.50469970703125,0.08331298828125,-0.60430908203125,-0.61090087890625,4208,6663,2472,3,-22,-10
213735177,0.50238037109375,0.0826416015625,-0.605712890625,-0.61151123046875,4228,6735,2419,3,-22,-10
213745160,0.5001220703125,0.08197021484375,-0.60711669921875,-0.612060546875,4226,6810,2374,3,-22,-10
213755129,0.497802734375,0.08123779296875,-0.6085205078125,-0.6126708984375,4209,6857,2297,2,-22,-10
213765113,0.495361328125,0.08062744140625,-0.60992431640625,-0.61334228515625,4179,6892,2224,2,-22,-11
213775098,0.49285888671875,0.0799560546875,-0.61126708984375,-0.61407470703125,4147,6911,2164,1,-23,-11
213785078,0.49029541015625,0.07916259765625,-0.6126708984375,-0.6148681640625,4140,6925,2119,1,-24,-11
213795059,0.4876708984375,0.07830810546875,-0.614013671875,-0.61566162109375,4138,6937,2106,1,-24,-11
213805043,0.48492431640625,0.077392578125,-0.615478515625,-0.61651611328125,4151,6929,2081,1,-26,-13
213815029,0.48199462890625,0.07666015625,-0.61700439453125,-0.61737060546875,4173,6905,2018,3,-26,-15
213825011,0.47882080078125,0.076171875,-0.61871337890625,-0.6181640625,4182,6878,1906,4,-26,-17
213834995,0.47540283203125,0.075927734375,-0.6207275390625,-0.61883544921875,4193,6865,1757,7,-26,-19
213844985,0.471923828125,0.075927734375,-0.62286376953125,-0.61932373046875,4194,6865,1589,10,-25,-19
213854963,0.468505859375,0.076171875,-0.62530517578125,-0.6195068359375,4207,6912,1383,12,-25,-19
213864948,0.46514892578125,0.07647705078125,-0.6279296875,-0.61932373046875,4237,7005,1178,14,-24,-17
213874930,0.46197509765625,0.07666015625,-0.63055419921875,-0.61895751953125,4265,7120,1011,14,-23,-15
213884914,0.45892333984375,0.076904296875,-0.6331787109375,-0.6185302734375,4289,7262,890,14,-22,-13
213894895,0.45599365234375,0.0771484375,-0.63555908203125,-0.61822509765625,4301,7386,817,12,-21,-14
213904880,0.453125,0.07745361328125,-0.63775634765625,-0.6180419921875,4303,7471,788,11,-20,-15
213914862,0.4503173828125,0.077880859375,-0.63958740234375,-0.61810302734375,4272,7494,804,9,-19,-16
213924844,0.4476318359375,0.07818603515625,-0.64117431640625,-0.618408203125,4259,7503,856,6,-18,-16
213934828,0.4451904296875,0.07818603515625,-0.6424560546875,-0.61883544921875,4248,7516,926,3,-18,-13
213944809,0.44293212890625,0.077880859375,-0.64349365234375,-0.61944580078125,4195,7512,1006,1,-18,-11
213954793,0.44091796875,0.07708740234375,-0.64434814453125,-0.62005615234375,4135,7487,1125,-2,-20,-7
213964770,0.43914794921875,0.0755615234375,-0.64508056640625,-0.62078857421875,4103,7437,1261,-5,-22,-2
213974762,0.4375,0.073486328125,-0.64569091796875,-0.62152099609375,4135,7357,1396,-7,-24,-1
213984744,0.43572998046875,0.07135009765625,-0.646240234375,-0.62249755859375,4185,7246,1481,-8,-24,-4
213994723,0.43365478515625,0.06939697265625,-0.64666748046875,-0.62371826171875,4310,7101,1541,-9,-24,-8
214004704,0.43145751953125,0.06744384765625,-0.6470947265625,-0.625,4453,6949,1547,-9,-25,-10
214014688,0.4290771484375,0.0655517578125,-0.647705078125,-0.626220703125,4624,6853,1509,-8,-25,-11
214024672,0.42669677734375,0.06378173828125,-0.6483154296875,-0.62738037109375,4771,6811,1509,-7,-25,-12
214034653,0.42437744140625,0.0621337890625,-0.6490478515625,-0.62835693359375,4857,6798,1519,-5,-23,-12
214044636,0.4222412109375,0.0606689453125,-0.6497802734375,-0.62921142578125,4876,6762,1475,-4,-22,-11
214054620,0.420166015625,0.0594482421875,-0.65057373046875,-0.62982177734375,4848,6697,1384,-2,-20,-11
214064603,0.418212890625,0.05853271484375,-0.65142822265625,-0.63037109375,4771,6651,1308,-1,-17,-11
214074590,0.41644287109375,0.05780029296875,-0.65228271484375,-0.6307373046875,4705,6603,1216,0,-16,-10
214084570,0.4149169921875,0.05718994140625,-0.65313720703125,-0.630859375,4600,6546,1124,2,-14,-8
214094554,0.41363525390625,0.056640625,-0.654052734375,-0.63079833984375,4482,6496,1038,3,-12,-6
214104542,0.41259765625,0.0562744140625,-0.65496826171875,-0.63055419921875,4366,6419,961,5,-10,-4
214114520,0.41192626953125,0.05584716796875,-0.656005859375,-0.6300048828125,4285,6380,861,6,-8,-1
214124507,0.41156005859375,0.05523681640625,-0.65716552734375,-0.62908935546875,4217,6373,707,7,-7,3
214134488,0.41156005859375,0.0546875,-0.65838623046875,-0.62786865234375,4116,6360,541,8,-6,6
214144469,0.4114990234375,0.05438232421875,-0.65966796875,-0.62652587890625,4008,6355,438,10,-4,4
214154456,0.41107177734375,0.0546875,-0.6610107421875,-0.62542724609375,3847,6329,366,11,-4,-2
214164431,0.41015625,0.0556640625,-0.662353515625,-0.62451171875,3631,6264,304,14,-4,-8
214174424,0.408447265625,0.05731201171875,-0.6639404296875,-0.623779296875,3390,6186,203,16,-5,-16
214184409,0.4058837890625,0.0596923828125,-0.665771484375,-0.623291015625,3127,6126,84,18,-8,-24
214194394,0.40234375,0.062744140625,-0.66790771484375,-0.62298583984375,2828,6081,-50,22,-10,-31
214204371,0.398193359375,0.06610107421875,-0.6705322265625,-0.62255859375,2505,6038,-213,25,-14,-34
214214357,0.39337158203125,0.0697021484375,-0.673583984375,-0.62188720703125,2181,6007,-412,30,-17,-36
214224339,0.3880615234375,0.0733642578125,-0.67724609375,-0.620849609375,1895,6039,-632,34,-21,-36
214234323,0.38226318359375,0.0767822265625,-0.681396484375,-0.61944580078125,1646,6147,-824,38,-26,-35
214244306,0.37603759765625,0.0799560546875,-0.68603515625,-0.61773681640625,1402,6325,-962,41,-31,-33
214254293,0.36944580078125,0.082763671875,-0.69110107421875,-0.61572265625,1233,6551,-1033,45,-37,-31
214264272,0.36248779296875,0.0853271484375,-0.69647216796875,-0.61346435546875,1111,6797,-1041,48,-41,-31
214274256,0.35504150390625,0.08758544921875,-0.7020263671875,-0.611083984375,1021,7032,-996,50,-46,-31
214284243,0.3472900390625,0.08966064453125,-0.70770263671875,-0.6087646484375,959,7277,-901,50,-50,-31
214294227,0.33929443359375,0.09149169921875,-0.71331787109375,-0.6064453125,925,7583,-828,51,-52,-31
214304209,0.3310546875,0.09295654296875,-0.71893310546875,-0.6041259765625,957,7974,-777,50,-55,-29
214314189,0.32293701171875,0.09405517578125,-0.724365234375,-0.601806640625,1041,8455,-720,48,-56,-27
214324182,0.31512451171875,0.09454345703125,-0.7294921875,-0.5997314453125,1116,8956,-575,45,-56,-23
214334165,0.3076171875,0.09466552734375,-0.7340087890625,-0.5980224609375,1149,9444,-336,41,-56,-20
214344142,0.30035400390625,0.0946044921875,-0.73785400390625,-0.5970458984375,1116,9898,-49,35,-54,-20
214354119,0.29315185546875,0.0946044921875,-0.74102783203125,-0.59674072265625,1072,10328,227,29,-53,-23
214364103,0.2857666015625,0.09490966796875,-0.74334716796875,-0.59735107421875,1031,10742,480,21,-51,-28
214374085,0.27838134765625,0.0953369140625,-0.74493408203125,-0.5987548828125,961,11159,699,14,-50,-31
214384067,0.27099609375,0.095703125,-0.74578857421875,-0.60101318359375,795,11555,910,6,-49,-31
214394051,0.2637939453125,0.095947265625,-0.745849609375,-0.6041259765625,598,11929,1136,-2,-48,-31
214404029,0.25677490234375,0.09576416015625,-0.7452392578125,-0.60791015625,420,12264,1343,-10,-48,-28
214414012,0.250244140625,0.0948486328125,-0.744140625,-0.61212158203125,282,12548,1544,-16,-48,-22
214423995,0.244140625,0.09320068359375,-0.7425537109375,-0.61676025390625,160,12771,1717,-22,-48,-17
214433983,0.2384033203125,0.09112548828125,-0.74053955078125,-0.6217041015625,37,12930,1866,-27,-48,-14
214443961,0.2327880859375,0.08880615234375,-0.73822021484375,-0.626953125,-55,12971,1960,-32,-48,-14
214453943,0.22698974609375,0.08648681640625,-0.7354736328125,-0.632568359375,-169,12862,2018,-36,-49,-16
214463926,0.22076416015625,0.084228515625,-0.732421875,-0.6385498046875,-319,12530,2090,-41,-50,-22
214473910,0.2139892578125,0.08221435546875,-0.72900390625,-0.64501953125,-368,12033,2197,-44,-53,-27
214483893,0.2069091796875,0.07989501953125,-0.725341796875,-0.6517333984375,-101,11445,2262,-48,-55,-31
214493877,0.20025634765625,0.07684326171875,-0.7215576171875,-0.65838623046875,488,10864,2206,-51,-57,-29
214503859,0.19464111328125,0.07257080078125,-0.7176513671875,-0.664794921875,1309,10296,2027,-55,-56,-21
214513841,0.1905517578125,0.06695556640625,-0.71368408203125,-0.6707763671875,2201,9734,1696,-59,-53,-8
214523828,0.1881103515625,0.06005859375,-0.709716796875,-0.67633056640625,3109,9175,1243,-62,-50,5
214533807,0.1868896484375,0.05230712890625,-0.70587158203125,-0.6812744140625,4066,8639,729,-63,-47,12
214543792,0.18609619140625,0.0440673828125,-0.7022705078125,-0.685791015625,5255,8208,98,-63,-46,10
214553774,0.1854248046875,0.03594970703125,-0.69921875,-0.6895751953125,6797,7945,-774,-60,-44,2
214563767,0.18524169921875,0.0277099609375,-0.69696044921875,-0.6922607421875,8548,7780,-1828,-56,-41,0
214573749,0.186279296875,0.0189208984375,-0.69549560546875,-0.6937255859375,10367,7693,-2947,-51,-34,7
214583731,0.18927001953125,0.0096435546875,-0.69482421875,-0.69384765625,11963,7655,-4080,-44,-25,19
214593710,0.1942138671875,0.00018310546875,-0.69476318359375,-0.69256591796875,13135,7656,-5162,-36,-13,32
214603695,0.20098876953125,-0.0089111328125,-0.6953125,-0.69000244140625,13996,7641,-6102,-28,0,42
214613671,0.2088623046875,-0.01678466796875,-0.69622802734375,-0.68658447265625,14629,7589,-6827,-20,14,42
214623655,0.21728515625,-0.022705078125,-0.69732666015625,-0.68267822265625,15094,7495,-7337,-12,28,34
214633641,0.22601318359375,-0.0264892578125,-0.69854736328125,-0.67852783203125,15328,7341,-7647,-7,42,24
214643622,0.23492431640625,-0.02801513671875,-0.699462890625,-0.67437744140625,15004,7130,-7757,-3,56,18
214653604,0.2440185546875,-0.0274658203125,-0.70001220703125,-0.670654296875,14177,6891,-7712,-1,69,15
214663588,0.25335693359375,-0.0252685546875,-0.7000732421875,-0.66717529296875,12980,6668,-7531,-1,79,16
214673570,0.26318359375,-0.02215576171875,-0.6995849609375,-0.66400146484375,11509,6529,-7282,-1,86,22
214683553,0.27349853515625,-0.01861572265625,-0.6986083984375,-0.66094970703125,9861,6432,-6955,-3,91,31
214693536,0.28424072265625,-0.01513671875,-0.69708251953125,-0.65814208984375,8138,6311,-6516,-5,93,41
214703525,0.295166015625,-0.01153564453125,-0.69500732421875,-0.65557861328125,6327,6188,-5996,-6,95,46
214713507,0.30548095703125,-0.00701904296875,-0.69244384765625,-0.65362548828125,4263,6120,-5313,-7,96,42
214723490,0.3143310546875,-0.00054931640625,-0.689208984375,-0.65283203125,1897,6161,-4438,-7,97,29
214733474,0.32098388671875,0.0086669921875,-0.685546875,-0.6534423828125,-713,6371,-3498,-6,98,9
214743459,0.3253173828125,0.0206298828125,-0.6815185546875,-0.65521240234375,-3514,6729,-2589,-4,96,-6
214753435,0.328125,0.03369140625,-0.67742919921875,-0.6575927734375,-6187,7100,-1801,-3,91,-7
214763431,0.3304443359375,0.0460205078125,-0.6734619140625,-0.65972900390625,-8508,7380,-1172,-2,82,4
214773410,0.33294677734375,0.05670166015625,-0.6697998046875,-0.66131591796875,-10412,7579,-653,-1,71,20
214783397,0.335693359375,0.06524658203125,-0.66668701171875,-0.66229248046875,-11787,7745,-190,0,59,37
214793372,0.33880615234375,0.071533203125,-0.66412353515625,-0.66265869140625,-12435,7921,155,0,47,48
214803357,0.34185791015625,0.0760498046875,-0.6622314453125,-0.66241455078125,-12394,8186,322,1,37,52
214813339,0.34454345703125,0.07952880859375,-0.660888671875,-0.6619873046875,-11884,8488,402,1,30,47
214823321,0.34588623046875,0.08319091796875,-0.65972900390625,-0.66204833984375,-11233,8737,488,0,23,30
214833305,0.34503173828125,0.087890625,-0.65850830078125,-0.66302490234375,-10615,8961,550,-1,16,6
214843283,0.34197998046875,0.09344482421875,-0.6573486328125,-0.6650390625,-10055,9244,530,-2,8,-13
214853261,0.33740234375,0.09912109375,-0.6563720703125,-0.66748046875,-9446,9569,376,-4,1,-22
214863246,0.332275390625,0.10394287109375,-0.65582275390625,-0.669921875,-8636,9886,144,-5,-7,-22
214873234,0.32720947265625,0.1072998046875,-0.65576171875,-0.671875,-7616,10120,-188,-5,-14,-17
214883216,0.32244873046875,0.10919189453125,-0.65643310546875,-0.6732177734375,-6551,10261,-622,-5,-21,-12
214893196,0.3177490234375,0.10992431640625,-0.65771484375,-0.674072265625,-5619,10327,-1114,-4,-27,-7
214903190,0.3128662109375,0.10968017578125,-0.65966796875,-0.67449951171875,-4834,10359,-1638,-3,-33,-3
214913180,0.30792236328125,0.1085205078125,-0.662353515625,-0.67437744140625,-3963,10401,-2153,1,-39,1
214923157,0.3033447265625,0.10614013671875,-0.66571044921875,-0.67352294921875,-2756,10486,-2607,4,-44,7
214933128,0.29986572265625,0.1021728515625,-0.66973876953125,-0.67169189453125,-1278,10568,-2971,7,-46,17
214943112,0.2977294921875,0.0966796875,-0.67413330078125,-0.6690673828125,234,10468,-3136,9,-46,28
214953094,0.2965087890625,0.0902099609375,-0.678466796875,-0.6661376953125,1596,10180,-3139,10,-46,32
214963081,0.2955322265625,0.0833740234375,-0.68255615234375,-0.6632080078125,2805,9726,-3014,9,-47,30
214973063,0.2945556640625,0.076416015625,-0.68634033203125,-0.66058349609375,3937,9137,-2694,8,-47,27
214983051,0.2940673828125,0.0687255859375,-0.6895751953125,-0.65826416015625,5123,8435,-2028,6,-49,29
214993029,0.29461669921875,0.05975341796875,-0.69207763671875,-0.65631103515625,6408,7629,-1021,3,-51,34
215003013,0.2958984375,0.04962158203125,-0.69366455078125,-0.6549072265625,7760,6741,263,0,-53,34
215012996,0.297119140625,0.0394287109375,-0.69439697265625,-0.654296875,9141,5777,1608,-3,-55,22
215022982,0.29736328125,0.03045654296875,-0.6944580078125,-0.654541015625,10467,4807,2763,-3,-53,0
215032959,0.2965087890625,0.02325439453125,-0.69427490234375,-0.6553955078125,11701,3890,3600,-2,-50,-22
215042941,0.29510498046875,0.01739501953125,-0.69403076171875,-0.65655517578125,12816,3077,4192,-1,-45,-34
215052927,0.2939453125,0.01214599609375,-0.6937255859375,-0.657470703125,13722,2396,4600,1,-40,-37
215062907,0.29327392578125,0.0072021484375,-0.69342041015625,-0.658203125,14308,1876,4903,4,-35,-34
215072890,0.29327392578125,0.0025634765625,-0.69317626953125,-0.658447265625,14521,1544,5019,7,-30,-29
215082877,0.2940673828125,-0.00189208984375,-0.693359375,-0.657958984375,14423,1444,4866,11,-25,-17
215092857,0.2960205078125,-0.0064697265625,-0.69390869140625,-0.65643310546875,14144,1547,4442,15,-18,-3
215102844,0.29931640625,-0.01116943359375,-0.6949462890625,-0.65374755859375,13762,1801,3885,20,-10,11
215112824,0.3037109375,-0.01556396484375,-0.6962890625,-0.65020751953125,13390,2164,3307,24,-3,19
215122808,0.308837890625,-0.01934814453125,-0.6978759765625,-0.64599609375,13056,2681,2691,28,5,23
215132790,0.3145751953125,-0.02239990234375,-0.69952392578125,-0.64129638671875,12659,3335,2061,31,13,27
215142770,0.3209228515625,-0.02484130859375,-0.701171875,-0.63623046875,12136,3995,1462,32,21,33
215152762,0.32794189453125,-0.0267333984375,-0.70263671875,-0.6309814453125,11509,4597,915,32,28,38
215162745,0.33538818359375,-0.0279541015625,-0.7037353515625,-0.625732421875,10764,5149,402,31,36,40
215172731,0.34271240234375,-0.02801513671875,-0.70458984375,-0.62078857421875,9941,5700,-82,29,43,35
215182707,0.34912109375,-0.02618408203125,-0.705078125,-0.61669921875,9066,6270,-500,27,48,20
215192689,0.35430908203125,-0.0223388671875,-0.705322265625,-0.61358642578125,8067,6827,-845,24,52,5
215202674,0.35845947265625,-0.01690673828125,-0.7052001953125,-0.61151123046875,6829,7349,-1004,21,55,-3
215212653,0.36212158203125,-0.0107421875,-0.70458984375,-0.6102294921875,5465,7786,-1004,17,56,-4
215222642,0.3658447265625,-0.0045166015625,-0.7034912109375,-0.609375,4152,8148,-954,14,57,1
215232621,0.36993408203125,0.00128173828125,-0.7021484375,-0.60845947265625,3019,8481,-955,12,58,10
215242606,0.37445068359375,0.0064697265625,-0.70074462890625,-0.60723876953125,2072,8765,-1047,11,58,18
215252588,0.37921142578125,0.01116943359375,-0.699462890625,-0.605712890625,1215,9019,-1179,11,57,24
215262576,0.38360595703125,0.01605224609375,-0.69830322265625,-0.60418701171875,313,9290,-1259,12,55,22
215272558,0.3868408203125,0.02178955078125,-0.69732666015625,-0.60308837890625,-594,9619,-1281,13,52,13
215282542,0.38873291015625,0.0284423828125,-0.696533203125,-0.6025390625,-1386,9936,-1250,15,47,3
215292523,0.3896484375,0.035400390625,-0.6959228515625,-0.60223388671875,-1976,10157,-1141,16,41,-2
215302509,0.39019775390625,0.04180908203125,-0.695556640625,-0.60186767578125,-2344,10290,-987,17,35,0
215312485,0.39056396484375,0.04730224609375,-0.6954345703125,-0.60137939453125,-2473,10313,-818,17,28,3
215322472,0.3907470703125,0.05181884765625,-0.6956787109375,-0.6005859375,-2418,10287,-692,17,21,6
215332454,0.39068603515625,0.05523681640625,-0.6962890625,-0.599609375,-2211,10205,-625,17,13,9
215342435,0.390380859375,0.05767822265625,-0.69720458984375,-0.5985107421875,-1896,10064,-560,16,6,12
215352427,0.3900146484375,0.0589599609375,-0.6983642578125,-0.5972900390625,-1467,9868,-462,14,0,16
215362412,0.3896484375,0.05914306640625,-0.6995849609375,-0.5960693359375,-969,9623,-333,12,-6,19
215372391,0.389404296875,0.0584716796875,-0.70086669921875,-0.5948486328125,-396,9332,-178,10,-10,20
215382368,0.3890380859375,0.05712890625,-0.7020263671875,-0.59381103515625,246,8996,26,7,-14,19
215392353,0.38848876953125,0.0555419921875,-0.7030029296875,-0.5931396484375,925,8633,238,5,-16,13
215402334,0.3876953125,0.0540771484375,-0.70379638671875,-0.5928955078125,1624,8261,461,3,-17,6
215412318,0.3865966796875,0.0528564453125,-0.704345703125,-0.593017578125,2317,7912,639,1,-17,-1
215422294,0.3853759765625,0.052001953125,-0.7047119140625,-0.593505859375,3014,7609,786,0,-15,-7
215432277,0.38421630859375,0.05145263671875,-0.704833984375,-0.5941162109375,3673,7351,925,-1,-12,-11
215442256,0.3834228515625,0.05108642578125,-0.70465087890625,-0.59490966796875,4273,7153,1052,-2,-8,-13
215452238,0.3829345703125,0.0509033203125,-0.70416259765625,-0.59576416015625,4781,6976,1141,-4,-5,-13
215462231,0.38287353515625,0.0509033203125,-0.70343017578125,-0.5966796875,5199,6855,1191,-5,-1,-13
215472219,0.3831787109375,0.051025390625,-0.70245361328125,-0.59765625,5532,6765,1189,-6,3,-14
215482192,0.3836669921875,0.05145263671875,-0.70135498046875,-0.59857177734375,5781,6687,1160,-7,7,-14
215492185,0.38433837890625,0.05218505859375,-0.7000732421875,-0.59954833984375,5931,6614,1130,-7,10,-15
215502173,0.38525390625,0.0531005859375,-0.69873046875,-0.60052490234375,6002,6570,1097,-7,12,-15
215512153,0.38629150390625,0.05419921875,-0.697265625,-0.6014404296875,6024,6550,1069,-7,14,-14
215522123,0.387451171875,0.05535888671875,-0.69573974609375,-0.60235595703125,5959,6538,1006,-7,15,-14
215532106,0.388427734375,0.05682373046875,-0.69427490234375,-0.603271484375,5827,6534,935,-7,16,-15
215542088,0.38909912109375,0.05853271484375,-0.69287109375,-0.604248046875,5650,6529,870,-6,15,-18
215552072,0.38946533203125,0.0606689453125,-0.69158935546875,-0.6053466796875,5428,6506,816,-5,15,-21
215562056,0.389404296875,0.06304931640625,-0.69036865234375,-0.60650634765625,5182,6500,765,-4,14,-23
215572038,0.38916015625,0.0655517578125,-0.68939208984375,-0.6075439453125,4960,6517,695,-2,12,-23
215582030,0.38873291015625,0.06805419921875,-0.68865966796875,-0.60833740234375,4774,6593,597,1,11,-22
215592009,0.3883056640625,0.0703125,-0.688232421875,-0.60882568359375,4648,6741,482,2,10,-19
215601995,0.38800048828125,0.0721435546875,-0.68804931640625,-0.6090087890625,4526,6935,394,3,7,-13
215611987,0.387939453125,0.07330322265625,-0.68817138671875,-0.6087646484375,4353,7105,362,5,5,-6
215621966,0.38812255859375,0.0738525390625,-0.68841552734375,-0.60833740234375,4102,7196,426,5,2,1
215631942,0.3883056640625,0.073974609375,-0.688720703125,-0.6077880859375,3760,7259,553,6,-1,5
215641923,0.38836669921875,0.07391357421875,-0.689208984375,-0.60723876953125,3343,7329,687,7,-4,7
215651904,0.38812255859375,0.07379150390625,-0.6898193359375,-0.60675048828125,2900,7479,761,8,-7,9
215661887,0.38763427734375,0.07354736328125,-0.690673828125,-0.6060791015625,2445,7705,738,9,-9,11
215671871,0.38690185546875,0.0731201171875,-0.6917724609375,-0.6053466796875,1926,8000,673,9,-12,14
215681852,0.3858642578125,0.07257080078125,-0.693115234375,-0.60455322265625,1412,8338,582,10,-14,16
215691836,0.3843994140625,0.07196044921875,-0.6947021484375,-0.603759765625,970,8684,458,11,-18,16
215701819,0.38232421875,0.07147216796875,-0.696533203125,-0.60302734375,635,9043,257,11,-21,13
215711803,0.3792724609375,0.07135009765625,-0.6986083984375,-0.6025390625,386,9386,36,12,-25,5
215721792,0.375244140625,0.0716552734375,-0.70086669921875,-0.6024169921875,230,9691,-188,12,-30,-3
215731767,0.370361328125,0.07196044921875,-0.7032470703125,-0.6026611328125,174,9963,-380,10,-34,-8
215741758,0.36517333984375,0.07171630859375,-0.70562744140625,-0.60302734375,208,10221,-499,8,-39,-6
215751748,0.36004638671875,0.0704345703125,-0.7080078125,-0.60345458984375,332,10428,-555,5,-44,0
215761717,0.3551025390625,0.068115234375,-0.71026611328125,-0.60400390625,523,10534,-548,1,-47,4
215771702,0.35015869140625,0.065185546875,-0.71221923828125,-0.60491943359375,776,10524,-468,-3,-51,4
215781681,0.3450927734375,0.0618896484375,-0.71392822265625,-0.606201171875,1114,10377,-351,-6,-53,0
215791665,0.33966064453125,0.05859375,-0.71533203125,-0.60791015625,1481,10087,-176,-10,-54,-6
215801647,0.333984375,0.05548095703125,-0.71624755859375,-0.6102294921875,1880,9723,94,-13,-54,-14
215811629,0.327880859375,0.052978515625,-0.71673583984375,-0.61322021484375,2353,9333,439,-15,-54,-25
215821612,0.32122802734375,0.05108642578125,-0.716796875,-0.6168212890625,2934,8989,762,-17,-54,-37
215831597,0.31427001953125,0.04974365234375,-0.716552734375,-0.62078857421875,3580,8682,1012,-19,-52,-46
215841580,0.3074951171875,0.0484619140625,-0.71600341796875,-0.6248779296875,4284,8362,1244,-21,-50,-48
215851565,0.301513671875,0.0467529296875,-0.7152099609375,-0.6287841796875,4999,8033,1459,-22,-46,-43
215861548,0.29681396484375,0.04437255859375,-0.71417236328125,-0.6324462890625,5733,7652,1701,-23,-42,-35
215871530,0.29345703125,0.04132080078125,-0.7127685546875,-0.6357421875,6447,7223,1997,-23,-37,-27
215881511,0.2911376953125,0.0380859375,-0.7110595703125,-0.63897705078125,7109,6737,2377,-24,-32,-25
215891495,0.2891845703125,0.0352783203125,-0.70892333984375,-0.642333984375,7670,6264,2774,-23,-27,-31
215901478,0.28704833984375,0.0335693359375,-0.7066650390625,-0.6458740234375,8144,5848,3112,-22,-22,-40
215911465,0.28485107421875,0.0325927734375,-0.70428466796875,-0.64947509765625,8481,5539,3309,-21,-18,-44
215921449,0.28314208984375,0.03173828125,-0.70196533203125,-0.65283203125,8729,5400,3351,-20,-15,-39
215931436,0.28253173828125,0.0301513671875,-0.69976806640625,-0.65545654296875,8905,5423,3190,-20,-11,-24
215941418,0.28350830078125,0.02734375,-0.69775390625,-0.65728759765625,9000,5512,2881,-21,-7,-6
215951403,0.28582763671875,0.0234375,-0.69580078125,-0.65850830078125,9009,5602,2474,-22,-5,9
215961377,0.2889404296875,0.0189208984375,-0.6939697265625,-0.65924072265625,8910,5659,1983,-23,-3,18
215971358,0.292236328125,0.01422119140625,-0.69219970703125,-0.65972900390625,8714,5688,1443,-25,-2,22
215981341,0.29541015625,0.0096435546875,-0.69061279296875,-0.66015625,8466,5677,848,-26,-1,21
215991325,0.29827880859375,0.00531005859375,-0.6890869140625,-0.66046142578125,8205,5637,265,-26,-1,20
216001312,0.301025390625,0.00115966796875,-0.68768310546875,-0.66070556640625,7977,5646,-346,-27,0,20
216011293,0.30364990234375,-0.0029296875,-0.68646240234375,-0.66070556640625,7755,5707,-1040,-28,1,21
216021276,0.30615234375,-0.0068359375,-0.68548583984375,-0.66058349609375,7510,5818,-1806,-28,2,20
216031258,0.30828857421875,-0.01025390625,-0.68475341796875,-0.66033935546875,7187,5967,-2580,-28,4,18
216041240,0.3099365234375,-0.01318359375,-0.68426513671875,-0.6600341796875,6793,6107,-3329,-28,5,15
216051230,0.31134033203125,-0.01556396484375,-0.6839599609375,-0.65960693359375,6335,6191,-4004,-27,6,13
216061215,0.3126220703125,-0.01776123046875,-0.68377685546875,-0.65911865234375,5867,6214,-4507,-26,7,16
216071195,0.314208984375,-0.02001953125,-0.6837158203125,-0.65838623046875,5434,6176,-4904,-24,8,19
216081187,0.31597900390625,-0.022216796875,-0.68377685546875,-0.6573486328125,4986,6120,-5222,-22,9,21
216091173,0.3175048828125,-0.02398681640625,-0.6842041015625,-0.65618896484375,4499,6068,-5488,-18,9,18
216101153,0.31829833984375,-0.0247802734375,-0.6849365234375,-0.65496826171875,3987,6005,-5678,-13,10,10
216111126,0.318359375,-0.0245361328125,-0.6861572265625,-0.6536865234375,3481,5931,-5799,-7,10,2
216121109,0.3179931640625,-0.0235595703125,-0.68780517578125,-0.65216064453125,2976,5868,-5772,-1,9,-1
216131096,0.3177490234375,-0.0223388671875,-0.68975830078125,-0.6502685546875,2476,5814,-5561,6,10,3
216141074,0.318115234375,-0.02117919921875,-0.69195556640625,-0.6478271484375,1979,5835,-5225,13,10,11
216151056,0.31927490234375,-0.02032470703125,-0.6943359375,-0.64471435546875,1526,5918,-4815,19,11,20
216161040,0.32122802734375,-0.0198974609375,-0.69696044921875,-0.64093017578125,1138,6080,-4427,25,12,30
216171023,0.32379150390625,-0.01959228515625,-0.6998291015625,-0.63641357421875,848,6354,-4119,31,14,37
216183995,0.32684326171875,-0.019287109375,-0.7030029296875,-0.63140869140625,541,6735,-3858,36,16,42
216190996,0.3299560546875,-0.01861572265625,-0.706298828125,-0.62603759765625,111,7161,-3561,39,17,43
216200978,0.332763671875,-0.01739501953125,-0.70965576171875,-0.620849609375,-485,7647,-3164,43,17,42
216210955,0.3349609375,-0.01544189453125,-0.71282958984375,-0.61602783203125,-1171,8167,-2683,44,16,38
216220938,0.33624267578125,-0.01275634765625,-0.71588134765625,-0.61187744140625,-1820,8649,-2168,43,13,30
216230922,0.33660888671875,-0.00958251953125,-0.71868896484375,-0.6083984375,-2340,9068,-1621,42,10,21
216240906,0.33575439453125,-0.00579833984375,-0.7213134765625,-0.6058349609375,-2748,9393,-1037,40,5,10
216250890,0.333740234375,-0.00140380859375,-0.7236328125,-0.60418701171875,-3082,9658,-437,37,1,-2
216260868,0.3304443359375,0.00372314453125,-0.72564697265625,-0.603515625,-3396,9905,157,34,-4,-15
216270850,0.3258056640625,0.00933837890625,-0.7275390625,-0.603759765625,-3652,10230,694,31,-10,-24
216280833,0.3203125,0.01470947265625,-0.729248046875,-0.60455322265625,-3697,10619,1172,28,-17,-28
216290815,0.3143310546875,0.0191650390625,-0.7308349609375,-0.60565185546875,-3517,10990,1612,24,-24,-26
216300797,0.3082275390625,0.02227783203125,-0.73223876953125,-0.60693359375,-3130,11258,2055,21,-32,-23
216310784,0.30181884765625,0.02423095703125,-0.73358154296875,-0.60845947265625,-2611,11372,2446,18,-40,-23
216320771,0.29498291015625,0.02545166015625,-0.73480224609375,-0.61029052734375,-2009,11314,2767,15,-46,-27
216330754,0.287353515625,0.0264892578125,-0.7359619140625,-0.61248779296875,-1323,11171,2982,12,-51,-35
216340740,0.27899169921875,0.02752685546875,-0.737060546875,-0.614990234375,-541,11066,3014,10,-56,-44
216350720,0.2701416015625,0.0284423828125,-0.7381591796875,-0.6175537109375,294,11041,2916,7,-58,-49
216360701,0.26129150390625,0.0289306640625,-0.73919677734375,-0.6201171875,1132,11021,2777,5,-60,-49
216370684,0.2525634765625,0.02880859375,-0.7401123046875,-0.62261962890625,1897,10951,2624,3,-61,-48
216380664,0.24407958984375,0.028076171875,-0.74090576171875,-0.6251220703125,2550,10805,2449,0,-63,-46
216390648,0.23583984375,0.02685546875,-0.74151611328125,-0.62762451171875,3093,10573,2261,-3,-63,-43
216400629,0.2279052734375,0.0250244140625,-0.74200439453125,-0.63006591796875,3559,10228,2036,-6,-63,-40
216410611,0.220458984375,0.0225830078125,-0.74237060546875,-0.63232421875,4032,9802,1766,-8,-63,-35
216420595,0.2137451171875,0.01934814453125,-0.74261474609375,-0.63446044921875,4595,9425,1414,-11,-62,-29
216430579,0.20794677734375,0.01507568359375,-0.74273681640625,-0.6363525390625,5207,9167,978,-15,-61,-20
216440561,0.20367431640625,0.0093994140625,-0.74267578125,-0.63787841796875,5837,9019,469,-19,-58,-4
216450549,0.20123291015625,0.00213623046875,-0.7423095703125,-0.63922119140625,6413,8891,18,-25,-54,14
216460529,0.20037841796875,-0.00634765625,-0.74139404296875,-0.6405029296875,6891,8707,-396,-30,-49,27
216470513,0.20068359375,-0.0152587890625,-0.739990234375,-0.641845703125,7245,8481,-799,-35,-43,34
216480494,0.20159912109375,-0.02386474609375,-0.7381591796875,-0.6434326171875,7561,8199,-1230,-40,-36,32
216490478,0.20257568359375,-0.03131103515625,-0.73602294921875,-0.645263671875,7821,7857,-1666,-43,-27,22
216500459,0.203125,-0.036865234375,-0.733642578125,-0.6474609375,8024,7473,-2074,-45,-18,6
216510439,0.203125,-0.04010009765625,-0.73114013671875,-0.65008544921875,8180,7123,-2415,-45,-9,-11
216520432,0.2030029296875,-0.04144287109375,-0.72869873046875,-0.65283203125,8253,6823,-2675,-43,1,-22
216530413,0.20330810546875,-0.04144287109375,-0.7261962890625,-0.65545654296875,8210,6584,-2836,-39,11,-25
216540397,0.20428466796875,-0.04058837890625,-0.7237548828125,-0.657958984375,8030,6395,-2879,-36,20,-24
216550373,0.20599365234375,-0.0389404296875,-0.72137451171875,-0.66015625,7738,6259,-2845,-31,28,-22
216560355,0.2086181640625,-0.03662109375,-0.718994140625,-0.6619873046875,7347,6119,-2706,-27,36,-18
216570339,0.2119140625,-0.03369140625,-0.71673583984375,-0.66351318359375,6867,5974,-2519,-21,44,-15
216580322,0.21588134765625,-0.0299072265625,-0.714599609375,-0.66473388671875,6285,5815,-2286,-16,51,-14
216590306,0.2200927734375,-0.02508544921875,-0.71270751953125,-0.6656494140625,5639,5666,-2029,-10,58,-16
216600293,0.2242431640625,-0.01910400390625,-0.7109375,-0.66632080078125,4953,5550,-1747,-5,62,-21
216610279,0.2279052734375,-0.01177978515625,-0.70947265625,-0.66680908203125,4290,5487,-1466,1,65,-29
216620260,0.23101806640625,-0.003173828125,-0.708251953125,-0.6671142578125,3698,5485,-1227,7,68,-37
216630240,0.2333984375,0.00653076171875,-0.7073974609375,-0.66717529296875,3227,5519,-1033,12,70,-47
216640232,0.23516845703125,0.01739501953125,-0.70684814453125,-0.6669921875,2855,5573,-911,18,71,-56
216650218,0.23614501953125,0.02935791015625,-0.70654296875,-0.66650390625,2579,5647,-852,23,73,-66
216660205,0.236328125,0.04254150390625,-0.70654296875,-0.66571044921875,2344,5766,-830,28,75,-77
216670189,0.23590087890625,0.056884765625,-0.70672607421875,-0.66461181640625,2106,5920,-763,33,77,-85
216680173,0.23541259765625,0.07177734375,-0.70684814453125,-0.6632080078125,1851,6115,-653,37,79,-85
216690155,0.23541259765625,0.08642578125,-0.70703125,-0.6612548828125,1593,6387,-541,40,81,-77
216700125,0.2364501953125,0.10028076171875,-0.70733642578125,-0.6585693359375,1368,6701,-484,43,83,-63
216710108,0.23876953125,0.11285400390625,-0.70782470703125,-0.65521240234375,1160,7036,-483,44,83,-47
216720092,0.24224853515625,0.124267578125,-0.70849609375,-0.651123046875,961,7415,-530,45,84,-31
216730075,0.24676513671875,0.13458251953125,-0.70941162109375,-0.6463623046875,704,7829,-597,46,85,-18
216740057,0.251953125,0.14404296875,-0.7103271484375,-0.64129638671875,394,8262,-644,46,84,-8
216750041,0.2572021484375,0.15313720703125,-0.71112060546875,-0.63623046875,35,8711,-682,45,83,-4
216760029,0.26239013671875,0.16168212890625,-0.71173095703125,-0.63128662109375,-333,9139,-738,42,79,0
216770005,0.2674560546875,0.16961669921875,-0.71221923828125,-0.62652587890625,-648,9487,-752,39,75,4
216779996,0.27239990234375,0.17681884765625,-0.71240234375,-0.62213134765625,-911,9747,-744,34,71,7
216789980,0.27716064453125,0.18328857421875,-0.71240234375,-0.61810302734375,-1121,9982,-742,30,66,9
216799958,0.28179931640625,0.18890380859375,-0.7122802734375,-0.614501953125,-1303,10247,-738,25,61,14
216809940,0.28692626953125,0.19268798828125,-0.7120361328125,-0.6112060546875,-1467,10613,-727,18,54,30
216819923,0.2933349609375,0.19366455078125,-0.71209716796875,-0.6077880859375,-1628,11051,-698,11,46,58
216829907,0.3016357421875,0.190673828125,-0.7125244140625,-0.60418701171875,-1745,11478,-634,3,36,94
216839889,0.31207275390625,0.18316650390625,-0.71337890625,-0.60015869140625,-1782,11850,-525,-7,26,135
216849871,0.32470703125,0.17108154296875,-0.71453857421875,-0.595703125,-1731,12070,-416,-18,16,174
216859856,0.3392333984375,0.1544189453125,-0.7156982421875,-0.59063720703125,-1567,12152,-333,-29,5,211
216869836,0.35540771484375,0.13372802734375,-0.71673583984375,-0.5849609375,-1278,12110,-301,-40,-3,242
216879816,0.37274169921875,0.10943603515625,-0.7171630859375,-0.57861328125,-887,11939,-310,-52,-10,268
216889798,0.39093017578125,0.082275390625,-0.71673583984375,-0.5716552734375,-440,11661,-356,-63,-15,289
216899784,0.40966796875,0.0526123046875,-0.71514892578125,-0.56396484375,45,11279,-447,-74,-19,305
216909771,0.428466796875,0.02105712890625,-0.712158203125,-0.55572509765625,587,10807,-544,-84,-22,317
216919753,0.44720458984375,-0.01177978515625,-0.70770263671875,-0.546875,1155,10243,-682,-93,-22,323
216929737,0.46527099609375,-0.04534912109375,-0.70166015625,-0.53778076171875,1715,9552,-825,-101,-22,321
216939717,0.48199462890625,-0.0784912109375,-0.6942138671875,-0.52880859375,2251,8767,-969,-108,-21,308
216949699,0.49664306640625,-0.11016845703125,-0.685546875,-0.5208740234375,2782,7878,-1088,-114,-20,281
216959682,0.508544921875,-0.13909912109375,-0.67620849609375,-0.51458740234375,3292,6918,-1177,-118,-20,242
216969666,0.51715087890625,-0.16461181640625,-0.666748046875,-0.51080322265625,3780,5905,-1203,-120,-20,193
216979649,0.52227783203125,-0.186279296875,-0.65777587890625,-0.50982666015625,4255,4878,-1175,-121,-21,141
216989635,0.5240478515625,-0.20404052734375,-0.64959716796875,-0.51165771484375,4689,3861,-1121,-119,-23,90
216999615,0.52276611328125,-0.2181396484375,-0.64263916015625,-0.51593017578125,5149,2898,-1047,-116,-25,43
217009597,0.51873779296875,-0.2288818359375,-0.6370849609375,-0.522216796875,5645,1979,-973,-110,-28,0
217019580,0.512451171875,-0.236572265625,-0.63299560546875,-0.5299072265625,6227,1176,-868,-102,-30,-37
217029561,0.50439453125,-0.241455078125,-0.63031005859375,-0.53863525390625,6841,535,-759,-91,-31,-66
217039544,0.49517822265625,-0.24383544921875,-0.6287841796875,-0.5477294921875,7454,49,-696,-80,-29,-88
217049527,0.485595703125,-0.244384765625,-0.6282958984375,-0.55657958984375,8015,-294,-655,-67,-26,-99
217059510,0.4764404296875,-0.24334716796875,-0.62847900390625,-0.564697265625,8515,-549,-572,-52,-21,-102
217069492,0.46832275390625,-0.24102783203125,-0.62908935546875,-0.57177734375,8974,-773,-435,-38,-14,-103
217079475,0.4610595703125,-0.2369384765625,-0.630126953125,-0.57818603515625,9375,-977,-223,-23,-5,-110
217089466,0.45379638671875,-0.23016357421875,-0.63201904296875,-0.5845947265625,9727,-1147,-51,-8,4,-131
217099449,0.44549560546875,-0.2196044921875,-0.63507080078125,-0.5916748046875,10020,-1279,85,6,14,-164
217109434,0.43524169921875,-0.2042236328125,-0.639404296875,-0.60009765625,10326,-1326,189,20,25,-211
217119417,0.422607421875,-0.18359375,-0.64483642578125,-0.60986328125,10621,-1229,297,32,38,-256
217129400,0.408203125,-0.1583251953125,-0.650634765625,-0.62054443359375,10938,-985,425,43,52,-291
217139376,0.39337158203125,-0.1297607421875,-0.656005859375,-0.63104248046875,11156,-589,501,51,68,-304
217149360,0.37994384765625,-0.10015869140625,-0.66021728515625,-0.64013671875,11281,-75,531,57,84,-290
217159343,0.36956787109375,-0.0712890625,-0.66314697265625,-0.64703369140625,11265,570,494,60,99,-257
217169329,0.3634033203125,-0.044677734375,-0.66473388671875,-0.6512451171875,11045,1298,376,62,113,-208
217179314,0.3621826171875,-0.02117919921875,-0.665283203125,-0.652587890625,10653,2031,220,63,124,-149
217189296,0.365966796875,-0.0013427734375,-0.66522216796875,-0.65087890625,10075,2716,30,65,134,-91
217199280,0.37408447265625,0.01544189453125,-0.664794921875,-0.646484375,9303,3318,-216,68,141,-41
217209262,0.38519287109375,0.02984619140625,-0.66424560546875,-0.63995361328125,8383,3825,-507,70,145,-4
217219246,0.39813232421875,0.0428466796875,-0.663818359375,-0.6317138671875,7407,4317,-861,73,148,20
217229236,0.411865234375,0.0550537109375,-0.6634521484375,-0.62225341796875,6440,4811,-1238,75,148,34
217239220,0.42559814453125,0.06683349609375,-0.66326904296875,-0.6119384765625,5515,5423,-1635,77,146,43
217249205,0.43896484375,0.078369140625,-0.66326904296875,-0.60107421875,4553,6139,-2048,78,142,49
217259192,0.451416015625,0.0897216796875,-0.663330078125,-0.590087890625,3460,6891,-2442,78,136,51
217269175,0.4625244140625,0.10113525390625,-0.66357421875,-0.5792236328125,2241,7740,-2793,78,127,51
217279159,0.47222900390625,0.11248779296875,-0.6639404296875,-0.56878662109375,912,8690,-3032,76,118,52
217289130,0.4803466796875,0.12347412109375,-0.66448974609375,-0.55902099609375,-447,9659,-3158,73,105,50
217299112,0.4866943359375,0.134033203125,-0.6650390625,-0.55035400390625,-1756,10534,-3176,68,90,46
217309095,0.49102783203125,0.14373779296875,-0.66583251953125,-0.54302978515625,-2895,11248,-3147,60,72,39
217319079,0.49322509765625,0.15252685546875,-0.66693115234375,-0.537353515625,-3859,11804,-3089,52,52,31
217329062,0.4932861328125,0.15985107421875,-0.66839599609375,-0.53326416015625,-4632,12257,-3038,42,30,26
217339042,0.491943359375,0.16485595703125,-0.67047119140625,-0.5303955078125,-5244,12605,-2949,31,8,32
217349022,0.48974609375,0.166748046875,-0.67315673828125,-0.5284423828125,-5716,12817,-2816,19,-14,44
217359006,0.4869384765625,0.16534423828125,-0.67657470703125,-0.527099609375,-6004,12902,-2661,7,-36,57
217368993,0.48345947265625,0.16094970703125,-0.6805419921875,-0.52655029296875,-6119,12872,-2479,-5,-56,65
217378974,0.47894287109375,0.154296875,-0.684814453125,-0.527099609375,-5986,12691,-2323,-16,-74,66
217388951,0.4732666015625,0.14599609375,-0.6893310546875,-0.52874755859375,-5547,12347,-2135,-25,-88,59
217398934,0.46649169921875,0.1365966796875,-0.693603515625,-0.53167724609375,-4824,11836,-1876,-33,-100,48
217408916,0.4586181640625,0.12677001953125,-0.69757080078125,-0.53570556640625,-3905,11209,-1565,-40,-108,33
217418899,0.44970703125,0.116943359375,-0.70111083984375,-0.5408935546875,-2827,10518,-1229,-45,-114,15
217428885,0.439697265625,0.10772705078125,-0.70404052734375,-0.54718017578125,-1619,9853,-906,-49,-116,-4
217438862,0.4288330078125,0.0992431640625,-0.70654296875,-0.55419921875,-401,9247,-651,-51,-117,-19
217448845,0.41766357421875,0.09100341796875,-0.7086181640625,-0.5614013671875,811,8711,-473,-52,-116,-26
217458828,0.40673828125,0.08245849609375,-0.71044921875,-0.568359375,1999,8208,-294,-53,-115,-26
217468812,0.39654541015625,0.07330322265625,-0.71197509765625,-0.57489013671875,3193,7694,-109,-53,-113,-22
217478795,0.38726806640625,0.0635986328125,-0.713134765625,-0.5809326171875,4385,7139,152,-53,-109,-19
217488775,0.37872314453125,0.05389404296875,-0.7138671875,-0.58660888671875,5568,6613,464,-52,-104,-21
217498768,0.370849609375,0.04473876953125,-0.714111328125,-0.5921630859375,6727,6161,812,-50,-96,-26
217508750,0.363525390625,0.03656005859375,-0.71380615234375,-0.59747314453125,7836,5834,1088,-48,-86,-32
217518735,0.3570556640625,0.029296875,-0.71319580078125,-0.6025390625,8868,5612,1264,-46,-75,-35
217528713,0.351806640625,0.02252197265625,-0.71209716796875,-0.607177734375,9784,5436,1406,-44,-64,-32
217538695,0.34820556640625,0.0159912109375,-0.7105712890625,-0.61126708984375,10592,5249,1619,-43,-52,-24
217548679,0.34637451171875,0.00946044921875,-0.70849609375,-0.61480712890625,11264,5032,1843,-41,-41,-16
217558662,0.3463134765625,0.00286865234375,-0.7060546875,-0.61773681640625,11876,4814,2033,-40,-30,-7
217568650,0.347900390625,-0.00372314453125,-0.70318603515625,-0.6201171875,12412,4600,2147,-38,-19,2
217578629,0.35113525390625,-0.01019287109375,-0.7000732421875,-0.62176513671875,12865,4366,2133,-36,-6,11
217588612,0.35601806640625,-0.01629638671875,-0.6966552734375,-0.6226806640625,13171,4136,2000,-34,7,18
217598594,0.3621826171875,-0.02166748046875,-0.693115234375,-0.6229248046875,13304,3931,1741,-30,20,23
217608578,0.369384765625,-0.02587890625,-0.68939208984375,-0.62261962890625,13240,3829,1375,-26,34,24
217618561,0.37713623046875,-0.02862548828125,-0.6856689453125,-0.62200927734375,12957,3826,932,-23,46,23
217628543,0.38507080078125,-0.02978515625,-0.681884765625,-0.62127685546875,12437,3890,462,-19,57,19
217638526,0.39288330078125,-0.02935791015625,-0.6781005859375,-0.6204833984375,11758,4035,-26,-16,64,16
217648509,0.40057373046875,-0.0277099609375,-0.67437744140625,-0.61968994140625,10967,4225,-525,-14,70,12
217658492,0.4078369140625,-0.02496337890625,-0.67083740234375,-0.61895751953125,10096,4447,-1032,-12,74,9
217668476,0.41455078125,-0.0213623046875,-0.66748046875,-0.61822509765625,9161,4681,-1501,-10,75,5
217678460,0.4205322265625,-0.01702880859375,-0.66436767578125,-0.61767578125,8199,4940,-1917,-9,74,1
217688449,0.42572021484375,-0.01226806640625,-0.6614990234375,-0.6173095703125,7221,5203,-2278,-8,70,-2
217698432,0.4298095703125,-0.00714111328125,-0.6590576171875,-0.61712646484375,6274,5465,-2607,-7,64,-6
217708415,0.4329833984375,-0.00213623046875,-0.65716552734375,-0.61700439453125,5433,5692,-2868,-6,56,-8
217718397,0.4354248046875,0.0023193359375,-0.65576171875,-0.6168212890625,4652,5907,-3013,-5,47,-5
217728381,0.43743896484375,0.00579833984375,-0.65484619140625,-0.6163330078125,3925,6017,-3025,-4,38,1
217738359,0.43914794921875,0.00830078125,-0.65435791015625,-0.6156005859375,3239,6070,-2903,-2,28,8
217748343,0.44061279296875,0.0098876953125,-0.65435791015625,-0.61456298828125,2618,6108,-2697,0,19,14
217758322,0.4417724609375,0.01055908203125,-0.65484619140625,-0.6131591796875,2102,6151,-2493,3,10,19
217768306,0.4425048828125,0.0106201171875,-0.656005859375,-0.61138916015625,1729,6187,-2317,6,2,22
217778293,0.44281005859375,0.01025390625,-0.65771484375,-0.6092529296875,1494,6193,-2120,10,-4,23
217788272,0.4429931640625,0.0093994140625,-0.65997314453125,-0.60675048828125,1411,6166,-1912,15,-9,26
217798256,0.44317626953125,0.00811767578125,-0.6627197265625,-0.6036376953125,1425,6109,-1650,20,-13,29
217808242,0.4434814453125,0.00640869140625,-0.665771484375,-0.60003662109375,1533,6015,-1325,24,-16,32
217818229,0.44403076171875,0.0045166015625,-0.66912841796875,-0.595947265625,1696,5955,-933,30,-18,35
217828212,0.44482421875,0.00262451171875,-0.67254638671875,-0.59149169921875,1903,5950,-535,34,-18,37
217838191,0.44561767578125,0.0008544921875,-0.6761474609375,-0.58673095703125,2145,5988,-161,38,-18,36
217848183,0.4464111328125,-0.00042724609375,-0.67987060546875,-0.58184814453125,2405,6065,176,41,-17,33
217858166,0.4468994140625,-0.00103759765625,-0.68359375,-0.57708740234375,2615,6155,479,44,-16,26
217868143,0.44696044921875,-0.00067138671875,-0.687255859375,-0.5726318359375,2772,6258,760,47,-14,17
217878120,0.446533203125,0.0008544921875,-0.69085693359375,-0.56866455078125,2920,6382,1022,49,-12,6
217888105,0.445556640625,0.0035400390625,-0.6943359375,-0.56512451171875,3104,6551,1273,50,-9,-3
217898081,0.44439697265625,0.00714111328125,-0.6976318359375,-0.56201171875,3357,6768,1484,52,-6,-11
217908064,0.44329833984375,0.01129150390625,-0.70068359375,-0.5589599609375,3711,7001,1637,52,-3,-14
217918052,0.4425048828125,0.0157470703125,-0.7034912109375,-0.55596923828125,4097,7222,1719,51,2,-16
217928035,0.442138671875,0.02032470703125,-0.70599365234375,-0.552978515625,4483,7427,1758,50,7,-16
217938017,0.44219970703125,0.02508544921875,-0.70806884765625,-0.54998779296875,4805,7610,1733,49,11,-15
217947999,0.4427490234375,0.030029296875,-0.70977783203125,-0.547119140625,5058,7797,1665,47,17,-15
217957989,0.4434814453125,0.03521728515625,-0.711181640625,-0.54437255859375,5250,8039,1537,44,20,-16
217967965,0.4443359375,0.04058837890625,-0.71221923828125,-0.5419921875,5377,8323,1359,40,23,-16
217977947,0.4453125,0.04608154296875,-0.712890625,-0.53985595703125,5446,8567,1149,36,26,-18
217987929,0.4461669921875,0.05169677734375,-0.71319580078125,-0.5382080078125,5520,8749,942,32,28,-21
217997914,0.4468994140625,0.05755615234375,-0.71307373046875,-0.537109375,5584,8869,777,27,29,-27
218007899,0.44720458984375,0.0638427734375,-0.71258544921875,-0.53680419921875,5643,8945,637,23,30,-35
218017881,0.44696044921875,0.07086181640625,-0.71173095703125,-0.537353515625,5669,8986,498,19,31,-46
218027865,0.446044921875,0.07855224609375,-0.71044921875,-0.5386962890625,5608,9022,402,14,31,-56
218037849,0.4444580078125,0.0867919921875,-0.708740234375,-0.541015625,5457,9008,342,10,30,-65
218047831,0.4423828125,0.0950927734375,-0.70660400390625,-0.5440673828125,5260,8983,342,4,29,-69
218057811,0.44000244140625,0.10296630859375,-0.7042236328125,-0.547607421875,4978,8943,365,0,25,-68
218067795,0.43756103515625,0.110107421875,-0.70172119140625,-0.55145263671875,4662,8869,422,-5,21,-64
218077784,0.4351806640625,0.11578369140625,-0.69921875,-0.55523681640625,4307,8743,460,-10,14,-52
218087767,0.4332275390625,0.11968994140625,-0.69696044921875,-0.558837890625,3976,8604,486,-15,8,-39
218097750,0.43170166015625,0.1217041015625,-0.6949462890625,-0.56207275390625,3708,8458,516,-19,1,-24
218107731,0.43060302734375,0.1219482421875,-0.69317626953125,-0.56500244140625,3525,8340,502,-23,-5,-12
218117705,0.42987060546875,0.1207275390625,-0.69171142578125,-0.56768798828125,3400,8225,463,-26,-10,-2
218127691,0.42926025390625,0.118408203125,-0.69036865234375,-0.5701904296875,3304,8119,430,-28,-14,5
218137671,0.42877197265625,0.11529541015625,-0.68914794921875,-0.57269287109375,3256,7999,404,-31,-17,9
218147655,0.42828369140625,0.1116943359375,-0.68798828125,-0.5751953125,3271,7891,368,-33,-19,11
218157636,0.427734375,0.10784912109375,-0.68670654296875,-0.57781982421875,3299,7772,340,-34,-20,10
218167622,0.42706298828125,0.10406494140625,-0.68536376953125,-0.58062744140625,3320,7638,363,-36,-20,7
218177603,0.42620849609375,0.1004638671875,-0.683837890625,-0.58367919921875,3340,7529,384,-36,-20,4
218187587,0.42535400390625,0.09716796875,-0.68212890625,-0.58685302734375,3355,7425,418,-37,-18,2
218197569,0.42449951171875,0.09405517578125,-0.6802978515625,-0.59002685546875,3403,7337,465,-37,-16,1
218207551,0.4239501953125,0.091064453125,-0.6783447265625,-0.59320068359375,3435,7261,514,-37,-13,2
218217542,0.42376708984375,0.08807373046875,-0.67626953125,-0.59613037109375,3453,7178,554,-37,-10,5
218227519,0.424072265625,0.08514404296875,-0.67413330078125,-0.5987548828125,3500,7105,587,-36,-7,8
218237502,0.4248046875,0.0821533203125,-0.67193603515625,-0.60107421875,3581,7049,609,-34,-4,11
218247484,0.42608642578125,0.0792236328125,-0.6697998046875,-0.60296630859375,3715,7013,612,-32,-1,14
218257472,0.42779541015625,0.07635498046875,-0.66778564453125,-0.6043701171875,3888,6990,570,-29,2,17
218267454,0.429931640625,0.07366943359375,-0.66583251953125,-0.6053466796875,4060,6995,529,-27,6,18
218277433,0.43218994140625,0.0712890625,-0.66400146484375,-0.60601806640625,4204,7037,519,-24,7,18
218287427,0.4344482421875,0.06939697265625,-0.6622314453125,-0.6065673828125,4271,7070,551,-21,9,15
218297411,0.43621826171875,0.06817626953125,-0.6605224609375,-0.6072998046875,4239,7093,641,-18,10,9
218307393,0.43731689453125,0.06781005859375,-0.6588134765625,-0.60845947265625,4141,7080,744,-16,9,0
218317369,0.43756103515625,0.0682373046875,-0.65716552734375,-0.60992431640625,4032,7079,845,-15,7,-9
218327351,0.43695068359375,0.0692138671875,-0.65570068359375,-0.61181640625,3913,7045,935,-13,4,-18
218337334,0.43560791015625,0.07073974609375,-0.6544189453125,-0.61407470703125,3820,6993,1025,-12,2,-25
218347318,0.4334716796875,0.072509765625,-0.65325927734375,-0.61651611328125,3725,6985,1088,-11,-1,-30
218357299,0.43096923828125,0.07427978515625,-0.65234375,-0.61907958984375,3652,6975,1134,-10,-5,-31
218367281,0.42822265625,0.07586669921875,-0.651611328125,-0.62158203125,3589,6967,1191,-10,-7,-31
218377265,0.42535400390625,0.0770263671875,-0.6510009765625,-0.6240234375,3537,6947,1250,-10,-11,-29
218387245,0.42254638671875,0.0777587890625,-0.65057373046875,-0.62628173828125,3479,6937,1306,-9,-13,-25
218397241,0.41973876953125,0.07806396484375,-0.6502685546875,-0.62841796875,3439,6921,1352,-9,-16,-22
218407224,0.41705322265625,0.077880859375,-0.650146484375,-0.63037109375,3444,6925,1366,-9,-18,-19
218417206,0.41455078125,0.07733154296875,-0.65020751953125,-0.63201904296875,3480,6964,1345,-9,-19,-15
218427195,0.41229248046875,0.0762939453125,-0.650390625,-0.6334228515625,3520,7016,1282,-9,-20,-10
218437177,0.410400390625,0.07489013671875,-0.65069580078125,-0.634521484375,3576,7067,1192,-9,-20,-5
218447158,0.40887451171875,0.072998046875,-0.65106201171875,-0.6353759765625,3633,7106,1095,-9,-20,-1
218457139,0.4075927734375,0.07086181640625,-0.65142822265625,-0.63604736328125,3661,7153,991,-10,-19,2
218467114,0.406494140625,0.0687255859375,-0.65167236328125,-0.63671875,3669,7171,917,-11,-18,3
218477096,0.40545654296875,0.0665283203125,-0.65191650390625,-0.63739013671875,3663,7194,876,-11,-17,3
218487079,0.4044189453125,0.0645751953125,-0.6519775390625,-0.63818359375,3654,7191,836,-11,-16,2
218497062,0.40338134765625,0.06280517578125,-0.6519775390625,-0.63897705078125,3666,7196,801,-12,-15,0
218507051,0.40234375,0.0611572265625,-0.65191650390625,-0.639892578125,3692,7181,760,-12,-14,-1
218517029,0.4013671875,0.0596923828125,-0.65179443359375,-0.6407470703125,3710,7160,728,-12,-12,-2
218527010,0.40045166015625,0.058349609375,-0.65167236328125,-0.6416015625,3717,7127,708,-11,-11,-1
218536996,0.399658203125,0.05706787109375,-0.6514892578125,-0.64239501953125,3705,7088,713,-10,-10,-1
218546982,0.39886474609375,0.0560302734375,-0.6513671875,-0.64306640625,3673,7024,724,-9,-9,-2
218556958,0.398193359375,0.05511474609375,-0.65130615234375,-0.6436767578125,3647,6944,738,-8,-8,-2
218566941,0.39752197265625,0.05438232421875,-0.65130615234375,-0.64410400390625,3622,6872,749,-5,-7,-2
218576925,0.3968505859375,0.05401611328125,-0.6514892578125,-0.64434814453125,3614,6818,763,-2,-6,-4
218586911,0.39605712890625,0.0538330078125,-0.65185546875,-0.64447021484375,3643,6785,738,0,-6,-5
218596891,0.39532470703125,0.05377197265625,-0.65252685546875,-0.644287109375,3708,6779,716,3,-6,-5
218606877,0.3946533203125,0.053955078125,-0.65338134765625,-0.643798828125,3787,6816,690,7,-4,-5
218616857,0.39410400390625,0.05426025390625,-0.6544189453125,-0.64306640625,3830,6875,687,9,-3,-3
218626839,0.3936767578125,0.05487060546875,-0.655517578125,-0.64215087890625,3799,6950,697,12,-2,-3
218636824,0.39324951171875,0.05560302734375,-0.65673828125,-0.64111328125,3740,7027,717,13,-1,-3
218646808,0.3929443359375,0.05657958984375,-0.65789794921875,-0.6400146484375,3691,7106,730,14,0,-3
218656791,0.39263916015625,0.057861328125,-0.65899658203125,-0.63897705078125,3639,7200,763,14,2,-5
218666770,0.392333984375,0.05926513671875,-0.65997314453125,-0.63800048828125,3587,7299,800,14,3,-5
218676765,0.39215087890625,0.060791015625,-0.6607666015625,-0.63714599609375,3512,7415,853,13,5,-5
218686747,0.39208984375,0.0623779296875,-0.6614990234375,-0.63629150390625,3401,7489,915,13,5,-4
218696731,0.39215087890625,0.06378173828125,-0.66204833984375,-0.635498046875,3291,7544,983,12,6,-2
218706711,0.39239501953125,0.06512451171875,-0.6624755859375,-0.634765625,3186,7590,1040,10,6,0
218716691,0.392822265625,0.0662841796875,-0.66278076171875,-0.634033203125,3115,7612,1091,9,7,1
218726672,0.3934326171875,0.0672607421875,-0.6630859375,-0.63330078125,3077,7654,1112,8,6,3
218736657,0.3941650390625,0.06793212890625,-0.663330078125,-0.63250732421875,3038,7699,1129,8,6,6
218746639,0.39495849609375,0.06842041015625,-0.66363525390625,-0.63165283203125,3015,7745,1143,7,5,8
218756621,0.39581298828125,0.06884765625,-0.66387939453125,-0.63079833984375,2966,7782,1157,7,5,8
218766605,0.3966064453125,0.0692138671875,-0.66412353515625,-0.6300048828125,2878,7817,1180,7,4,8
218776588,0.397216796875,0.0697021484375,-0.66436767578125,-0.6292724609375,2817,7810,1207,7,4,7
218786570,0.397705078125,0.0701904296875,-0.6646728515625,-0.628662109375,2769,7829,1208,7,3,5
218796554,0.39801025390625,0.0706787109375,-0.66497802734375,-0.6280517578125,2763,7833,1191,7,2,5
218806542,0.39825439453125,0.0712890625,-0.66534423828125,-0.62744140625,2790,7854,1172,7,2,3
218816520,0.3984375,0.07177734375,-0.66583251953125,-0.62677001953125,2833,7888,1131,7,1,4
218826502,0.39862060546875,0.07220458984375,-0.66632080078125,-0.62603759765625,2875,7931,1087,8,1,4
218836485,0.3988037109375,0.0726318359375,-0.6668701171875,-0.62530517578125,2908,7960,1069,8,1,4
218846468,0.3990478515625,0.0731201171875,-0.6673583984375,-0.62457275390625,2928,7986,1023,7,1,4
218856451,0.399169921875,0.07366943359375,-0.66778564453125,-0.62396240234375,2942,8022,988,7,2,3
218866433,0.3992919921875,0.07427978515625,-0.6680908203125,-0.62347412109375,2978,8022,970,6,2,1
218876424,0.39935302734375,0.07501220703125,-0.66839599609375,-0.623046875,3021,8046,937,5,3,0
218886407,0.39947509765625,0.0758056640625,-0.66851806640625,-0.62274169921875,3052,8060,920,4,4,0
218896394,0.39959716796875,0.07659912109375,-0.66851806640625,-0.62255859375,3063,8051,904,3,4,-1
218906371,0.39984130859375,0.077392578125,-0.66845703125,-0.62237548828125,3073,8064,903,2,5,0
218916350,0.400146484375,0.078125,-0.66827392578125,-0.622314453125,3048,8061,916,1,5,1
218926331,0.40057373046875,0.07879638671875,-0.66802978515625,-0.6221923828125,3057,8048,912,1,6,2
218936315,0.40106201171875,0.07928466796875,-0.667724609375,-0.6220703125,3045,8049,893,0,6,3
218946301,0.4017333984375,0.07965087890625,-0.66741943359375,-0.6219482421875,3052,8039,891,-1,6,4
218956280,0.4024658203125,0.0799560546875,-0.6671142578125,-0.621826171875,3079,8032,858,-1,6,5
218966263,0.40325927734375,0.080078125,-0.666748046875,-0.62164306640625,3115,8019,813,-2,6,6
218976243,0.40411376953125,0.08013916015625,-0.66644287109375,-0.6214599609375,3145,8005,790,-2,6,6
218986235,0.4049072265625,0.08026123046875,-0.66607666015625,-0.62127685546875,3172,7953,771,-2,6,5
218996218,0.40570068359375,0.08050537109375,-0.66571044921875,-0.62115478515625,3203,7904,741,-2,6,4
